time,seconds_elapsed,z,y,x
1732873795721051400,0.122051513671875,-0.22587679383158682,-0.05341814032420516,-0.03206649412558181
1732873795731046400,0.13204638671875,-0.3204945211589336,-0.0019271686702966688,-0.00975284591083182
1732873795741041400,0.14204150390625,-0.396748324277997,0.056972617935389276,-0.006358712243800983
1732873795751036400,0.152036376953125,-0.4093324960410595,0.08066825856044887,-0.009724896174692549
1732873795761032700,0.16203271484375,-0.37583646915256974,0.03276493613496423,0.011459414649987593
1732873795771027500,0.17202734375,-0.27620822018682956,-0.0010290507867932318,0.010595778991398401
1732873795781022500,0.1820224609375,-0.14880524458885191,0.008895546378195285,-0.007425355094624683
1732873795791017500,0.192017578125,-0.06854220582842827,0.006690729810297489,0.004681422114768065
1732873795801012500,0.202012451171875,0.014802432334423065,-0.012055033322423695,-0.019819427096087017
1732873795811008500,0.212008544921875,0.06544891598820686,-0.022186112844943998,-0.04449088363349438
1732873795821003500,0.22200341796875,0.08917056783735751,-0.04181728051006794,-0.08033037750874646
1732873795830998500,0.23199853515625,0.1336041683256626,-0.06387611371353268,-0.10049533239016309
1732873795840993300,0.2419931640625,0.17366788316667078,-0.05403408026546239,-0.10182597820572555
1732873795850988300,0.25198828125,0.1790484071612358,-0.03649550096541643,-0.12403886945974081
1732873795860984600,0.261984619140625,0.11101882703006268,-0.05114873408749699,-0.10901455626925453
1732873795870979600,0.2719794921875,0.039901802277565,-0.04102890661135316,-0.08465016780346632
1732873795880974600,0.281974609375,-0.0325642989963293,0.017501754420995712,-0.05275244295708835
1732873795890969600,0.291969482421875,-0.10960954475402832,0.07314838444963097,-0.07325923811269458
1732873795900964600,0.301964599609375,-0.19138181903362272,0.09853475464060903,-0.09298469189857132
1732873795910960400,0.31196044921875,-0.2112164003163576,0.12017097851783036,-0.07386684405044652
1732873795920955400,0.321955322265625,-0.1954044986784458,0.10772913783490658,-0.03813968797586858
1732873795930950400,0.331950439453125,-0.13627718692719937,0.09249795869439839,-0.007825079018913675
1732873795940945400,0.3419453125,-0.06997194637060165,0.056732671699672936,-0.03481261906252475
1732873795950941400,0.35194140625,-0.05597556972205638,0.037624212734401224,-0.05320790424016304
1732873795960936400,0.3619365234375,-0.047458501267433166,0.022801906655728815,-0.06824358364145737
1732873795970931500,0.371931396484375,-0.03360767056941986,-0.002865764694660902,-0.06534250560482033
1732873795980926500,0.381926513671875,-0.02919920647740364,-0.005862462292611599,-0.05572096477332525
1732873795990921500,0.39192138671875,0.0015735329270362853,-0.04531710532456636,-0.04246427317671478
1732873796000917500,0.40191748046875,0.0447469042211771,-0.0681570059031248,-0.022035801671037913
1732873796010912500,0.41191259765625,0.02538987732231617,-0.06619914983361959,-0.028843328544707034
1732873796020907500,0.421907470703125,-0.04227671471536159,-0.04470262668803334,-0.012122461119003128
1732873796030902300,0.43190234375,-0.10189677841961384,0.003609714929759502,0.06338580944593995
1732873796040897300,0.441897216796875,-0.13202946635484694,0.04483575154840946,0.13030492585087194
1732873796050893600,0.4518935546875,-0.10339666158854961,0.04019128674343228,0.09124086217223666
1732873796060888600,0.461888671875,-0.0417623354524374,0.05850801080912351,0.09510378467808477
1732873796070883600,0.471883544921875,-0.004427168792486191,0.07203750059828162,0.14838540260843
1732873796080878600,0.481878662109375,0.04927753338813781,0.026653759778290986,0.07269515165626071
1732873796090873600,0.49187353515625,0.08674714008271693,-0.0006653320409357547,0.02322289484704379
1732873796100869400,0.501869384765625,0.11342179651856421,-0.013358371005952357,-0.006654843362874817
1732873796110864400,0.511864501953125,0.06830781255066394,-0.0009689911626279353,-0.019760047891933936
1732873796120859400,0.521859375,0.0012625672817230223,-0.027247049496322867,-0.012953267653647344
1732873796130854400,0.5318544921875,-0.02295242104232311,-0.0031458968102931976,-0.012251998932939021
1732873796140849400,0.541849365234375,-0.05162438877522945,0.002362783608585596,-0.00968110954860458
1732873796150845400,0.551845458984375,-0.033310733449459076,-0.03331029505804181,-0.027478963122633284
1732873796160840400,0.56184033203125,0.016850597035884856,-0.042251434143632645,-0.06665329594244249
1732873796170835500,0.57183544921875,0.07821662762463093,-0.02343245964422822,-0.11394575646058655
1732873796180830500,0.58183056640625,0.12083587216734885,-0.03105900899991393,-0.09881932546934112
1732873796190825500,0.591825439453125,0.08518997376859187,-0.07191139000058173,-0.10692014127327129
1732873796200821500,0.601821533203125,0.05891454578340053,-0.07883943569809197,-0.11414493229449726
1732873796210816300,0.611816162109375,0.055951604324579234,-0.06411430638357997,-0.08567107181642204
1732873796220811300,0.621811279296875,0.06039338616430759,-0.055784869455546136,-0.07541844370688777
1732873796230806300,0.63180615234375,0.05538637165725231,-0.04810249825939536,-0.062230022440361785
1732873796240802600,0.641802490234375,0.05554536161124706,-0.04391352213695645,-0.025358171576377934
1732873796250797600,0.651797607421875,0.02982698298692703,-0.06725041245222091,-0.08335088524054736
1732873796260792600,0.66179248046875,-0.0014811784684658049,-0.11091682796031235,-0.15024517773147672
1732873796270787600,0.67178759765625,0.010149053570628166,-0.18818682238459586,-0.2470798139233142
1732873796280782300,0.6817822265625,0.014770868152379988,-0.23209844482541084,-0.3102896822804585
1732873796290778400,0.6917783203125,0.051209378233551976,-0.27525866437703367,-0.3629754166768864
1732873796300773400,0.7017734375,0.07747428482472896,-0.2764009662799537,-0.34400461261663584
1732873796310768400,0.711768310546875,0.02906885809600353,-0.28191549191772936,-0.2929452555793337
1732873796320763400,0.721763427734375,-0.02480593995451927,-0.2673185190275311,-0.1849264323491603
1732873796330759400,0.731759521484375,-0.10056816016435623,-0.2695899710908532,-0.10709543390809557
1732873796340754400,0.74175439453125,-0.11850362982749939,-0.3398500867530703,-0.09843327616066672
1732873796350749400,0.75174951171875,-0.09579904606640338,-0.3365796867802739,-0.11168635102808475
1732873796360744400,0.761744384765625,-0.03144610862135887,-0.3226128284871578,-0.15487632639715448
1732873796370739500,0.771739501953125,0.023277999734878537,-0.29669103624522686,-0.20146966220261528
1732873796380735500,0.781735595703125,0.06508300528526306,-0.274546570584923,-0.23212856596903875
1732873796390730500,0.79173046875,0.01891045217514038,-0.3085119685508311,-0.34161212798953056
1732873796400725200,0.801725341796875,-0.08343933070898056,-0.2902968051634729,-0.5017760211344808
1732873796410720300,0.81172021484375,-0.1138970128148794,-0.18054478319883346,-0.5668132145166397
1732873796420715500,0.821715576171875,-0.18404256218671797,-0.13255553605556486,-0.6451499613896012
1732873796430711600,0.831711669921875,-0.24584990680217741,-0.12362155736312269,-0.7173255552843213
1732873796440706600,0.84170654296875,-0.3147258746296167,-0.12223887083306909,-0.836414291523397
1732873796450701600,0.85170166015625,-0.35517420487403867,-0.10969093942716716,-0.9474434207517654
1732873796460696600,0.861696533203125,-0.3668301558762789,-0.12516323384717107,-0.9898193580579012
1732873796470692400,0.8716923828125,-0.3425532082319259,-0.1749634759351611,-1.0262478582017123
1732873796480687600,0.8816875,-0.2726858912795782,-0.17402590282410382,-1.1125331529263407
1732873796490682600,0.8916826171875,-0.262409996458888,-0.16891528181210158,-1.2636807959228753
1732873796500677600,0.901677734375,-0.25504502064883705,-0.13390358966365457,-1.4266902146920561
1732873796510672600,0.911672607421875,-0.22659867836534975,0.00811199478507042,-1.4066921134106813
1732873796520668400,0.92166845703125,-0.1529968510597944,0.38817689528763294,-1.1093111221399157
1732873796530663400,0.931663330078125,-0.0936240401148796,0.610175970903039,-0.9882052008595317
1732873796540658400,0.941658447265625,-0.01616203024983406,0.5934022384956479,-0.9821490426257252
1732873796550653400,0.9516533203125,0.15467033722996712,0.39950580629259347,-0.7665002858851104
1732873796560649500,0.9616494140625,0.3923813612401485,0.14037234728634357,-0.45691886147186156
1732873796570644700,0.971644775390625,0.76595806876719,-0.1204676233768463,-0.07345049093505367
1732873796580639500,0.981639404296875,1.2770195854455233,-0.536097027605027,0.3488319231752306
1732873796590634500,0.991634521484375,1.5896984644174574,-0.6029945349663496,0.22182437663562596
1732873796600629500,1.00162939453125,1.6873042676448822,-0.6820549199387431,-0.1040572261228226
1732873796610625500,1.01162548828125,1.6676801142424345,-0.8830782814122736,-0.2733053931511007
1732873796620620500,1.02162060546875,1.579596757119894,-0.9272906403653323,-0.26812897689389065
1732873796630615600,1.031615478515625,1.229647008895874,-0.7891619803525507,-0.10986052384041249
1732873796640610600,1.041610595703125,0.4066203144729137,-0.09230974264591932,0.330987456263788
1732873796650606300,1.0516064453125,0.5686246478527784,0.24487945433482528,0.9358367887839675
1732873796660601600,1.0616015625,0.6920154651999473,0.24646862322241067,1.1947061900265514
1732873796670596600,1.0715966796875,0.392141707265377,0.6238739491268992,1.211264526117593
1732873796680591600,1.081591552734375,0.10556932945251464,0.5327500552646816,0.9045299425028264
1732873796690586600,1.091586669921875,-0.4475391848385334,-0.2110840061083436,-0.060968117312341925
1732873796700582400,1.10158251953125,-1.012504141139984,-0.27515710369870067,-0.48310412695556876
1732873796710577400,1.111577392578125,-1.5207120219528674,0.014473784901946783,-0.32906518296431747
1732873796720572400,1.121572509765625,-1.951650785124302,0.10386778623163699,-0.26025300108809024
1732873796730567400,1.1315673828125,-2.2081062570929526,0.053946840373426674,-0.3175921873135492
1732873796740563500,1.1415634765625,-2.1155413706421853,0.06209259129762649,-0.23500943690128623
1732873796750558700,1.151558837890625,-1.6993898422360418,0.17295272063463926,-0.0031509474447462705
1732873796760553500,1.161553466796875,-1.178042493864894,0.2773797481842339,0.1259940495149698
1732873796770548500,1.171548583984375,-0.5172375749647617,0.1729362078912556,-0.057979712618701156
1732873796780543500,1.18154345703125,-0.088138302180171,-0.004174216944724321,-0.35871074496973304
1732873796790539500,1.19153955078125,0.19896715959608555,-0.2291825573787093,-0.7961044929668307
1732873796800534500,1.201534423828125,0.2720481778979301,-0.5390906564630568,-1.301530049584806
1732873796810529500,1.211529541015625,0.2089724207818508,-0.7374823542587459,-1.7834167635746299
1732873796820524500,1.221524658203125,0.09381693233847617,-0.7788949994906783,-2.1435369004182516
1732873796830520300,1.231520263671875,0.008943184912204742,-0.7300551268674432,-2.336497951467335
1732873796840515600,1.241515625,0.05300035330355167,-0.5286851439133287,-2.2680200430467723
1732873796850510600,1.251510498046875,0.31486265275180336,0.22607260866463183,-1.5090918729163705
1732873796860505600,1.261505615234375,0.5670090293496847,0.44032180080562827,-1.1209779598623513
1732873796870500600,1.27150048828125,0.6841039614230394,0.29886341184824705,-1.2278811682671307
1732873796880496400,1.281496337890625,0.8367974456220865,0.5939046350598335,-1.0673100094955414
1732873796890491400,1.291491455078125,0.8780851493000984,0.9685976332657038,-0.9875473945379256
1732873796900486400,1.301486328125,0.692114833921194,1.341068279246986,-1.043769705562666
1732873796910481400,1.3114814453125,0.21221710179150102,1.73889416962862,-1.024585258751735
1732873796920477400,1.3214775390625,-0.4514262554049492,2.032620218588412,-0.9022910044696182
1732873796930472700,1.33147265625,-1.0968319451212882,2.1796507085897026,-0.7485432619772852
1732873796940467700,1.3414677734375,-1.6065934851169585,2.1724710262186826,-0.5985630553249269
1732873796950462500,1.35146240234375,-1.7933230944305658,1.983351014637202,-0.5064810935528948
1732873796960457500,1.36145751953125,-1.5504150862991808,1.792887917883694,-0.4413358732189983
1732873796970453500,1.37145361328125,-0.9084265115499496,1.631792516042292,-0.3494001515172422
1732873796980448500,1.381448486328125,-0.1841553749114275,1.4644136500172316,-0.27182408681847153
1732873796990443500,1.391443603515625,0.3872358150452375,1.3164189911589026,-0.2031031634222716
1732873797000438500,1.4014384765625,0.7477139715462923,1.1699090179003775,-0.18222541149584576
1732873797010434600,1.4114345703125,0.9128595255613327,1.0451889977760613,-0.11232147059384733
1732873797020429600,1.4214296875,0.8073153305500745,0.9834667010955512,-0.11251978791123256
1732873797030424600,1.431424560546875,0.5797638815045356,0.8675871361613273,-0.15777148158308119
1732873797040419600,1.441419677734375,0.3327548677951097,0.745581051170826,-0.15186554547492415
1732873797050414600,1.45141455078125,0.137312959715724,0.7194156594313681,-0.14646582358954474
1732873797060410600,1.46141064453125,0.08842004173099995,0.7133093053802847,-0.15410214542057366
1732873797070405400,1.4714052734375,0.13574585652947424,0.7387246094048022,-0.16222113620201126
1732873797080400400,1.481400390625,0.24364918188750742,0.7726786091938614,-0.2022842482548207
1732873797090395400,1.4913955078125,0.26374153732359407,0.8834387852877378,-0.26130735071292144
1732873797100391700,1.5013916015625,0.2471305942624807,1.0396142663836478,-0.29698344332054255
1732873797110386700,1.51138671875,0.15314531961977482,1.1093168942935765,-0.3868042917601764
1732873797120381700,1.521381591796875,0.0023889409631490705,1.2508913108460604,-0.5273945195809007
1732873797130376700,1.531376708984375,-0.1340232705205679,1.340159639969468,-0.7497696619670837
1732873797140371500,1.541371337890625,-0.2876093196451664,1.4122532546691595,-0.8865067945562303
1732873797150367500,1.551367431640625,-0.452390716522932,1.4677673443593084,-0.9122752228673547
1732873797160362500,1.561362548828125,-0.611695727816224,1.4736132939085362,-0.8799536465857177
1732873797170357500,1.571357421875,-0.6841185744702816,1.4019604087136686,-0.6801686678007245
1732873797180352500,1.5813525390625,-0.57154959538877,1.3002910093091427,-0.5299298832774162
1732873797190348500,1.5913486328125,-0.28726620529592034,1.1837395364627241,-0.3195882199689746
1732873797200343600,1.601343505859375,0.0003653261810541153,1.016690633044392,-0.06444870770340785
1732873797210338600,1.611338623046875,0.2162403659582138,0.8604675134144723,0.12528001036094502
1732873797220333600,1.62133349609375,0.31537060227394104,0.6961511036999524,0.3453516798440367
1732873797230328600,1.63132861328125,0.35122049881219863,0.4783711070843041,0.5336433143099769
1732873797240324600,1.64132470703125,0.2913543513923883,0.3120328361533582,0.6435806662462651
1732873797250319400,1.6513193359375,0.20733049879372117,0.1714712499052286,0.7022930405210703
1732873797260314400,1.661314453125,0.1719686780333519,0.10845672145709395,0.6693099315907806
1732873797270309400,1.671309326171875,0.05575462044775486,0.1335042150825262,0.5519967536568642
1732873797280305700,1.6813056640625,-0.10084405449628829,0.1680517968505621,0.3181133251108229
1732873797290300700,1.69130078125,-0.41337504943013187,0.23889073531404137,0.22308497115597128
1732873797300295700,1.701295654296875,-0.7446212662279605,0.2980921352148056,0.20725520506780593
1732873797310290700,1.711290771484375,-1.0631991401106118,0.2749900765687227,0.24038404261171817
1732873797320285400,1.721285400390625,-1.252174482524395,0.17409852966889738,0.26240813329536467
1732873797330281500,1.731281494140625,-1.217598843705654,0.07975538149923085,0.27386965770404786
1732873797340276500,1.7412763671875,-1.0072060347318648,0.029559125830978153,0.33494287935867906
1732873797350271500,1.751271484375,-0.7020446917831897,0.004484159676730632,0.414535398446396
1732873797360266500,1.7612666015625,-0.34388124196529385,-0.03567000992670655,0.5740416314002126
1732873797370262500,1.771262451171875,-0.07748655978441238,-0.05508285866603255,0.7976055451795458
1732873797380257500,1.781257568359375,0.04503098185956478,-0.04349164346307516,0.9314342429760843
1732873797390252500,1.79125244140625,0.08376315583586692,-0.06565057604014873,1.0502293300308287
1732873797400247600,1.80124755859375,0.06773088944554329,-0.0724094026505947,1.193979629317671
1732873797410243600,1.81124365234375,0.0015180033475160597,-0.08405424773693085,1.3042027759253978
1732873797420238600,1.821238525390625,-0.09487257887125014,-0.09247633138448,1.3837214260593056
1732873797430233600,1.831233642578125,-0.1837503012418747,-0.06680442225039004,1.4440120825015008
1732873797440228400,1.841228271484375,-0.2651648481249809,-0.0552107958946377,1.5277645708128809
1732873797450223400,1.851223388671875,-0.29863983222544194,-0.08148425111845135,1.6143556435510515
1732873797460219600,1.8612197265625,-0.3087187431693077,-0.1329161129962653,1.640542078078538
1732873797470214700,1.871214599609375,-0.26165537869930267,-0.22468466143757104,1.6328879100635647
1732873797480210000,1.8812099609375,-0.07676233716309071,-0.3576972936108708,1.6246543347254394
1732873797490205000,1.891204833984375,0.17348317424952983,-0.4774120527938008,1.5836885564781724
1732873797500200700,1.90120068359375,0.4613105205595493,-0.5755239058472216,1.5881179172277449
1732873797510195700,1.91119580078125,0.703625823494792,-0.5982647299654782,1.5435735498413443
1732873797520190700,1.921190673828125,0.8380985913485288,-0.6090561000276357,1.446575064857304
1732873797530185700,1.931185791015625,0.8535176942765712,-0.5920404486231505,1.393701406673342
1732873797540180700,1.9411806640625,0.7985738056898116,-0.5628999865956604,1.3817711687743663
1732873797550176500,1.951176513671875,0.7177578092217445,-0.5402702947016805,1.3286708622276782
1732873797560171500,1.961171630859375,0.5736936216801405,-0.5673878725994378,1.241377778699994
1732873797570166800,1.971166748046875,0.4548234966278076,-0.6291016937125474,1.1412275516867636
1732873797580161800,1.981161865234375,0.4011912751615047,-0.6899925810702144,1.0232108285933732
1732873797590157800,1.99115771484375,0.4505477190047502,-0.8444824471667408,0.9619652095139026
1732873797600152800,2.00115283203125,0.6035018999665975,-0.9768947753593326,0.8632282833646983
1732873797610147800,2.01114794921875,0.7513713250100612,-1.1349345159571618,0.7436817203555256
1732873797620142600,2.021142578125,0.8701572789102793,-1.2798010328575968,0.5638630229415371
1732873797630138600,2.031138671875,0.9474158751577139,-1.4037719881802797,0.40526301811244336
1732873797640133600,2.041133544921875,0.906726721894741,-1.5718386903390287,0.3304079758754
1732873797650128600,2.051128662109375,0.8050900557160378,-1.6459043357640504,0.33511301176119596
1732873797660124000,2.0611240234375,0.6723883891880512,-1.7165043509051203,0.39776075272355227
1732873797670119000,2.071118896484375,0.4956973588079214,-1.7939502864181995,0.36650340813994403
1732873797680114700,2.08111474609375,0.3515677048146725,-1.895187431885302,0.29370047612711786
1732873797690109700,2.091109619140625,0.27424831829071045,-2.0302838845953346,0.28053952738940713
1732873797700104700,2.101104736328125,0.2625596340626478,-2.196932828910649,0.3254167434593662
1732873797710099700,2.111099609375,0.2737275092869997,-2.3870403902247546,0.2800850250875577
1732873797720095700,2.121095703125,0.32373978669047354,-2.431951983488351,0.3011105331879109
1732873797730090500,2.131090576171875,0.3121533937931061,-2.396217676153779,0.23360826486647127
1732873797740085500,2.14108544921875,0.254543500867486,-2.3070722427576777,-0.030833821941912174
1732873797750080800,2.151080810546875,0.1765817247867584,-2.187900212149322,-0.2956443402038887
1732873797760076800,2.161076904296875,-0.04989420398175716,-2.0068778745666145,-0.5091901698485016
1732873797770071800,2.17107177734375,-0.4403524882048368,-1.8748126062460242,-0.837670648260042
1732873797780066800,2.18106689453125,-0.8435252925723791,-1.7838582237318157,-1.1217536204099654
1732873797790061800,2.191061767578125,-1.1555319713711738,-1.7599762667544185,-1.3243943539522587
1732873797800056600,2.201056640625,-1.376535021686554,-1.745927137005329,-1.4337002395845948
1732873797810052600,2.211052490234375,-1.5405524484544992,-1.7485937258660793,-1.4360869885906575
1732873797820047600,2.221047607421875,-1.5746639768928288,-1.7777148986712097,-1.470567204210907
1732873797830042600,2.231042724609375,-1.4457687169104814,-1.7850491870820522,-1.5449176579266786
1732873797840038000,2.241037841796875,-1.1567840172588824,-1.7035072144269943,-1.5771889653258024
1732873797850033700,2.25103369140625,-0.8943892183691262,-1.5727787476681172,-1.5444311895839868
1732873797860028700,2.261028564453125,-0.9103753075301647,-1.3673836008511482,-1.3053662667468189
1732873797870023700,2.271023681640625,-1.223272213166952,-1.1345680937975644,-1.0209038668252528
1732873797880018700,2.281018798828125,-1.540601548293233,-0.9807136029951273,-0.8346131603855639
1732873797890014700,2.2910146484375,-1.6785101358145473,-0.8193537780638783,-0.7420096954900771
1732873797900009700,2.301009765625,-1.5600059214651583,-0.5805141153499483,-0.6096477823104709
1732873797910004700,2.311004638671875,-1.2255080093950033,-0.4000863826595247,-0.34529271619841456
1732873797919999500,2.32099951171875,-0.9147323336958885,-0.6223251122497022,-0.2109432641970925
1732873797929994800,2.330994873046875,-0.5533382313936949,-1.0118651125840843,-0.14411005424363538
1732873797939990800,2.34099072265625,-0.29322657500505445,-1.2384279889836907,-0.13292528268340975
1732873797949985800,2.35098583984375,-0.027439211067557333,-1.3096569496780632,-0.12028306059017776
1732873797959980800,2.360980712890625,0.15689619658589363,-1.343166128309071,0.1533180458381772
1732873797969975800,2.370975830078125,0.220296363350749,-1.276072659984231,0.31719032851438966
1732873797979971600,2.3809716796875,0.14187047688961027,-1.465377965004742,0.1768119168134406
1732873797989966600,2.390966552734375,-0.026003040784597396,-1.624622624412924,0.04468764831461012
1732873797999961600,2.400961669921875,-0.1535375338077545,-1.8035528120219706,-0.15512487606443465
1732873798009956600,2.41095654296875,-0.31659926728606225,-1.8758438489899039,-0.35168775099776683
1732873798019953000,2.420952880859375,-0.5522340695440768,-1.6376549783349037,-0.38896884938292203
1732873798029947600,2.43094775390625,-0.8197504492312669,-1.0811939387455582,-0.21289748527109623
1732873798039942700,2.440942626953125,-1.1096353125929832,0.11489552233293653,0.5906818005558103
1732873798049937700,2.450937744140625,-1.5079273591816424,0.7410752641841769,0.8156234324291348
1732873798059932700,2.4609326171875,-2.0297855796843765,0.9212655348569154,0.42822453577667474
1732873798069928700,2.4709287109375,-2.488618896475434,1.1199068234995007,0.3662063248895108
1732873798079923700,2.480923828125,-2.840603949919343,1.0889318395212293,0.3121386711480096
1732873798089918700,2.490918701171875,-2.9587399154782292,0.9532017650827765,0.24514983224142342
1732873798099913500,2.50091357421875,-2.6340759996801615,0.8481167120158671,0.27945673712138086
1732873798109909800,2.51090966796875,-1.837458004233241,0.8328672665663063,0.399020799254626
1732873798119904800,2.52090478515625,-0.6966629987448454,0.7896249216891825,0.597460647040978
1732873798129899800,2.530899658203125,0.36017303607463835,0.8505585522100328,0.8241950075499713
1732873798139894800,2.540894775390625,1.2837164527356624,0.9345112392686307,1.0127622075542806
1732873798149890600,2.550890625,1.9003268406003713,1.010596553952992,1.1069690159931778
1732873798159885600,2.560885498046875,2.295471821334958,1.183446690995991,1.25655211308673
1732873798169880600,2.570880615234375,2.5233313134163615,1.2035025138139723,1.5178068020306528
1732873798179875600,2.58087548828125,2.4727877056151626,1.270404843480885,1.6416915403746069
1732873798189870800,2.590870849609375,2.281189613482356,1.2743497817143796,1.606680286617577
1732873798199867000,2.600866943359375,2.1168816793352363,1.1904437102764844,1.472919320295006
1732873798209861600,2.610861572265625,2.1239514715909955,1.086632622668147,1.331368869139999
1732873798219856600,2.620856689453125,2.2036434324651957,0.8926911822795868,1.12818679526262
1732873798229851600,2.6308515625,2.3011510360151526,0.716520376381278,0.8314787348173558
1732873798239847700,2.64084765625,2.483119130015373,0.6671899437621236,0.6410963020846248
1732873798249842700,2.6508427734375,2.6165368358582257,0.536922226382792,0.5864466106714681
1732873798259837700,2.660837646484375,2.6485680508911607,0.43061815291494127,0.4441505653135478
1732873798269832700,2.670832763671875,2.5835043348282576,0.3409071945905685,0.09577805807730183
1732873798279828700,2.680828857421875,2.419702012115717,0.2324547109171748,-0.16816424424909054
1732873798289823700,2.69082373046875,2.263880751284957,0.04902414314895868,-0.29612366641974075
1732873798299818800,2.70081884765625,2.1380787811428306,-0.046886546598374844,-0.5058641672309487
1732873798309813800,2.710813720703125,2.130112916830182,-0.16397037275582552,-0.7118468316122889
1732873798319808800,2.720808837890625,2.077157571712136,-0.29924627368599177,-0.7817211628273129
1732873798329804500,2.730804443359375,1.9039725036263464,-0.4592071185395121,-0.7974515236616134
1732873798339799600,2.740799560546875,1.5989625518471002,-0.5622561357341707,-0.7620123268160969
1732873798349794600,2.750794677734375,1.2664105131477117,-0.6556304388716816,-0.6935451589852571
1732873798359789600,2.76078955078125,0.9729612353026866,-0.7822640375323593,-0.6699203185740857
1732873798369785900,2.770785888671875,0.7743570638000965,-0.9573622457630931,-0.623730741263926
1732873798379780900,2.78078076171875,0.6556833381026983,-1.0655753677226603,-0.41389786772783843
1732873798389776000,2.79077587890625,0.5442547612279653,-1.1477084381386637,-0.11245507037825882
1732873798399770600,2.8007705078125,0.4040244527608156,-1.1892210366137326,0.18308706982648
1732873798409766700,2.8107666015625,0.2181406466215849,-1.2443186544574796,0.42109293033108114
1732873798419761700,2.82076171875,0.013240005323290824,-1.2723982092551887,0.5990006430245935
1732873798429756700,2.830756591796875,-0.23055589155852793,-1.2744624483086169,0.7811489889625459
1732873798439751700,2.840751708984375,-0.5821528224676847,-1.322404787570238,0.8670300137352198
1732873798449747700,2.850747802734375,-1.0032505751043557,-1.228443332194537,0.866773627821356
1732873798459743000,2.860742919921875,-1.4767425318449734,-1.0161737695634365,0.856089882852137
1732873798469738000,2.870738037109375,-1.8894874666780233,-0.8220954049222171,0.8837181136857718
1732873798479733000,2.88073291015625,-2.217946683105826,-0.7142211595281959,1.0033581271320582
1732873798489728000,2.89072802734375,-2.413506080085039,-0.7254460256367922,1.1263535884860902
1732873798499724000,2.90072412109375,-2.3564859697461125,-0.8004347772561013,1.123776358409226
1732873798509719000,2.910718994140625,-2.147985258129239,-0.8396697861880064,0.9467711475133895
1732873798519714000,2.920714111328125,-1.946441526043415,-0.912642375679314,0.756280432100594
1732873798529709000,2.930708984375,-1.8250141177237034,-1.0968607328243554,0.6410632765978574
1732873798539705000,2.940705078125,-1.715044507485628,-1.3952319772414863,0.5946102991111576
1732873798549700000,2.9507001953125,-1.5006839639246463,-1.6770844869256019,0.6350184434756636
1732873798559695000,2.960695068359375,-1.179277004095912,-1.7232997101336716,0.7094289568156004
1732873798569690000,2.970690185546875,-0.8483435065090655,-1.49017236065194,0.7142375992063432
1732873798579686100,2.98068603515625,-0.6746908209115267,-1.2176210555374622,0.545522735337168
1732873798589681200,2.99068115234375,-0.7841647565871477,-1.0864255557887255,0.1498129603266716
1732873798599676200,3.00067626953125,-1.0926222184717655,-1.0782796587340533,-0.3056898968674242
1732873798609671200,3.010671142578125,-1.4729378788650036,-0.8311537406466901,-0.6568658989507704
1732873798619666200,3.020666259765625,-1.9291075294047593,-0.21903569576516746,-0.9794969206817448
1732873798629662000,3.030661865234375,-2.4489964956611394,0.645364773184061,-1.3360802617013454
1732873798639657000,3.040656982421875,-2.9838252568960186,1.5123824388943612,-1.6271895522914825
1732873798649652000,3.05065185546875,-3.510250931444764,2.1209379689887164,-1.7026082197606562
1732873798659647000,3.06064697265625,-3.8166421084493396,2.2634020278573033,-1.70475546092242
1732873798669643300,3.070643310546875,-3.700854167321324,2.0607564720094205,-1.5608334583304821
1732873798679638300,3.08063818359375,-3.0628759972572324,1.7721268694058059,-1.4652283274009823
1732873798689633000,3.090633056640625,-1.8487287553101777,1.4970157968059181,-1.527570509545505
1732873798699628000,3.1006279296875,-0.19510639251470566,1.2027192544817924,-1.5694719612076877
1732873798709624000,3.1106240234375,1.4880740731984377,0.9176263015717268,-1.4395117023423314
1732873798719619000,3.120619140625,2.8104326835393905,0.6747115714386105,-1.5351599417611956
1732873798729614000,3.130614013671875,3.6758500744462013,0.5355915623009204,-1.8214416660644113
1732873798739609000,3.140609130859375,4.121417082428932,0.5157214713133871,-1.780610912373662
1732873798749604000,3.15060400390625,3.999346115508675,0.6403165498837828,-1.4901479568630456
1732873798759600000,3.16060009765625,3.5975656422823667,0.9259913943350314,-1.3336673553407192
1732873798769595100,3.17059521484375,2.9263129791259765,1.0549817852549255,-1.0627586298014968
1732873798779590100,3.180590087890625,2.1914240023612974,1.1426673752315342,-0.6539929007977247
1732873798789585200,3.190585205078125,1.4247943179428577,1.2380725996747612,-0.2365275133140385
1732873798799581000,3.200580810546875,0.7617126862823963,1.2417588869720697,0.12316326480214483
1732873798809576000,3.210575927734375,0.26366730304360386,1.2658569709181784,0.3326114407364279
1732873798819571000,3.220571044921875,-0.17298633064329624,1.3088264902032911,0.4843055021019652
1732873798829566000,3.23056591796875,-0.49994507938027377,1.173821661299467,0.6365354239098727
1732873798839561000,3.24056103515625,-0.5887853923499584,0.9849790053546428,0.7454536984641105
1732873798849557200,3.25055712890625,-0.3785965815156698,0.7513194486923516,0.7230168987937271
1732873798859552300,3.26055224609375,0.10958148770332336,0.43202217449396846,0.5752421297637745
1732873798869547000,3.270547119140625,0.5860702881723642,0.09134177439659834,0.41434911862667645
1732873798879542000,3.2805419921875,1.000185926836729,-0.1848049248613417,0.2531470415404066
1732873798889538000,3.2905380859375,1.3859744656831026,-0.45961394577473397,0.12467527680029161
1732873798899533000,3.300532958984375,1.6764660627663135,-0.6833388222694396,0.04518272922202013
1732873798909528000,3.310528076171875,1.8579478345543146,-0.7852988751836121,-0.09696827250886708
1732873798919523000,3.320523193359375,1.8906296224504708,-0.795505358029902,-0.3147623341824859
1732873798929519000,3.33051904296875,1.7620067496687173,-0.8119494200915097,-0.46166053957361725
1732873798939514000,3.34051416015625,1.4194815984874962,-0.7619793743945658,-0.4875692896708846
1732873798949509000,3.350509033203125,0.8997989684581756,-0.6553283871851862,-0.588768952671811
1732873798959504100,3.360504150390625,0.3234960410624742,-0.5681994081780314,-0.5929791907779872
1732873798969500200,3.370500244140625,-0.14352467383742332,-0.532335336983949,-0.5177834818771109
1732873798979495200,3.3804951171875,-0.5333125114530325,-0.5344011834725737,-0.5745502385094762
1732873798989490000,3.390489990234375,-0.7292921796709299,-0.5407628274589776,-0.6425821567282081
1732873798999485000,3.40048486328125,-0.7050836210876703,-0.5465523706458508,-0.749133775216341
1732873799009480000,3.41047998046875,-0.5558534290850162,-0.5861817857228219,-0.8454435472838581
1732873799019476200,3.420476318359375,-0.3187012080013752,-0.6509921115465462,-0.8678229176785797
1732873799029471200,3.43047119140625,-0.06578326250910758,-0.7539730319410562,-0.8152434932008386
1732873799039466200,3.44046630859375,0.11153379081487655,-0.8977226005755364,-0.7907080407507717
1732873799049461200,3.450461181640625,0.28496143548488617,-1.0241815733216701,-0.8222317446529864
1732873799059457000,3.46045703125,0.4137351149141788,-1.1056501884795724,-0.8204888465084135
1732873799069452000,3.4704521484375,0.3657821081280708,-1.1115310632117092,-0.8633611890293658
1732873799079447000,3.480447021484375,0.08361936345100403,-1.0208063978001474,-0.9304833719920367
1732873799089442000,3.490442138671875,-0.3758563428968191,-0.7737282643772662,-1.0331754655078054
1732873799099438000,3.50043798828125,-0.9215355839699506,-0.4400574507810175,-1.2102676970999686
1732873799109433000,3.51043310546875,-1.5672984165608883,-0.2582451318643987,-1.2415782697081565
1732873799119428000,3.520427978515625,-2.1902093658745287,-0.30273660001978275,-1.0192155484121292
1732873799129423000,3.530423095703125,-2.6568852128595113,-0.3486239064477384,-0.6380851375699043
1732873799139418000,3.540418212890625,-2.991635053864121,-0.42933235088810323,-0.1711964515518397
1732873799149414100,3.5504140625,-3.102621732190251,-0.6264588510535657,0.35154713695067913
1732873799159409200,3.5604091796875,-3.043921705940366,-0.7855243545025586,0.7824382250554859
1732873799169404000,3.57040380859375,-2.8253046739786862,-0.611486030588299,1.077149704856053
1732873799179399000,3.58039892578125,-2.59017665219903,-0.025227672497928143,1.342176678880304
1732873799189395200,3.590395263671875,-2.5685604481965303,0.7141836039967835,1.5150368989259004
1732873799199390200,3.60039013671875,-2.8755975218892096,1.3676073266044257,1.56850720782876
1732873799209385200,3.61038525390625,-3.372208488410711,1.8630130089893937,1.5466785301193593
1732873799219380200,3.620380126953125,-3.629493396940827,2.006566178268939,1.5089372668765484
1732873799229375200,3.630375244140625,-3.3175849178194996,1.825790362793207,1.6600592639751732
1732873799239371000,3.64037109375,-2.4058283850640056,1.643616809348762,1.7708831529550253
1732873799249366000,3.650365966796875,-1.094092875546217,1.4210367189750075,1.7795662256263196
1732873799259361000,3.660361083984375,0.4659019400030374,1.1389312574431298,1.6988396610073744
1732873799269356000,3.67035595703125,2.014977886652946,0.949779535549134,1.4505069974787532
1732873799279352000,3.68035205078125,3.2467432028770444,0.9220523013204336,1.1699606019571422
1732873799289347000,3.69034716796875,3.9805052214384076,0.9623064241670072,0.9303644217874855
1732873799299342000,3.700342041015625,4.170571281698346,1.0037572094522416,0.705353158744052
1732873799309337000,3.710337158203125,3.83838807631135,1.0706561781182884,0.5641459680687636
1732873799319333000,3.7203330078125,3.00357391346097,1.1804638757929204,0.49942164002805944
1732873799329328000,3.730328125,2.114741160175204,1.2535419714853167,0.3323551644204184
1732873799339323100,3.7403232421875,1.4615665900230408,1.2501431228272617,0.21369086413849145
1732873799349318100,3.750318115234375,1.0511983211934566,1.2306976869925856,0.042585451870970424
1732873799359313000,3.76031298828125,0.8734300169706344,1.1638926802203058,-0.24008283117543905
1732873799369309200,3.77030908203125,0.94548344579041,1.0378668381944298,-0.4267013813300058
1732873799379304200,3.78030419921875,1.244039106863737,0.8958591447912156,-0.5252715726101771
1732873799389299200,3.79029931640625,1.6128525455117224,0.7311943600304425,-0.538176135434024
1732873799399294200,3.800294189453125,1.9860686030328272,0.4600860933311283,-0.5281048232747242
1732873799409290000,3.8102900390625,2.2857348556965587,0.17062281638234852,-0.4534312750844285
1732873799419285000,3.820284912109375,2.4818255830734968,-0.053801440553367136,-0.3981871614420786
1732873799429280000,3.830280029296875,2.5438953780174254,-0.2905933038920164,-0.4130254322748631
1732873799439275000,3.84027490234375,2.514212771937251,-0.47477279033139347,-0.3391828915486112
1732873799449271300,3.850271240234375,2.3721704456120727,-0.612163199197501,-0.23767759666461497
1732873799459265300,3.860265380859375,2.0915847409933805,-0.745621967703104,-0.096454970958177
1732873799469260500,3.870260498046875,1.7186323028445243,-0.8488625619471073,-0.009412409859150648
1732873799479255600,3.880255615234375,1.238716450536251,-0.8404131519012152,0.02318491462394595
1732873799489250300,3.890250244140625,0.7051566863238811,-0.7828948827818035,0.09944481869023293
1732873799499246300,3.900246337890625,0.24019816465079782,-0.7024449431471527,0.205883149529621
1732873799509241300,3.910241455078125,-0.2065764655560255,-0.5618776578105986,0.2629974044254049
1732873799519236400,3.920236328125,-0.7128010635972023,-0.4392379510916769,0.2954289073549211
1732873799529231400,3.9302314453125,-1.1819693119198083,-0.37432416489347814,0.37196532680764793
1732873799539227100,3.94022705078125,-1.4796680639028548,-0.3486380811035633,0.4842265551142394
1732873799549222100,3.95022216796875,-1.5871072788804768,-0.37646030013933773,0.6070302932884544
1732873799559217400,3.960217529296875,-1.4973586188942194,-0.49096536184996364,0.7038855704095214
1732873799569212400,3.97021240234375,-1.1905927633583544,-0.5989857377164065,0.76126275055781
1732873799579207400,3.98020751953125,-0.8224538629710674,-0.6500260429933666,0.7089934880077838
1732873799589203500,3.990203369140625,-0.6025707565963268,-0.6112992758445441,0.5990547478320076
1732873799599198500,4.000198486328125,-0.5770464392393827,-0.5191681046359241,0.5425375089813024
1732873799609193200,4.010193115234375,-0.7340332367181778,-0.4367345899686217,0.5869280375128612
1732873799619188200,4.020188232421875,-1.1374480331480503,-0.45202626712471244,0.6897027312781662
1732873799629184300,4.030184326171875,-1.6443044993519782,-0.4914679045446217,0.8026745920721441
1732873799639179300,4.04017919921875,-2.0716104589790105,-0.3309595088109374,0.8178124669060111
1732873799649174500,4.050174560546875,-2.38252641993165,-0.00946238648071885,0.6487666175168008
1732873799659169500,4.06016943359375,-2.6173539974600075,0.11594152425453066,0.31385917479768394
1732873799669165300,4.070165283203125,-2.9525457370132204,-0.14777166375741363,-0.05014408708959817
1732873799679160300,4.080160400390625,-3.1598861726790664,-0.5873959838181734,-0.34431382469628
1732873799689155300,4.0901552734375,-3.059963324680924,-0.8346114798851311,-0.5543814203036949
1732873799699150300,4.100150390625,-2.6528701319992543,-0.6193965114519,-0.8030882143743335
1732873799709145300,4.110145263671875,-2.2090905919551846,-0.04887099841386079,-1.1401074616156517
1732873799719141000,4.12014111328125,-1.921554922068119,0.8371984276384115,-1.1924258240044117
1732873799729136000,4.13013623046875,-2.0702929466396567,1.7818524368673563,-1.2195688286043702
1732873799739131400,4.14013134765625,-2.7232033128976822,2.420486732752621,-1.2787345726698636
1732873799749126400,4.15012646484375,-3.6114883691728115,2.4731802120640873,-1.166043939970061
1732873799759122400,4.160122314453125,-4.090644927546382,2.0998858286097644,-1.0786837825555353
1732873799769117400,4.170117431640625,-3.681547993826866,1.7899517183013258,-1.2027956807188689
1732873799779112400,4.180112548828125,-2.50020762746036,1.4954239975698291,-1.5393933415472507
1732873799789107200,4.190107177734375,-0.9220949714183807,1.1544612733997404,-1.9602397497713564
1732873799799103200,4.200103271484375,0.6624807431578635,0.9901213366791606,-2.262997684840113
1732873799809098200,4.21009814453125,1.938696026483178,0.9418404131129383,-2.4437023347757756
1732873799819093200,4.22009326171875,2.8403210413247346,0.9867585822477937,-2.499431090129912
1732873799829088500,4.230088623046875,3.3976310989588496,1.232877369119227,-2.3218998095333574
1732873799839083500,4.24008349609375,3.4820454121798274,1.4589339034318922,-2.00750155942291
1732873799849079300,4.250079345703125,3.1627707882046696,1.5392095094129443,-1.7953502163439987
1732873799859074300,4.26007421875,2.5157167467594146,1.475706466795504,-1.5929118735060095
1732873799869069300,4.2700693359375,1.772525805595517,1.2836406110204754,-1.312424953086674
1732873799879064300,4.280064208984375,1.305240886801481,1.2557431347914039,-0.8287653111401945
1732873799889060400,4.290060302734375,1.1538707601606846,1.3432755800329148,-0.26837445782124997
1732873799899055400,4.300055419921875,1.0351631321936845,1.1719916693933308,0.010704422431066632
1732873799909050000,4.310050048828125,1.0136416207373142,0.9359767817765474,0.16903028649389742
1732873799919045400,4.32004541015625,1.2182394796967506,0.6389359091803432,0.3855814719669521
1732873799929040400,4.330040283203125,1.6057845068216323,0.26949396337047216,0.5219778282944113
1732873799939036400,4.340036376953125,1.9991098709136246,0.08670227802768349,0.6665878131505102
1732873799949031400,4.350031494140625,2.246992160326242,-0.015710487090051174,0.7707238218642771
1732873799959026400,4.3600263671875,2.3970500353246926,-0.11993263971731066,0.8321186401560902
1732873799969021400,4.370021484375,2.456117725843191,-0.1797226531609893,0.9209755389343947
1732873799979017200,4.380017333984375,2.341612225741148,-0.15283172362595795,0.9691138391595333
1732873799989012200,4.39001220703125,2.0561679751753807,-0.10024769603833555,0.8384034195140003
1732873799999007200,4.40000732421875,1.7176853773832321,-0.004926496616750956,0.6361947207134216
1732873800009002500,4.41000244140625,1.3683458700120448,0.02859218049496412,0.4746799974814057
1732873800018998300,4.419998291015625,1.0400818838953971,0.04474325095936656,0.3197801623445004
1732873800028993300,4.4299931640625,0.7509370252460241,0.16116101442351935,0.1013017351359129
1732873800038988300,4.43998828125,0.45808571329414843,0.2001253897204995,-0.1151418252442032
1732873800048983300,4.4499833984375,0.15120996764302252,0.17102584422528744,-0.2816195046458393
1732873800058978300,4.459978271484375,-0.08184650855958461,0.07173617956414818,-0.4187948825217783
1732873800068974300,4.469974365234375,-0.19745850859880446,-0.044266134966909884,-0.5626246037203818
1732873800078969300,4.47996923828125,-0.2534223878830671,-0.12649316727668047,-0.6208380885623395
1732873800088964000,4.489964111328125,-0.38097617012858387,-0.2301911498993635,-0.6680507253099233
1732873800098959400,4.49995947265625,-0.4741729247421026,-0.46768794663697477,-0.7334772102706134
1732873800108955400,4.509955322265625,-0.43884033007621764,-0.5873012912720441,-0.7760435555823146
1732873800118950400,4.519950439453125,-0.33000001612901686,-0.6485701450966298,-0.8023463830310851
1732873800128945400,4.5299453125,-0.2509013449728489,-0.7205316578492522,-0.8235073906119912
1732873800138940400,4.5399404296875,-0.19758593437075614,-0.8463457568205892,-0.8683736103639006
1732873800148935400,4.549935302734375,-0.19098902032375334,-0.8800235700167715,-0.8680980082929134
1732873800158931200,4.55993115234375,-0.253801158067584,-0.8199129463165998,-0.8647634570427238
1732873800168926200,4.56992626953125,-0.38472821613848207,-0.7540823375344275,-0.9815691969111561
1732873800178921200,4.579921142578125,-0.6146218443959951,-0.629575667899847,-0.989577731321752
1732873800188916500,4.58991650390625,-0.8478156832426786,-0.5232303856387734,-0.9649334847349673
1732873800198912300,4.599912353515625,-0.9975859734714031,-0.4032449928209185,-0.9066264033254235
1732873800208907300,4.6099072265625,-1.0324193864434956,-0.29802520745843647,-0.8362544247865676
1732873800218902300,4.61990234375,-0.9794237093150615,-0.2815162634670734,-0.7820339551035315
1732873800228897300,4.629897216796875,-0.9103846598803996,-0.3038791941836476,-0.6829475579295307
1732873800238893300,4.639893310546875,-0.7727215715527535,-0.4629017352737486,-0.570061767983809
1732873800248888300,4.649888427734375,-0.7286088735818862,-0.6132837276600301,-0.46650436287559566
1732873800258883300,4.65988330078125,-0.78882281152606,-0.801800512651354,-0.3196361507639289
1732873800268878300,4.66987841796875,-0.9153484197676182,-0.9299820714063942,-0.05832666289284825
1732873800278873300,4.679873291015625,-1.1370423749566076,-0.9840884862557053,0.15118446787558495
1732873800288869400,4.689869384765625,-1.2942203110933304,-1.1511106477975845,0.32160861988067624
1732873800298864400,4.699864501953125,-1.2802356248825788,-1.3310253163993357,0.6625473786532878
1732873800308859400,4.709859375,-1.1118541576862335,-1.311980278059095,1.0365258719142525
1732873800318854400,4.7198544921875,-1.0314093326181173,-0.9903016616821289,1.3053127829939126
1732873800328850200,4.72985009765625,-1.0052017091721295,-0.4548667512476444,1.2884963804885745
1732873800338845200,4.73984521484375,-1.3000836501687765,0.30963337379619477,1.1754838954232631
1732873800348840200,4.749840087890625,-2.0129256302982568,1.2637955083437262,0.682320000615716
1732873800358835500,4.75983544921875,-2.921114241439104,2.2651072243399915,0.09632087798342108
1732873800368831500,4.76983154296875,-3.9328228482872247,3.0831191593408582,-0.29664368997216223
1732873800378826500,4.779826416015625,-4.782570960897207,3.5332939533799883,-0.13001549618393182
1732873800388821200,4.7898212890625,-5.187650475668907,3.5861838320463892,0.13691153930798172
1732873800398816300,4.799816162109375,-5.198011710685491,3.2905390899837017,0.4307565384723246
1732873800408811300,4.809811279296875,-4.437134890705347,3.0502883183628318,0.9646581749249249
1732873800418807300,4.819807373046875,-2.6184908925354478,2.8100761251866815,1.1110542394801974
1732873800428802300,4.82980224609375,-0.7124222934126854,2.2159750907719133,1.1084209683671593
1732873800438797300,4.83979736328125,0.9469389052957295,1.7319326600529252,1.0502279417913407
1732873800448792600,4.84979248046875,2.5294267076820134,1.3551590561807154,1.0594336500972508
1732873800458788400,4.859788330078125,3.804914845776558,1.1105991891890763,0.9544435818374156
1732873800468783600,4.86978369140625,4.638059029588103,1.0266440179124474,0.6788900261670351
1732873800478778600,4.879778564453125,5.03622481944859,1.1774161786600947,0.3714790045954287
1732873800488773600,4.889773681640625,4.959468912026286,1.5361369700998067,0.15890724414736032
1732873800498768600,4.8997685546875,4.24603948739767,1.8132564599126577,0.07685257272981107
1732873800508764400,4.909764404296875,3.08701441321373,2.0068179610729215,-0.1275884151674807
1732873800518759400,4.919759521484375,1.7729700422316788,2.164178852561116,-0.40579496956467626
1732873800528754400,4.92975439453125,0.5198632472932339,2.056150731779635,-0.5006017166581005
1732873800538749700,4.939749755859375,-0.48826107132732866,1.7557396520979702,-0.3559480387907475
1732873800548745700,4.949745849609375,-1.0946528475165367,1.4034442175306379,-0.23757621864937245
1732873800558740700,4.95974072265625,-1.2150427294820547,1.1055762464605272,-0.30007052261568606
1732873800568735500,4.969735595703125,-0.9281079480975866,0.839197638631612,-0.5511126642987132
1732873800578730500,4.97973046875,-0.3314613208532333,0.5839084339633583,-0.7958284525044262
1732873800588726500,4.9897265625,0.303759074935317,0.407768607725203,-1.0046240554146468
1732873800598721500,4.999721435546875,0.8301841649621725,0.26857509495988485,-1.213705489528924
1732873800608716500,5.009716552734375,1.1707856546044348,0.19969342804402113,-1.3336802148222922
1732873800618711800,5.0197119140625,1.2651543756067751,0.2713422215856612,-1.2478211096204816
1732873800628706800,5.029706787109375,1.1124205593973397,0.35496070825383064,-1.1204852809745818
1732873800638702600,5.03970263671875,0.7103805584520101,0.42635216603353615,-1.0760797375369817
1732873800648697600,5.049697509765625,0.2666553789436817,0.5476026103511452,-0.9866011997289955
1732873800658692600,5.059692626953125,-0.18506255288422108,0.6292983122631907,-0.8167752328127622
1732873800668687600,5.0696875,-0.4770481879174709,0.7380193837448954,-0.6334983943015337
1732873800678683400,5.079683349609375,-0.6033458326220512,0.8511348907932639,-0.4913933049384504
1732873800688678400,5.089678466796875,-0.5839467201471329,0.8768488855034112,-0.38974458299577236
1732873800698673400,5.09967333984375,-0.4721072243839502,0.929658684670925,-0.3024391149105504
1732873800708668700,5.109668701171875,-0.3584329144090414,0.9632868135064839,-0.22656090363822876
1732873800718663700,5.11966357421875,-0.3124082453370094,0.9251195799365639,-0.2302208509178832
1732873800728659700,5.12965966796875,-0.32371289868354797,0.8445204410895705,-0.27051589029673484
1732873800738654700,5.13965478515625,-0.33116379921138284,0.7423701263003051,-0.39563674630690365
1732873800748649500,5.1496494140625,-0.3985509897857904,0.6379204485274851,-0.5917112166687846
1732873800758644500,5.15964453125,-0.49471068585813044,0.5125304201871156,-0.8241047719832509
1732873800768640500,5.169640625,-0.6152572196900844,0.45107919553294773,-1.0666712732005863
1732873800778635500,5.179635498046875,-0.8280003911823034,0.49388928647264835,-1.2712610219188034
1732873800788630500,5.189630615234375,-1.0845721830070019,0.47939431265220045,-1.4951489800207316
1732873800798625800,5.199625732421875,-1.29425830501616,0.4699998768411576,-1.5674115215465425
1732873800808620800,5.209620849609375,-1.5274264248996972,0.582766716582328,-1.4679080680042504
1732873800818616600,5.219616455078125,-1.8494564850628374,0.6507395980902015,-1.2081313426584004
1732873800828611600,5.229611572265625,-2.1329116076380013,0.6925457726843655,-0.7718916235346347
1732873800838606600,5.239606689453125,-2.280725503101945,0.7231481239579618,-0.3431416756443679
1732873800848601600,5.2496015625,-2.2787924892127513,0.6094733755916356,-0.05201923331171274
1732873800858597600,5.25959765625,-2.01249133053422,0.46200683226063843,0.16674151796959338
1732873800868592400,5.26959228515625,-1.4851649077534674,0.4540826151326298,0.2865652174197137
1732873800878587400,5.27958740234375,-0.8231663951545953,0.5126048005975783,0.20192652085833251
1732873800888582700,5.289582763671875,-0.17393910132348536,0.592570171585679,-0.06806808551065624
1732873800898578700,5.29957861328125,0.2572778942674398,0.8023582926645875,-0.3233412888921797
1732873800908573700,5.30957373046875,0.3893669818550348,1.0406269505575299,-0.5651663240924477
1732873800918568700,5.319568603515625,0.2715396438539028,1.2454225240461527,-0.7626706445943564
1732873800928563700,5.329563720703125,-0.059418988174200056,1.3959334035091102,-0.8825957585923373
1732873800938558500,5.339558349609375,-0.405150241920352,1.5086303928844629,-0.9317099181123077
1732873800948554500,5.349554443359375,-0.6914625074923038,1.576865432459861,-0.8533736826959997
1732873800958549500,5.359549560546875,-0.8354781797170638,1.6002197123013435,-0.7189185235641896
1732873800968544500,5.36954443359375,-0.7562929993212223,1.5871743527673183,-0.6529120467584579
1732873800978539800,5.379539794921875,-0.42844577731192107,1.5554060264542697,-0.6677062957864255
1732873800988535600,5.38953564453125,0.004341828596591949,1.4926372894607483,-0.6418315575566143
1732873800998530600,5.399530517578125,0.35526246767938136,1.4182691539578138,-0.5591084853582083
1732873801008525600,5.409525634765625,0.5618687438517809,1.406899180290103,-0.5707220585234463
1732873801018520600,5.4195205078125,0.6349480085879564,1.3861477764233947,-0.5987454992197454
1732873801028516600,5.4295166015625,0.589791354522109,1.3657880022227764,-0.5561714089930058
1732873801038511600,5.43951171875,0.42561902945339675,1.379942930433899,-0.41839952652864154
1732873801048506600,5.449506591796875,0.30553426791429517,1.3818253831796348,-0.23293277675770221
1732873801058501400,5.45950146484375,0.31326573894917964,1.3435025206565856,-0.0711779611594975
1732873801068496600,5.46949658203125,0.4316553870081901,1.3243753569908439,0.05732618061341345
1732873801078492700,5.47949267578125,0.6501251194536686,1.2766810011409222,0.06846015356816351
1732873801088487700,5.48948779296875,0.8589782977700233,1.2777886701218784,0.016620514607056974
1732873801098482700,5.499482666015625,0.9402905533224344,1.2607811289586126,-0.09483253912180661
1732873801108477700,5.509477783203125,0.940218657130003,1.2345993706062435,-0.30959355324245985
1732873801118473500,5.519473388671875,0.8871668659001588,1.2021518298573792,-0.4225401334647089
1732873801128468500,5.529468505859375,0.7495446941047906,1.1461480569541453,-0.35424583798274395
1732873801138463500,5.53946337890625,0.5538742379665375,1.045383351304382,-0.3399487978871912
1732873801148458500,5.54945849609375,0.4117892415434122,0.9106642074741422,-0.3653030193742364
1732873801158454800,5.559454833984375,0.38542788884043694,0.7992682176947593,-0.27122897046953437
1732873801168449500,5.569449462890625,0.3729746499806642,0.6846329537332058,-0.12358451328836381
1732873801178444500,5.579444580078125,0.2643324889540672,0.6247837574481964,0.0629452626042068
1732873801188439600,5.589439453125,0.15808452958762645,0.6225483996115625,0.26255123156048354
1732873801198434600,5.5994345703125,-0.045137949365377426,0.6428652114532888,0.46147272538393735
1732873801208430600,5.6094306640625,-0.3977764982819557,0.714242348446697,0.7682617425996809
1732873801218425600,5.619425537109375,-0.8257207558125257,0.6675896106041967,1.0762756254352628
1732873801228420600,5.629420654296875,-1.16760527100265,0.6190726863250136,1.3209849839001893
1732873801238415400,5.639415283203125,-1.3355021695524454,0.4430519564218819,1.4588772048085927
1732873801248411600,5.64941162109375,-1.3198954350978136,0.21041794341504572,1.4516419928580522
1732873801258406700,5.65940673828125,-1.0492121158123016,0.11457783468589186,1.383996005216986
1732873801268401700,5.669401611328125,-0.640914808037877,0.021180735194683074,1.3582599448055028
1732873801278396700,5.679396728515625,-0.32526480430066584,-0.08220102108567953,1.2933175170347093
1732873801288391700,5.6893916015625,-0.06591419541239738,-0.059910717213898894,1.1983213117837905
1732873801298387500,5.699387451171875,0.07048164945840835,0.008595832779258489,1.0757776858504862
1732873801308382500,5.709382568359375,0.07339607560038566,0.09229235311970115,0.9674429833378643
1732873801318377500,5.71937744140625,-0.004634089541435241,0.1842540129803121,0.8828509754624217
1732873801328372500,5.72937255859375,-0.1403314307540655,0.27869039239138366,0.6952982131976634
1732873801338368800,5.73936865234375,-0.18928396997153757,0.3635327217660844,0.47518458600267766
1732873801348363500,5.749363525390625,-0.11951017652153968,0.450826974337548,0.3016697014406323
1732873801358358500,5.759358642578125,0.04079904337823391,0.5073097629293799,0.11641549844183027
1732873801368353500,5.769353515625,0.24892273837625978,0.5606389097958803,0.0007952420309185981
1732873801378348500,5.7793486328125,0.4135580047816038,0.5949541441127657,-0.002792188001796603
1732873801388344600,5.789344482421875,0.5063309810250998,0.5544004537977278,0.09193842511549591
1732873801398339600,5.799339599609375,0.52408524890244,0.433470327475667,0.2289975927332416
1732873801408334600,5.80933447265625,0.4305640846401453,0.27412966034710406,0.2928218301290646
1732873801418329600,5.81932958984375,0.3200987998396158,0.06829451467767357,0.2851232019178569
1732873801428325600,5.82932568359375,0.16665771214365957,-0.10282529144138097,0.2514459367109462
1732873801438320600,5.839320556640625,-0.009593173253536223,-0.2725561274200678,0.1238086043678224
1732873801448315600,5.849315673828125,-0.1900882720917463,-0.4660318499930203,-0.05594232503958046
1732873801458310700,5.859310546875,-0.3005062106192112,-0.6624696372419595,-0.12419756715279072
1732873801468306400,5.869306396484375,-0.41363749975860115,-0.8360615325629711,-0.21402367628943172
1732873801478301400,5.879301513671875,-0.4520002559006214,-0.938941915192455,-0.2939262111743912
1732873801488296400,5.88929638671875,-0.4365636173158884,-1.021147904714197,-0.30984102519750595
1732873801498291500,5.89929150390625,-0.32383681732416153,-0.9829713187940418,-0.15533833615202455
1732873801508286500,5.909286376953125,-0.28336744429171085,-0.9165576494269072,-0.13773746873810885
1732873801518282500,5.919282470703125,-0.293555660828948,-0.9000000439882277,-0.2607623023170978
1732873801528277500,5.929277587890625,-0.27278350643515586,-0.8548027656510472,-0.3456158106729388
1732873801538272300,5.939272216796875,-0.1721300060749054,-0.8543057759143412,-0.515430306347087
1732873801548267300,5.949267333984375,0.03689502167701721,-0.8793257970109581,-0.710482411391288
1732873801558263600,5.959263671875,0.3430360233128071,-0.9605544659331441,-0.8685496245179325
1732873801568258600,5.969258544921875,0.6323176600843667,-1.0192746581882237,-0.8054024826660752
1732873801578253600,5.979253662109375,0.8369657879263163,-1.0221661418460308,-0.7329451492205262
1732873801588248600,5.98924853515625,0.9135802410513162,-0.9587791268236935,-0.6499791351117193
1732873801598244400,5.999244384765625,0.7942711400598287,-0.839560480594635,-0.4432694716300815
1732873801608239400,6.0092392578125,0.5719301191389561,-0.6723680770523845,-0.1300187841195613
1732873801618234400,6.019234375,0.2622118435382843,-0.47878465632125733,0.1369768596291542
1732873801628229400,6.0292294921875,-0.13730945258438587,-0.3916280586548149,0.371221961094439
1732873801638224400,6.039224365234375,-0.46567982168495653,-0.3329277401439845,0.5515547089777887
1732873801648220400,6.049220458984375,-0.5687661021500826,-0.3617942075356841,0.541639098836854
1732873801658215400,6.05921533203125,-0.4469540784269571,-0.4612045759670436,0.4069906821552664
1732873801668210400,6.06921044921875,-0.08379355097413063,-0.5977519581377506,0.20561171217709778
1732873801678205400,6.079205322265625,0.5177437709212303,-0.7126283373787998,0.03866086230576038
1732873801688201500,6.089201416015625,1.0033160415560007,-0.7582270361237228,0.007197437223419547
1732873801698196500,6.099196533203125,1.169332533186674,-0.9373555227838456,-0.09842435306869447
1732873801708191500,6.10919140625,1.4159376422703265,-0.9552398467816412,-0.24278394336029885
1732873801718186500,6.1191865234375,1.640916025957465,-1.0246031597346066,-0.3784538120441139
1732873801728181200,6.12918115234375,1.6585101348370312,-0.9681066348783671,-0.48530474227238446
1732873801738177500,6.139177490234375,1.5819699159920215,-0.8681282573007046,-0.6532138061840087
1732873801748172500,6.149172607421875,1.6647516595751046,-0.9172551301717757,-0.8911145806126296
1732873801758167600,6.15916748046875,1.682839689451456,-1.040419006895274,-1.061243475998193
1732873801768162600,6.16916259765625,1.6101403639435767,-1.1176423856988549,-1.1565925132747739
1732873801778158300,6.179158447265625,1.5112562113434076,-1.177744826092571,-1.2052972882762552
1732873801788153300,6.1891533203125,1.4392705870628355,-1.2350887615583837,-1.164890166825056
1732873801798148400,6.1991484375,1.3264888420134782,-1.2746835437133908,-1.0722527996599673
1732873801808143400,6.209143310546875,1.1129285089194774,-1.263082537768781,-0.9808842833869159
1732873801818139600,6.2191396484375,0.7690753240048885,-1.2388137734308837,-0.8144710475236177
1732873801828134700,6.229134765625,0.3294190013706684,-1.2605508273340762,-0.7290162122737616
1732873801838129400,6.23912939453125,-0.14410802668333053,-1.2676837479539216,-0.7351563955292105
1732873801848124400,6.24912451171875,-0.6242945126265287,-1.2934069488838313,-0.7366938342295587
1732873801858119400,6.259119384765625,-1.077770101776719,-1.3360627260446547,-0.7621184906043111
1732873801868115500,6.269115478515625,-1.3934703743964434,-1.373893859528005,-0.8207955743700266
1732873801878110500,6.2791103515625,-1.574658131673932,-1.4037775411382316,-0.8305459109466522
1732873801888105500,6.28910546875,-1.650401647183299,-1.41290981888175,-0.7664180874943732
1732873801898100500,6.2991005859375,-1.6781407179802654,-1.4582459211677312,-0.7455244986779987
1732873801908096500,6.309096435546875,-1.54420629478693,-1.5296771264359355,-0.7824475774057209
1732873801918091500,6.319091552734375,-1.30158762499094,-1.5676187345564365,-0.8338933947436511
1732873801928086500,6.32908642578125,-0.9286988997280597,-1.642899016468227,-0.8688139014773071
1732873801938081500,6.33908154296875,-0.580322684431076,-1.7135481314480303,-0.79184420517385
1732873801948076500,6.34907666015625,-0.28708675707578657,-1.7321844428569078,-0.6955160206668078
1732873801958072300,6.359072265625,-0.009801263046264648,-1.7198215126290917,-0.6309769860651344
1732873801968067300,6.3690673828125,0.2527881816327572,-1.6839684012204408,-0.48986174798961724
1732873801978062300,6.379062255859375,0.42640930304825303,-1.6443594444096088,-0.35336806876752525
1732873801988057300,6.389057373046875,0.48179918183684345,-1.6157359919935463,-0.30784550399873406
1732873801998053600,6.3990537109375,0.46767362585067745,-1.599544735649228,-0.26792090536747126
1732873802008048600,6.409048583984375,0.3815981014192104,-1.624220619483292,-0.19317096747271714
1732873802018043400,6.41904345703125,0.24469839867949483,-1.6442293882891534,-0.06933982247952371
1732873802028038400,6.429038330078125,0.14658055427670477,-1.7032520706221461,0.08640216256994754
1732873802038034400,6.439034423828125,-0.009937456646561623,-1.7471853203728793,0.24103954737838357
1732873802048029400,6.449029541015625,-0.288361599317193,-1.7966626141168176,0.3568244928317144
1732873802058024400,6.4590244140625,-0.5539747757315635,-1.9257376145802436,0.30496804886627943
1732873802068019500,6.46901953125,-0.9300508988589048,-2.0668350612707433,0.15382197677232323
1732873802078014500,6.479014404296875,-1.3391431564033032,-2.160149450914562,0.05887768437173217
1732873802088010500,6.489010498046875,-1.722726294159889,-2.1738179107829927,-0.10795315584912896
1732873802098005500,6.499005615234375,-2.0186288103759287,-2.1486054358541966,-0.22049531998895108
1732873802108000500,6.50900048828125,-2.2916554779171943,-2.091746069034934,-0.3782860542617738
1732873802117995500,6.51899560546875,-2.5365555366486308,-1.9684471677549182,-0.5156468717072159
1732873802127991600,6.528991455078125,-2.6907027267873285,-1.8362930521070957,-0.4119830836150795
1732873802137986300,6.538986328125,-2.760043389517069,-1.8224062733128665,-0.16449169321618973
1732873802147981300,6.548981201171875,-2.694547711777687,-1.998932906911522,0.12754136115536094
1732873802157976300,6.558976318359375,-2.357007947793603,-2.078761207516491,0.3332324952442199
1732873802167971300,6.568971435546875,-1.7557243083983658,-1.7642556976392865,0.5395477525807917
1732873802177967600,6.578967529296875,-1.1692740809977054,-1.2448831564724445,0.6130534260354936
1732873802187962600,6.588962646484375,-0.9213865308880805,-0.4496300927031785,0.3189436384551227
1732873802197957600,6.59895751953125,-0.9470610703706741,0.7486405848719179,0.06691402010470629
1732873802207952400,6.608952392578125,-1.4451082071751356,1.686656763521582,0.11463975747358053
1732873802217948400,6.618948486328125,-2.1440490877240896,2.2344836841478943,0.07343392339274286
1732873802227943400,6.628943359375,-2.4217665434300897,2.248979973142594,0.27335783572439104
1732873802237938400,6.6389384765625,-2.053904706418514,2.049969997318089,0.6040402446269989
1732873802247933400,6.648933349609375,-1.2035229720801115,1.5259288798183201,0.7587667690236121
1732873802257929500,6.658929443359375,-0.041052141356468196,1.1027598738655446,0.7907970342084765
1732873802267924500,6.668924560546875,1.3680816661179065,0.9981686687301844,0.5501516737794503
1732873802277919500,6.67891943359375,2.64888661532104,0.8216350939340888,0.0802120392255485
1732873802287914500,6.68891455078125,3.5909114450901747,0.6000089432843029,-0.22798198594991118
1732873802297909500,6.698909423828125,4.0105549072653055,0.6165919754251837,-0.2664346853977069
1732873802307905500,6.708905517578125,4.008915907886624,0.7759770662173628,-0.1572527366722934
1732873802317900500,6.718900634765625,3.7150872753351925,0.901854293552786,0.023952190935704856
1732873802327895300,6.728895263671875,3.097933866634965,1.063746398729831,0.180676665950194
1732873802337890300,6.738890380859375,2.2113240500956772,1.1976317220844328,0.10394645922472699
1732873802347886600,6.748886474609375,1.3021803301870822,1.2025352762170136,0.17034430996822192
1732873802357881600,6.758881591796875,0.5747919383108615,1.1331735706992447,0.40170021106433124
1732873802367876600,6.768876708984375,0.13826982204914093,0.9288131737574934,0.498079212443158
1732873802377871600,6.77887158203125,-0.013715221619606017,0.6293211086168885,0.4249885860627517
1732873802387866600,6.78886669921875,0.0744616590052843,0.3116344844855368,0.3753958857782185
1732873802397862400,6.7988623046875,0.31532033339142795,0.03753339264579117,0.43518425525408233
1732873802407857400,6.808857421875,0.6185305422723293,-0.20777356638610361,0.5385159253150225
1732873802417852400,6.818852294921875,0.8739917425066233,-0.45044250506460665,0.5259051943385973
1732873802427847400,6.828847412109375,1.0634253500819206,-0.6962409008752555,0.37532493943385775
1732873802437843500,6.838843505859375,1.1567220579385757,-0.938474370745942,0.3525503591764718
1732873802447838500,6.84883837890625,1.165102932792902,-1.09877058503367,0.39268140363264825
1732873802457833500,6.85883349609375,1.0612608655244111,-1.1708242330491543,0.3839451029367745
1732873802467828200,6.868828125,0.8632418004333973,-1.1491348176799714,0.3427479636190459
1732873802477824500,6.878824462890625,0.620273002025485,-1.0411487094093113,0.3453246822392568
1732873802487819500,6.888819580078125,0.39272564463317394,-0.9535084198791534,0.40973198022004215
1732873802497814500,6.898814453125,0.25904607298374177,-0.9212892079934477,0.44963308837786314
1732873802507809300,6.908809326171875,0.19153730185627937,-0.9200462952602654,0.5702224749708548
1732873802517804300,6.91880419921875,0.13968728763163088,-0.9384704982884228,0.7246099401388317
1732873802527800300,6.92880029296875,0.11910451833009719,-0.8698938056685029,0.8769258962623775
1732873802537795300,6.93879541015625,0.19277473469674586,-0.8770892701305448,0.9515908227548002
1732873802547790300,6.948790283203125,0.330648835426569,-0.8635102421112358,1.0350297150723635
1732873802557785300,6.958785400390625,0.5101888254970312,-0.7779495353341103,1.1114781639806925
1732873802567781400,6.968781494140625,0.6516700108081102,-0.7351914668425917,1.1724781377360225
1732873802577776400,6.9787763671875,0.7672884405881166,-0.756226363825798,1.1105579803958534
1732873802587771400,6.988771484375,0.871795109245181,-0.7544877034649252,0.9785955148626119
1732873802597766400,6.998766357421875,0.9429974741935729,-0.6963963106326758,0.7724465540036559
1732873802607761400,7.008761474609375,0.9047130439847707,-0.6417492130354047,0.4737362138252705
1732873802617757400,7.01875732421875,0.6653133362352848,-0.5883828028984367,0.17115447557363658
1732873802627752200,7.028752197265625,0.18246669117212294,-0.40898602069094775,-0.05644336989689618
1732873802637747200,7.038747314453125,-0.6033955169826746,-0.5354737811401487,-0.42520927960872645
1732873802647742200,7.0487421875,-1.5500515136837958,-0.7802554741889238,-0.6136207775946706
1732873802657738500,7.058738525390625,-2.164790846979618,-0.6903117300219833,-0.34405721958670765
1732873802667733500,7.0687333984375,-2.4182699334859845,-0.49640382657684384,0.02647164467703551
1732873802677728500,7.078728515625,-2.5616198352783917,-0.32544841723926365,0.042813086614385244
1732873802687723500,7.0887236328125,-2.7254537221729755,-0.19637151707969605,-0.01233637101445347
1732873802697718300,7.09871826171875,-2.9142981316834686,-0.28513175055049356,-0.051482788347452874
1732873802707714300,7.10871435546875,-3.0374668307125567,-0.5923040679953993,-0.16136789863985032
1732873802717709300,7.118709228515625,-2.861357399612665,-0.7836126756623387,-0.35505054196175184
1732873802727704300,7.128704345703125,-2.422034838977456,-0.5305683273114263,-0.728662868791446
1732873802737699300,7.13869921875,-2.079901901984215,0.22238003775700926,-0.9581955547820776
1732873802747695400,7.1486953125,-2.1169693576186894,0.987791505492106,-1.088818076948449
1732873802757690400,7.1586904296875,-2.5236557230651377,1.419385444636643,-1.1462811818145215
1732873802767685400,7.168685302734375,-2.8275340404659506,1.5979899074226618,-1.024670818143338
1732873802777680400,7.178680419921875,-2.778555197763443,1.514096841596812,-0.9166266230098903
1732873802787676400,7.188676513671875,-2.1727128721505404,1.2209571411576121,-0.9766744106069206
1732873802797671400,7.19867138671875,-0.9564613514006137,0.9408216645244508,-1.0840711746823042
1732873802807666200,7.208666259765625,0.4945855981737375,0.747546506024897,-1.1903374003577978
1732873802817661200,7.2186611328125,1.9791116235017776,0.6025597968108952,-1.271016545638442
1732873802827656200,7.22865625,3.1176123805731533,0.504275217539072,-1.2922377589739857
1732873802837652500,7.238652587890625,3.790465464663505,0.6172542387261987,-1.395950646904856
1732873802847647500,7.2486474609375,3.7725650663137436,0.7464623640500009,-1.5364738008387386
1732873802857642500,7.258642578125,3.1573645452469585,0.8982428250573575,-1.5199895528972147
1732873802867637500,7.268637451171875,2.2034844425112006,1.1520023359403013,-1.324555974254757
1732873802877633300,7.27863330078125,1.3208937984853981,1.3947551535099745,-0.9944297013975679
1732873802887628300,7.288628173828125,0.4118079462438822,1.5503502043694257,-0.4474162160459906
1732873802897623300,7.298623291015625,-0.2735655967235565,1.4814393113590776,-0.08329537392733619
1732873802907618300,7.308618408203125,-0.6698498106211423,1.211514409225434,0.12311446635751053
1732873802917614300,7.3186142578125,-0.6753729579567909,0.8805034624882042,0.19736838262993842
1732873802927609300,7.328609375,-0.43610184502303595,0.5845378179080783,0.21455734477471558
1732873802937604400,7.338604248046875,0.03531622805297375,0.31268392047323285,0.24060013304781167
1732873802947599400,7.348599365234375,0.6243243232429028,0.10043167430311441,0.3423539228001609
1732873802957594400,7.358594482421875,1.135878007352352,-0.07559826181977987,0.4005663116635754
1732873802967590400,7.36859033203125,1.5247136588096617,-0.2539535721503198,0.3569725960655138
1732873802977585400,7.37858544921875,1.8057307405829428,-0.4515196327768266,0.32271431610025464
1732873802987580400,7.388580322265625,1.9978788678139447,-0.6605395459622144,0.22373908768314868
1732873802997575200,7.3985751953125,2.1133920836538076,-0.7909776514723896,0.13655399457458406
1732873803007571500,7.408571533203125,2.064023949372768,-0.8423086102589964,0.030821620047464963
1732873803017566500,7.41856640625,1.8097130882173775,-0.8726609322942793,-0.12014277533665299
1732873803027561500,7.4285615234375,1.508328925719857,-0.8797992597416042,-0.24456724658049642
1732873803037556500,7.438556396484375,1.2240794378966093,-0.8243295937150716,-0.3274402486436069
1732873803047551500,7.448551513671875,0.892347483408451,-0.791588769108057,-0.35852852027062326
1732873803057547300,7.45854736328125,0.5675917976737022,-0.7707616696566343,-0.43516376045532523
1732873803067542300,7.468542236328125,0.3264326790362596,-0.7383539494615048,-0.5358939793135971
1732873803077537300,7.478537353515625,0.15505144550204275,-0.6794356773510575,-0.6529496753551065
1732873803087532300,7.4885322265625,0.018490180936455724,-0.7215793402712791,-0.8071005918208509
1732873803097528600,7.498528564453125,-0.05428980859220028,-0.80053063884601,-0.8624665782772004
1732873803107523300,7.5085234375,-0.029930443361401556,-0.8768652521163225,-0.866387551113218
1732873803117518300,7.518518310546875,0.004958499190211295,-0.9240164410002529,-0.8201132911942899
1732873803127513300,7.528513427734375,-0.017149872243404387,-1.0075095477230847,-0.7346378515478224
1732873803137508400,7.53850830078125,-0.010046762239933013,-1.1195160706162453,-0.6340863502573222
1732873803147504400,7.54850439453125,0.053795887595415114,-1.163514932949096,-0.5910302851999178
1732873803157499400,7.55849951171875,0.04954524441361427,-1.153452973140031,-0.5812089657463133
1732873803167494400,7.568494384765625,-0.11196867510080337,-1.198980652475357,-0.5555495507676154
1732873803177489400,7.578489501953125,-0.335697350987792,-1.159381778667122,-0.5324241477785632
1732873803187485400,7.5884853515625,-0.6441676723539829,-0.9940032926790415,-0.5389052168935538
1732873803197480400,7.59848046875,-1.0939350546360016,-0.812131790921092,-0.5856402261920273
1732873803207475500,7.608475341796875,-1.5542320142388344,-0.5619321644768118,-0.6655899612195789
1732873803217470500,7.618470458984375,-2.0537474700301885,-0.292935629234463,-0.6355437825240194
1732873803227466200,7.62846630859375,-2.5277105514138936,-0.16852482118979095,-0.4956671463327482
1732873803237461200,7.638461181640625,-2.903848049339652,-0.29547004308290775,-0.19386738877166063
1732873803247456300,7.648456298828125,-3.007926263451576,-0.4629389985442161,0.27249318171907216
1732873803257451300,7.658451171875,-2.892728689432144,-0.3856578251387924,0.7119309296991676
1732873803267446300,7.6684462890625,-2.853113887402415,0.016969401109963655,0.9789058959860354
1732873803277442600,7.678442626953125,-3.0363474712938068,0.7958277949173003,0.9974143432315439
1732873803287437300,7.688437255859375,-3.5712750167280434,1.622529305395484,0.7975834794782102
1732873803297432300,7.698432373046875,-4.322507225528359,2.1496219194203614,0.661732993530482
1732873803307427300,7.70842724609375,-4.907656307202577,2.3672240752510727,0.7777073971413075
1732873803317423400,7.71842333984375,-4.76689875999093,2.1949483770951628,1.1303794099360704
1732873803327418400,7.72841845703125,-3.6551550769418477,1.8383368328943848,1.4839431108735501
1732873803337413400,7.738413330078125,-1.9217957450866698,1.3753481499895452,1.525105726867169
1732873803347408400,7.748408447265625,-0.14175474155545234,0.8869963316388427,1.4119547101140022
1732873803357403400,7.7584033203125,1.5280483561903238,0.5955529867887497,1.2419907960318028
1732873803367399400,7.7683994140625,3.0071739837795493,0.4311778326243162,1.0230723699707538
1732873803377394400,7.77839453125,4.007445835334062,0.4846142392575741,0.8301058390289544
1732873803387389400,7.788389404296875,4.3686014527052635,0.65098509728387,0.747146546921879
1732873803397384400,7.798384521484375,4.257336541959643,0.8554813955649733,0.9060844054032117
1732873803407380200,7.808380126953125,3.6971138117492197,1.0992420750029384,0.912204641849175
1732873803417375200,7.818375244140625,2.770880425351858,1.2995169561967252,0.6898389248784631
1732873803427370200,7.828370361328125,1.7750597079873085,1.4151308559320865,0.28920378576237704
1732873803437365200,7.838365234375,0.9149269794851541,1.432150087533146,-0.06010550913363695
1732873803447361500,7.848361572265625,0.22849077572226523,1.4092618177682161,-0.24766144973617046
1732873803457356500,7.8583564453125,-0.25473639309108254,1.228466566939652,-0.3009210750304162
1732873803467352000,7.86835205078125,-0.4359761728167534,1.003679029649496,-0.2720954145731404
1732873803477347000,7.87834716796875,-0.34559389110207556,0.756710201819986,-0.15305851811915636
1732873803487342000,7.888342041015625,0.021967501658201216,0.42160014920085664,-0.07911584148667752
1732873803497338000,7.898338134765625,0.6451379786908626,0.11259309060946106,-0.12602741292845457
1732873803507333000,7.9083330078125,1.275117551216483,-0.11963599485829472,-0.24090642251800745
1732873803517328100,7.918328125,1.828494945576787,-0.29948914253115655,-0.3393233594652265
1732873803527323000,7.928322998046875,2.2316893772542477,-0.5135122708313167,-0.38174806781653314
1732873803537319200,7.938319091796875,2.4423925673514604,-0.6619656332425773,-0.3652323287582025
1732873803547314200,7.948314208984375,2.4779040257155893,-0.7677804618887603,-0.3452296608995646
1732873803557309200,7.95830908203125,2.315503971016407,-0.8966207768134772,-0.22899112645983694
1732873803567304200,7.96830419921875,1.9712632480889558,-0.9648049629844725,-0.01918177992980927
1732873803577299200,7.97829931640625,1.5483172372370957,-0.9723470489270984,0.15402438574293628
1732873803587295000,7.988294921875,1.1335498566657305,-0.9505733162753284,0.30698899676725266
1732873803597290000,7.9982900390625,0.8031751620054245,-0.8908112137518822,0.4530095060084015
1732873803607285000,8.008284912109374,0.45939036615192885,-0.8617834183186293,0.48776839243955905
1732873803617280000,8.018280029296875,0.06926525940597057,-0.7953270788535475,0.505144072795473
1732873803627276300,8.0282763671875,-0.28165830228626726,-0.7222799628213048,0.5443520841225982
1732873803637271000,8.03827099609375,-0.5367196895480155,-0.7260163728706538,0.5994477657375857
1732873803647266000,8.04826611328125,-0.7127841124624014,-0.7811313802406191,0.6968430314868688
1732873803657261000,8.058260986328126,-0.7992267166405915,-0.8575223998732865,0.7246424541689455
1732873803667256000,8.068256103515624,-0.9108341572135686,-0.8680304960146545,0.6974637937337159
1732873803677252000,8.078252197265625,-0.9984200862079858,-0.75660484174937,0.535261818889901
1732873803687247000,8.0882470703125,-1.1992740824639796,-0.5743513549365102,0.30497007642658425
1732873803697242000,8.0982421875,-1.594975528037548,-0.5222790762633085,0.07726681608650833
1732873803707237000,8.108237060546875,-1.965186558523774,-0.5301010020606219,-0.005875350315292598
1732873803717233200,8.118233154296876,-2.1596049687743184,-0.5437034109555184,0.016143416880909353
1732873803727228200,8.128228271484375,-2.238041961151361,-0.40923707284256816,0.008980412791698473
1732873803737223200,8.13822314453125,-2.392154079976678,-0.09700506085529922,-0.034139204179833176
1732873803747218200,8.14821826171875,-2.6299188800007105,0.16366145293712614,-0.1047714388067834
1732873803757214000,8.1582138671875,-2.8952181681603193,0.14716975234150886,-0.2617307272241451
1732873803767209000,8.168208984375,-3.0542279958993195,-0.1366900055117905,-0.3230574669821188
1732873803777204000,8.178203857421876,-2.9158816014826296,-0.37678091039583084,-0.37671814735792575
1732873803787199000,8.188198974609374,-2.446791094571352,-0.1775517388626933,-0.41026053413879127
1732873803797194000,8.198194091796875,-1.9148750059127806,0.5826375372447073,-0.43322654531504956
1732873803807190300,8.208190185546876,-1.6504723743319512,1.3814450055599212,-0.35886611819453534
1732873803817185300,8.218185302734375,-1.76683197786808,1.992685244693607,-0.23092189359301699
1732873803827180000,8.228179931640625,-1.982497758808732,2.2406961289219556,-0.2662755675795488
1732873803837175000,8.238175048828126,-2.011030610331893,2.0260512154616412,-0.5217942884210497
1732873803847171000,8.248171142578125,-1.445888543897867,1.608107542941719,-0.7415916162084788
1732873803857166000,8.258166015625,-0.4743254849553108,1.2818810540020464,-0.909942907462269
1732873803867161000,8.2681611328125,0.63501581312716,0.9981827703207731,-1.089198600698635
1732873803877156000,8.278156005859374,1.7811878354787825,0.6118265145890415,-1.2010210722617805
1732873803887151000,8.288151123046875,2.935096005040407,0.549541615589708,-1.316542909799516
1732873803897147100,8.298147216796876,3.5671208196580406,0.4938495389841497,-1.3489505569294094
1732873803907142100,8.30814208984375,3.8262896422386166,0.5868051783181727,-1.317429337245226
1732873803917137200,8.31813720703125,3.911889365851879,0.7942433752700686,-1.2653107352122663
1732873803927132200,8.328132080078126,3.5816479421824217,0.9413355323307215,-1.0982679692737758
1732873803937128200,8.338128173828125,3.0620687725275753,1.060581212697178,-1.0907469261191785
1732873803947123000,8.348123046875,2.3362620968848464,1.1134015332587062,-1.0133975828483701
1732873803957118000,8.358117919921876,1.592578988289833,1.1839648696511984,-0.7716292462714016
1732873803967113000,8.368113037109374,0.8663304140985012,1.0886755266726016,-0.5989940671533346
1732873803977109200,8.378109130859375,0.3312128990501165,0.9987257911562919,-0.36239261182025073
1732873803987104300,8.388104248046876,0.06586509557366371,0.7516903278313577,-0.18800560233248398
1732873803997099300,8.398099365234375,-0.08148235142230988,0.4028787898570299,-0.1132846530701965
1732873804007094300,8.40809423828125,0.026723756274580953,0.2090330649279058,-0.012764204505085945
1732873804017089000,8.418089111328126,0.4340934278100729,0.12384922863915562,0.1316769813890569
1732873804027085000,8.4280849609375,0.9074258100748062,-0.04163549420237541,0.20057536197770387
1732873804037080000,8.438080078125,1.2695078946411609,-0.3164282946333289,0.15638795480281115
1732873804047075000,8.448074951171876,1.5164888512998818,-0.5554005707509815,0.19635628297794608
1732873804057070000,8.458070068359374,1.6388503255993128,-0.7162759001009166,0.19948427880536765
1732873804067066000,8.468066162109375,1.6134832446306944,-0.7537177420057356,0.16762661197474224
1732873804077061000,8.47806103515625,1.456590555176139,-0.7591743999764323,0.0822724423540756
1732873804087056100,8.48805615234375,1.1570371152371168,-0.7527816301994025,-0.05135298795532435
1732873804097051100,8.498051025390625,0.8002443692505359,-0.6886147168457508,-0.13014526004344223
1732873804107046100,8.508046142578126,0.44576282281577584,-0.5860259375739842,-0.19868954823110252
1732873804117042200,8.518042236328125,0.11439444094300269,-0.45912835421487685,-0.28197533234618605
1732873804127037000,8.528036865234375,-0.21689093882143495,-0.353696533536911,-0.37305118581559504
1732873804137032000,8.538031982421876,-0.491636100718379,-0.32047004430480297,-0.4742771523015573
1732873804147027000,8.54802685546875,-0.6224170283168554,-0.38162550088278946,-0.646951384788379
1732873804157023200,8.558023193359375,-0.5574830761134624,-0.5465489365797489,-0.8285650393277406
1732873804167018200,8.568018310546876,-0.3421346905589103,-0.7092677749045193,-0.9316971316959708
1732873804177013200,8.57801318359375,-0.10195347704291344,-0.8338298279881476,-0.9020520811472088
1732873804187008300,8.58800830078125,0.14517361008822918,-0.9585171148866415,-0.88530684418194
1732873804197003000,8.5980029296875,0.32601883753836153,-0.9931519365467131,-0.8918122074879705
1732873804206999000,8.6079990234375,0.3348948024332523,-0.9704261638671159,-0.9426108129635453
1732873804216994000,8.617994140625,0.059435939309000964,-0.9202000975824892,-0.9935621247828006
1732873804226989000,8.627989013671876,-0.5154121131032705,-0.8764699691884219,-1.0427648393690585
1732873804236984000,8.637984130859374,-1.178732229694724,-0.831170691781491,-1.0719826044164598
1732873804246980000,8.64797998046875,-1.7471312520980833,-0.688870591302961,-1.0088784979887306
1732873804256975000,8.65797509765625,-2.269603805106878,-0.4871313366450369,-0.8709320626750587
1732873804266970000,8.66797021484375,-2.651383692833781,-0.42629342158362266,-0.6802126530729233
1732873804276965000,8.677965087890625,-2.8739228666752576,-0.5420100510410965,-0.3467301651230082
1732873804286960000,8.687960205078125,-2.9058704950779677,-0.851546321138367,-0.08203669736944139
1732873804296956200,8.6979560546875,-2.778282226040959,-1.1488144996844232,0.05519143360704183
1732873804306951200,8.707951171875,-2.5316461372971535,-0.9080016372013836,0.2066936073959805
1732873804316946000,8.71794580078125,-2.4243834479302167,0.09685936877429485,0.2636927480121143
1732873804326941000,8.72794091796875,-2.8351509452104566,1.4184300436079502,0.1878234872312285
1732873804336937200,8.737937255859375,-3.763776195180416,2.5006512795746323,0.271465902764257
1732873804346932200,8.74793212890625,-4.844267830875515,2.9858842352524397,0.5800700979094952
1732873804356927200,8.75792724609375,-5.469338588571548,2.7757135445967314,0.9805540285192429
1732873804366922200,8.767922119140625,-5.179729035019874,2.10305539855659,1.23139794421643
1732873804376918000,8.77791796875,-4.01024686422944,1.4427144439063966,1.2760989634692668
1732873804386913000,8.7879130859375,-2.21594411111176,1.2272148133128882,1.2679023591406642
1732873804396908000,8.797907958984375,-0.19462416195571422,1.1641449014157057,1.3115604452118277
1732873804406903000,8.807903076171876,1.7736854970246552,0.8689023104131222,1.3594061922311782
1732873804416898000,8.81789794921875,3.5767929033666848,0.7101749528773128,1.4428988605625928
1732873804426894000,8.82789404296875,4.8065766903847456,0.47541897928044197,1.5096885236352682
1732873804436889000,8.83788916015625,5.429893882411718,0.15857523571401833,1.7078820685103535
1732873804446884000,8.847884033203124,5.604578249144554,0.13585735407993196,1.853096302869916
1732873804456879000,8.857879150390625,5.226636916667223,0.27619273035675285,1.8416876046270132
1732873804466874600,8.86787451171875,4.333200468978285,0.4423835556410253,1.6253471392951904
1732873804476869600,8.87786962890625,3.188863260838389,0.6754179661422968,1.2092140963938087
1732873804486864600,8.88786474609375,2.0950866116344926,0.8627193839944899,0.7895304483387618
1732873804496859600,8.897859619140625,1.0223018970549107,0.9637922788105905,0.4546779141446575
1732873804506854700,8.907854736328124,0.005557634127140045,1.0356979697227477,0.11883817727779969
1732873804516850700,8.9178505859375,-0.7614496514320374,1.0667518641561269,-0.01852470426056534
1732873804526845700,8.927845703125,-1.1484469815462828,1.000684962400049,0.0012474975767545401
1732873804536840700,8.9378408203125,-1.0845546473503112,0.7722275044254958,0.02686360313668847
1732873804546835700,8.947835693359375,-0.62321022452116,0.46475525418594477,-0.02136836672127247
1732873804556831500,8.95783154296875,0.09430676168203353,0.14235489940568805,-0.16233330960590392
1732873804566826500,8.967826416015624,0.882826790869236,-0.09333762438893317,-0.3575669817620888
1732873804576821500,8.977821533203125,1.6138240208923815,-0.285010243062675,-0.5408862346429377
1732873804586816500,8.98781640625,2.1957605702608824,-0.4393579242095351,-0.6997357572536915
1732873804596811500,8.9978115234375,2.5770529667317867,-0.5443842328265309,-0.6848856133200227
1732873804606807800,9.007807861328125,2.786396558913588,-0.634300504464656,-0.5041373434383422
1732873804616802800,9.017802734375,2.766298358258605,-0.7069812714025377,-0.3461402729384601
1732873804626797600,9.027797607421874,2.4865011736690996,-0.7050050028935074,-0.2460086958267726
1732873804636792600,9.03779248046875,1.9628093079984188,-0.6526010080479085,-0.05522727210540324
1732873804646788600,9.04778857421875,1.3347066352605819,-0.5468751728594303,0.178567436977569
1732873804656783600,9.05778369140625,0.696975133433938,-0.48831937738582487,0.31892573747225106
1732873804666778600,9.067778564453125,0.09197978003919124,-0.5057749545775354,0.47561395386327054
1732873804676773600,9.077773681640625,-0.3494955747157335,-0.565727172845602,0.6538176903612911
1732873804686768600,9.0877685546875,-0.6608160248160362,-0.6559136397272348,0.6849126474574208
1732873804696764700,9.0977646484375,-0.7595417719841003,-0.7560103829875588,0.646255438413471
1732873804706759700,9.107759765625,-0.6883505129516124,-0.7892378220677375,0.5995197715278715
1732873804716754700,9.117754638671874,-0.6442945136040449,-0.7906883131369948,0.4868460168976336
1732873804726749700,9.127749755859375,-0.7962421478718519,-0.7950896168358623,0.3367348773419857
1732873804736745500,9.137745361328125,-1.0667863509476183,-0.8382190028578043,0.1651459010749124
1732873804746740500,9.147740478515624,-1.4268588492572307,-0.901381561474502,0.0006146795659326017
1732873804756735500,9.157735595703125,-1.8253490487664936,-0.900717544607818,-0.11934000758640467
1732873804766730500,9.16773046875,-2.229331415951252,-0.5774477135166526,-0.24210823605582116
1732873804776726500,9.1777265625,-2.7021038262456654,-0.11152882237881422,-0.37261308665927495
1732873804786721800,9.1877216796875,-3.189020497226715,-0.14440700962990521,-0.4700737092623487
1732873804796716800,9.197716796875,-3.5888410685569045,-0.574859304458648,-0.6720688018448651
1732873804806711600,9.207711669921874,-3.756117204859853,-0.6555167493641376,-0.9641719257779419
1732873804816706600,9.21770654296875,-3.650260290637612,0.07734335192143917,-1.1769940077252685
1732873804826702600,9.22770263671875,-3.4876983233749863,1.3406991536736488,-1.1517865742977709
1732873804836697600,9.237697509765624,-3.64664619179368,2.4934166521459815,-0.9911736222110689
1732873804846692600,9.247692626953125,-4.192150660821795,3.1116178163334727,-0.8055416719410567
1732873804856687600,9.2576875,-4.6982273748248815,3.090139851757884,-0.5223151339573785
1732873804866682600,9.2676826171875,-4.680300088468194,2.5344857446372506,-0.22433860621256752
1732873804876678700,9.2776787109375,-3.6954935170710086,1.8912158979058264,-0.20942748933928085
1732873804886673700,9.287673583984375,-2.134773894378543,1.5673460550948977,-0.39504977673180397
1732873804896668700,9.297668701171874,-0.35477848355472086,1.4306239008791743,-0.6814680599614977
1732873804906663700,9.30766357421875,1.4751988095343112,1.1939561023116112,-1.004465065460652
1732873804916659700,9.31765966796875,3.0522376988649365,0.9463402087502181,-1.2523488161779939
1732873804926654500,9.327654541015624,4.134291761571169,0.7732849045239388,-1.3432467923298477
1732873804936649500,9.3376494140625,4.5778988676577805,0.5775893139444291,-1.384607415113598
1732873804946644500,9.34764453125,4.713683887153864,0.6074010993622243,-1.5730207397304474
1732873804956640500,9.357640625,4.441386702930927,0.7731430118352174,-1.3940041890121995
1732873804966635800,9.3676357421875,3.8457273331582544,1.0020388612270354,-1.183400221505761
1732873804976630800,9.377630859375,2.9225860675573347,1.1550723910354077,-1.129651826313883
1732873804986625800,9.387625732421874,1.8484645514160394,1.3385808463454245,-0.9936625894825905
1732873804996620500,9.39762060546875,0.8027917156457901,1.4352972995176911,-0.9228199977573007
1732873805006616600,9.407616455078125,0.0203822782933712,1.4206018346890805,-0.7802092969596386
1732873805016611600,9.417611572265624,-0.5259785153031349,1.2902234965421258,-0.6120789915127679
1732873805026606600,9.427606689453125,-0.7889712800860404,1.073486140847206,-0.46031277822647243
1732873805036601600,9.4376015625,-0.7831313218861817,0.8719646205931901,-0.2173690777271986
1732873805046597400,9.447597412109374,-0.4174456598699093,0.7118626137033105,0.0020871084723621605
1732873805056592600,9.457592529296875,0.27975100736021996,0.5043393688164651,0.07796316432021558
1732873805066587600,9.467587646484375,0.9332733680367469,0.17389847705215214,0.0759677892519161
1732873805076582700,9.477582763671874,1.504934607106447,-0.07765621726289391,0.009732947050407528
1732873805086577700,9.48757763671875,1.9727718990862368,-0.27140973386392,-0.08296268964055925
1732873805096573700,9.49757373046875,2.277213111066818,-0.5335333145968616,-0.03799721076525748
1732873805106568400,9.507568359375,2.4669728818565604,-0.6789910023234784,0.03814396229218692
1732873805116563500,9.5175634765625,2.42844295245409,-0.7849816259279847,-0.01639218574389815
1732873805126558500,9.527558349609375,2.186833167439699,-0.8170902901113033,-0.1017041784569621
1732873805136554500,9.537554443359374,1.7926257598161697,-0.9042480568215251,-0.23250556432157754
1732873805146549800,9.5475498046875,1.2923977718412876,-0.9989861956581473,-0.3421154013365507
1732873805156544800,9.557544677734375,0.842135884040594,-1.0849176354438066,-0.39855062445960937
1732873805166539800,9.567539794921874,0.5590536864310502,-1.1315509379334747,-0.4594720530860126
1732873805176534500,9.577534423828125,0.4466770150512457,-1.0551657635197043,-0.608464271614328
1732873805186530600,9.587530517578125,0.4335837247222662,-0.9170939482606947,-0.8254711649656296
1732873805196525600,9.597525634765624,0.42865620519220826,-0.8301537698239088,-1.0520130716424434
1732873805206520600,9.6075205078125,0.46353579539358614,-0.7228644847109913,-1.203730404285714
1732873805216515600,9.617515625,0.5703273601174355,-0.6844700182564556,-1.3108303773716092
1732873805226511400,9.627511474609374,0.5697755714535713,-0.6608090105533599,-1.4002103501759469
1732873805236506600,9.637506591796875,0.47068216001689434,-0.5242191044151783,-1.4292907525792717
1732873805246501600,9.647501708984375,0.2168283949792385,-0.4085306781388819,-1.3989885532960296
1732873805256496600,9.65749658203125,-0.16028583902418614,-0.3217521200045943,-1.236663025137782
1732873805266491600,9.66749169921875,-0.6466589046478272,-0.21955635863840578,-0.8559268012449145
1732873805276487700,9.67748779296875,-1.2271972776561975,-0.06861307910755277,-0.5510844245849177
1732873805286482700,9.687482666015624,-1.7857827620536089,0.10298998048380016,-0.31884116446133703
1732873805296477400,9.6974775390625,-2.3732056338787078,0.10118424623608589,-0.026909159311465917
1732873805306472400,9.707472412109375,-2.8611528169512748,-0.10292933633774519,0.2529730732129887
1732873805316468500,9.717468505859374,-3.1351433610886335,-0.40288273537978525,0.47241245440822094
1732873805326463700,9.727463623046875,-3.138980162772536,-0.6631975131250918,0.696632749737054
1732873805336458800,9.737458740234375,-2.885381833800673,-0.9755356158353388,0.9670468966923653
1732873805346453800,9.747453857421876,-2.6228297985225915,-1.438758107496053,1.2169869223523884
1732873805356448800,9.75744873046875,-2.2403023072987795,-1.7412690820664167,1.514490224828571
1732873805366444500,9.767444580078125,-1.7816916933476923,-1.7210237280257046,1.8777973211452363
1732873805376439600,9.777439453125,-1.3543383874475956,-1.0350696086913347,1.8977564055904745
1732873805386434600,9.7874345703125,-1.2679793698996304,0.30451442334726453,1.3878889210022984
1732873805396429600,9.7974296875,-1.9411697231203318,1.725377539321035,0.705002080284059
1732873805406425600,9.807425537109374,-2.8679642505317924,2.693115048626065,0.17385266514904796
1732873805416420600,9.817420654296875,-3.5961499302655455,2.8836130705624816,0.02718494404554367
1732873805426415600,9.82741552734375,-4.510148104467988,2.6477345226764677,0.9258570273656398
1732873805436410600,9.83741064453125,-4.691697680795192,2.334983309120685,1.8120074827648698
1732873805446405600,9.847405517578125,-3.8275551321297883,1.9400769594475626,1.7482628864765166
1732873805456401700,9.857401611328125,-2.3482746062397957,1.4479941378749905,1.3254945702791214
1732873805466396700,9.867396728515626,-0.6898369521170854,1.0832555474504828,1.0746886485047638
1732873805476391700,9.8773916015625,1.0371323864400386,1.060459193752706,0.8178494379155338
1732873805486386400,9.887386474609375,2.356691136929393,1.117696892365068,0.43609778990242626
1732873805496382700,9.8973828125,3.190916686236858,1.130447214475274,0.08829568469896912
1732873805506377700,9.907377685546875,3.4324867237627505,1.2135022220417857,0.07766655599381775
1732873805516372700,9.917372802734375,3.0347517265349624,1.273530574285984,0.2395714475871995
1732873805526367700,9.92736767578125,2.46329974630177,1.4336601998351512,0.2948507421407848
1732873805536362800,9.93736279296875,1.8145611127704382,1.628395128688961,0.24861047582300377
1732873805546358500,9.947358642578125,1.1845242570996284,1.7494040193356573,0.24966303534954784
1732873805556353500,9.957353515625,0.6929670668363571,1.741981760380417,0.08613174813073128
1732873805566348500,9.9673486328125,0.4437602508217096,1.5910359966315328,-0.1427387476241216
1732873805576343600,9.977343505859375,0.45617608028054235,1.4221785824865103,-0.2198960023889318
1732873805586339800,9.98733984375,0.6764648448467254,1.198127396646887,-0.21119236185364423
1732873805596334600,9.99733447265625,0.9952005396395921,1.0090819116063416,-0.22414189633037893
1732873805606329600,10.00732958984375,1.2382587698966263,0.7749408550374209,-0.22185736558977512
1732873805616324600,10.01732470703125,1.4389409167170524,0.5296728397764265,-0.14477456430066377
1732873805626320600,10.027320556640625,1.5432061778336763,0.2852218399867415,-0.06485284979119897
1732873805636315600,10.037315673828125,1.6219056205391882,0.11090031521692871,-0.02583477154560387
1732873805646310700,10.047310546875,1.6983710205823181,-0.04410875244811177,-0.06435125694461166
1732873805656305700,10.0573056640625,1.7780460303217172,-0.17923194703459738,-0.1398351716697216
1732873805666300400,10.067300537109375,1.8554706307858229,-0.29088717227205635,-0.20745799763090908
1732873805676296700,10.077296630859376,1.8114584705799817,-0.326889921284467,-0.21733758661039174
1732873805686291700,10.087291748046875,1.5661808107078075,-0.3462072006948292,-0.17784867598265408
1732873805696286700,10.09728662109375,1.19244745131433,-0.31943069131970403,-0.17535748022142797
1732873805706281700,10.10728173828125,0.7092167753696441,-0.23985665773674844,-0.08797869117166847
1732873805716277500,10.117277587890625,0.19744564911723136,-0.17042670928835868,0.05510335346478969
1732873805726272500,10.1272724609375,-0.27150749514997,-0.19526991251334547,0.21922869758661834
1732873805736267500,10.137267578125,-0.5829477722376585,-0.31279329913184045,0.3787648507546633
1732873805746262500,10.147262451171875,-0.6318897900611162,-0.43336423675268887,0.5346113556245342
1732873805756257500,10.157257568359375,-0.4112707706272602,-0.5163375573851168,0.6092091351648792
1732873805766253800,10.16725390625,-0.07970248226821422,-0.5431989685647189,0.6939457026101649
1732873805776248600,10.17724853515625,0.2080699189841747,-0.5361446661390363,0.7051353512749076
1732873805786243600,10.18724365234375,0.33284371512234207,-0.47449981860890983,0.5934818796031177
1732873805796238600,10.197238525390626,0.23027239844202993,-0.47155543572008607,0.4357272395569831
1732873805806234600,10.207234619140625,-0.03736088562309742,-0.4696333816163242,0.4111350519509986
1732873805816229600,10.217229736328125,-0.28337095142304897,-0.3766100838735699,0.37469073318354784
1732873805826224600,10.227224609375,-0.527791117683053,-0.2268205044224858,0.33747831612043083
1732873805836219600,10.2372197265625,-0.8884843782395124,-0.17325769493058324,0.3097106768161058
1732873805846214700,10.247214599609375,-1.1993190906494855,-0.1947933810427785,0.28557017850037664
1732873805856210700,10.257210693359376,-1.4314292259126902,-0.25512597693055866,0.27072313983924684
1732873805866205700,10.267205810546875,-1.55078976483047,-0.1911122083120048,0.2634102230099961
1732873805876200700,10.27720068359375,-1.599483360850811,-0.06952113386318087,0.21680793671309948
1732873805886195700,10.28719580078125,-1.6605325805753468,-0.03890153919383883,0.12099562930632382
1732873805896191500,10.29719140625,-1.795985591638088,-0.02257043598741293,0.024779015414975583
1732873805906186500,10.3071865234375,-1.9527777433276174,0.2573028825782239,-0.0258829215362668
1732873805916181500,10.317181396484376,-2.2270839292854068,0.83239862614125,-0.12514756135400384
1732873805926176500,10.327176513671875,-2.738061859333515,1.4379495675921439,-0.3290202113114297
1732873805936171500,10.337171630859375,-3.4064141248732804,2.005024940176308,-0.4116017926799133
1732873805946167800,10.347167724609376,-4.10487803556025,2.294300877859443,-0.4034419036325067
1732873805956162800,10.357162841796875,-4.48707351835072,2.2276930010944604,-0.5529406834434718
1732873805966157600,10.367157470703125,-4.14491953856945,1.8943460126250982,-0.6827568576630204
1732873805976152600,10.377152587890626,-3.0331717638671396,1.5087940590135753,-0.6414113593831658
1732873805986148600,10.387148681640625,-1.4399217444479464,1.1664612155340612,-0.6171753282710909
1732873805996143600,10.3971435546875,0.2779331442832947,0.8980493483118712,-0.7340327252615243
1732873806006138600,10.407138671875,1.7680542131394146,0.630610563905537,-0.9608183045011013
1732873806016133600,10.417133544921874,2.972118452489376,0.5341410712316632,-1.040660268305242
1732873806026128600,10.427128662109375,3.838260650539398,0.6695002665311097,-1.0586568205058573
1732873806036124700,10.437124755859376,4.260743720054626,0.8949857229575514,-1.1112839565828443
1732873806046119700,10.44711962890625,4.091703496688604,1.2998698612876236,-1.2525263647019862
1732873806056114700,10.45711474609375,3.4936516788214442,1.678214075477421,-1.3343221659876405
1732873806066109700,10.467109619140626,2.482898765262961,1.9057045881159602,-1.1479976303435862
1732873806076105500,10.47710546875,1.2471563621014357,2.101780117923766,-0.8858744149368256
1732873806086100500,10.4871005859375,0.053963645377755165,2.0668800694562495,-0.6455901794377714
1732873806096095500,10.497095458984376,-0.8774971202790737,1.7785447736240922,-0.5557097097653896
1732873806106090500,10.507090576171874,-1.3536141648262738,1.3810912236861883,-0.4673228396516293
1732873806116085500,10.51708544921875,-1.2732318836003542,1.1042537656851112,-0.29305710018966347
1732873806126081800,10.527081787109376,-0.7358166130036116,0.8851736462563276,-0.16009239881131798
1732873806136076800,10.537076904296875,-0.024827567264437675,0.5976891220346093,-0.12947039298918098
1732873806146071600,10.547071533203125,0.6602613135427237,0.2904069875396788,-0.098582575837709
1732873806156066600,10.557066650390626,1.213245909193158,0.019136516015976667,0.07597155211158096
1732873806166062600,10.5670625,1.5670353817105291,-0.20200594277009368,0.24837924261670558
1732873806176057600,10.5770576171875,1.6821990534603595,-0.2621653740480542,0.3986406773632392
1732873806186052600,10.587052490234376,1.5106851334571838,-0.34336014070063825,0.5819175889397039
1732873806196047600,10.597047607421874,1.3083692479550837,-0.2901227637708187,0.7815484366089105
1732873806206042600,10.607042724609375,1.1401578766286373,-0.1518510420255363,0.8906156181145459
1732873806216038700,10.61703857421875,0.9110913468450307,-0.04329290602058172,0.9647931264162063
1732873806226033700,10.62703369140625,0.5855500636905432,0.07238382981792092,0.9605285277742892
1732873806236028700,10.637028564453125,0.2409878537237644,0.24479703674837947,1.0118305527273566
1732873806246023700,10.647023681640626,-0.14974106413424015,0.42654096660390495,0.9692707832869142
1732873806256019700,10.657019775390625,-0.5078793795108795,0.6086331253752112,0.7820664691336453
1732873806266014500,10.667014404296875,-0.9617121115356683,0.6312875863842666,0.516609725390002
1732873806276009500,10.677009521484376,-1.300783907392621,0.7852828008316457,0.22839549865424633
1732873806286004500,10.68700439453125,-1.5832675545871258,0.8769543917044996,0.03559365675486624
1732873806295999500,10.69699951171875,-1.6999924843043088,0.9417851757943629,-0.08508220254518091
1732873806305995800,10.706995849609376,-1.727926200890541,1.0644982400104404,-0.13733816722221673
1732873806315990800,10.71699072265625,-1.7591057675302029,1.095305173945427,-0.14240425497274845
1732873806325985800,10.72698583984375,-1.7565403009563683,0.9616402153432368,-0.2295869003959
1732873806335980500,10.73698046875,-1.6503537163883446,0.704705435425043,-0.31933113993536677
1732873806345976600,10.7469765625,-1.3399012812942266,0.4487286868840456,-0.350428362053819
1732873806355971600,10.7569716796875,-0.7745330048888921,0.3753106917127967,-0.252504615451023
1732873806365966600,10.766966552734376,-0.14394085342288016,0.5507964379563928,-0.04899736473988742
1732873806375961600,10.776961669921874,0.35558804637193675,0.9942292103894055,0.15730284115802495
1732873806385956600,10.78695654296875,0.4472030847519636,1.4922554505363106,0.4038712714930996
1732873806395952600,10.79695263671875,0.0620528438091278,1.8267168299883603,0.640779637350887
1732873806405947600,10.80694775390625,-0.5043740017384291,2.0251411148793994,0.8436440235812217
1732873806415942700,10.816942626953125,-1.0419050076693295,2.0482807290568945,0.9955313790291547
1732873806425937700,10.826937744140626,-1.2233651521474123,1.9607693266034125,1.0651357341963796
1732873806435933700,10.83693359375,-0.9899328283697366,1.7175164505571126,1.0921648300930857
1732873806445928400,10.846928466796875,-0.3694342008948326,1.5373339247994124,1.119039100754261
1732873806455923500,10.85692333984375,0.3945400005787611,1.3205690965756773,1.1683843656163662
1732873806465918700,10.866918701171874,1.0362789844810962,1.1769696039363742,1.27439142889902
1732873806475913700,10.876913818359375,1.531815015247464,1.07280268862769,1.2654909140847623
1732873806485910000,10.886909912109376,1.734367632114887,1.0281953390076757,1.2651621205218135
1732873806495905000,10.896905029296875,1.7010972306758165,1.0235371379382907,1.2852981689691543
1732873806505900000,10.906900146484375,1.4854004700750112,1.107466736382246,1.3272636257782577
1732873806515894800,10.916894775390626,1.0903969436377285,1.086457266101241,1.2942660499311982
1732873806525889800,10.926889892578124,0.5894441485196351,1.0951165195055306,1.2720780373901128
1732873806535885800,10.9368857421875,0.12579437135756016,1.2203633399829268,1.267473904595524
1732873806545880800,10.946880859375,-0.282345115506649,1.2347615754306316,1.0924317374009638
1732873806555875800,10.956875732421874,-0.6163046829164028,1.1696411607444286,0.9155242147259414
1732873806565870800,10.966870849609375,-0.8386474574029446,1.139805994451046,0.7824892245903611
1732873806575867000,10.976866943359376,-0.9783452664285898,1.131613043384254,0.6256516263239086
1732873806585862000,10.98686181640625,-1.0140881954610348,1.0778031272634863,0.49671720337495207
1732873806595857000,10.99685693359375,-0.9564175122588873,1.0131656737886368,0.4350045878382399
1732873806605852000,11.006851806640626,-0.8702659999817609,0.9611996319688856,0.4372396899465471
1732873806615847000,11.016846923828124,-0.8049795810788869,0.8694495690323412,0.46073432810679077
1732873806625842700,11.0268427734375,-0.7180214285939931,0.8162405414141715,0.58101928839311
1732873806635837700,11.036837646484376,-0.6499450867116451,0.7326122640043496,0.7285902419466525
1732873806645832700,11.046832763671874,-0.5531102678567171,0.6473050935968756,0.9014283962909132
1732873806655827700,11.05682763671875,-0.42925124847590923,0.6123055302776396,1.2484477170862256
1732873806665824000,11.066823974609376,-0.3040262014389038,0.6257254222124815,1.6287945032700895
1732873806675819000,11.076819091796875,-0.15973288131654262,0.7155053541198373,1.9307878837071357
1732873806685814000,11.08681396484375,-0.04112286850512027,0.7372478148505092,2.2524719069115817
1732873806695808800,11.096808837890626,0.03949906669557094,0.7121415767751633,2.5643206186696887
1732873806705803800,11.1068037109375,0.02315115848481655,0.8363290974579751,2.787377678905427
1732873806715799800,11.1167998046875,-0.03080956428349018,0.9069007632873952,2.882126339136064
1732873806725794800,11.126794921875,-0.1979880854308605,0.9867376855902373,3.0226734584674237
1732873806735789800,11.136789794921874,-0.4661462701529264,1.07307785230726,3.1015453351303934
1732873806745784800,11.146784912109375,-0.7349696407854557,1.0987732884474097,3.0778745366856453
1732873806755780900,11.15678076171875,-0.9063783468484878,1.0622028225496412,3.0082369368359445
1732873806765776000,11.16677587890625,-0.9454548042178154,1.0264074326775967,2.919399546475708
1732873806775771000,11.17677099609375,-0.8305793017596006,1.0579334746673703,2.827890306557715
1732873806785766000,11.186765869140626,-0.6631447600245476,1.0866410982355474,2.685323956358433
1732873806795761000,11.196760986328124,-0.606236877888441,1.1007416659109295,2.4888135422646998
1732873806805757000,11.2067568359375,-0.6926987712889909,1.0840390990436077,2.246121222710609
1732873806815751700,11.216751708984376,-0.7321247727483511,1.1457856533825397,2.0213697796471415
1732873806825746700,11.22674658203125,-0.5786573815673589,1.3025779512025415,1.7679998526036738
1732873806835741700,11.23674169921875,-0.36570144410729405,1.4094691769085823,1.3922458010375498
1732873806845736700,11.24673681640625,-0.20358312895894048,1.4843743418976663,1.0691302837252616
1732873806855733000,11.25673291015625,-0.06205109024345874,1.5986778896868228,0.8333964780721813
1732873806865728000,11.26672802734375,-0.036647768917679784,1.7153109033368528,0.605418620308116
1732873806875723000,11.276722900390626,-0.11334990032613276,1.7965386954762042,0.41185123739633706
1732873806885717800,11.2867177734375,-0.14974866291880606,1.833869624352455,0.3446365173120051
1732873806895713800,11.2967138671875,-0.10528700537979602,1.7907871462121605,0.2419918066019192
1732873806905708800,11.306708740234376,0.06620820992290974,1.6734575286000966,0.15733451493792236
1732873806915703800,11.316703857421874,0.33393443296849723,1.5857237155675887,0.15269352073166517
1732873806925698800,11.32669873046875,0.5413035102069378,1.5324826853759586,0.2572734738206491
1732873806935693800,11.33669384765625,0.6744914989471436,1.530665406820923,0.3287932341551408
1732873806945689900,11.34668994140625,0.7945435272604227,1.5477765544891358,0.328842516656965
1732873806955684900,11.356684814453125,0.7706593783259391,1.487291982910037,0.30653113346453753
1732873806965679900,11.366679931640626,0.6940408335477113,1.4367393150195478,0.2815941875414923
1732873806975675000,11.3766748046875,0.6093997258335352,1.4369650865994392,0.2441391208289191
1732873806985671000,11.3866708984375,0.6162298641145229,1.3424755156964063,0.19561825102698058
1732873806995665700,11.396665771484376,0.7102233220636844,1.2194589384891092,0.17635061944462357
1732873807005660700,11.40666064453125,0.9172978002697229,1.0906738608829676,0.1503934270957485
1732873807015655700,11.41665576171875,1.2259142521083355,0.9785152161680162,0.12707005384918302
1732873807025650700,11.426650634765625,1.496523337113857,0.8485656248271465,0.15439729244224726
1732873807035647000,11.43664697265625,1.5976362716794013,0.7118531152226031,0.32503687729630615
1732873807045642000,11.44664208984375,1.489544730272889,0.6680977062568068,0.42701340642124413
1732873807055637000,11.456636962890625,1.1664935103684664,0.7285309860400855,0.5365051700145006
1732873807065631700,11.4666318359375,0.5648965672403574,0.7826508448928594,0.636581601139158
1732873807075626800,11.476626708984375,-0.05722410847842693,0.8188416638232767,0.6834872177641839
1732873807085622800,11.486622802734376,-0.5956640459477901,0.8902148552939295,0.713379082680866
1732873807095617800,11.49661767578125,-1.0629331826508044,0.9743741708405316,0.6336538771241903
1732873807105612800,11.50661279296875,-1.361681735947728,1.0480790201291441,0.480281397685036
1732873807115607800,11.51660791015625,-1.5037538728892803,1.1283385517582296,0.34232221248764544
1732873807125603800,11.526603759765624,-1.5705577106177806,1.2018034548111258,0.15011910366639494
1732873807135598800,11.536598876953125,-1.5758867966860532,1.2093905489392578,0.025585619090124963
1732873807145593900,11.54659375,-1.4782675494551658,1.1199518316850066,-0.011205686484090984
1732873807155588900,11.5565888671875,-1.2732353907316922,1.0368560537166893,-0.006839417565986513
1732873807165584000,11.566583984375,-1.030693293303251,1.0162506341919302,-0.056531815365329384
1732873807175580000,11.576579833984376,-0.7146282790243625,0.9947324837364255,-0.21816059343107044
1732873807185574700,11.58657470703125,-0.42138007670938965,0.9667831311896443,-0.38046537106223405
1732873807195569700,11.596569580078125,-0.17779168509840965,0.9739445472516118,-0.5137766573885455
1732873807205564700,11.606564697265625,-0.0011567688196897506,0.9475906472027301,-0.5750051061375067
1732873807215560000,11.616559814453124,0.0953583165615797,0.9438386011928319,-0.476228249836713
1732873807225556000,11.626555908203125,0.10681962177455424,0.9197029617153107,-0.33728147837407885
1732873807235551000,11.636551025390625,0.16616262210309504,0.978658277900517,-0.23196718312855807
1732873807245546000,11.6465458984375,0.2767418886721134,1.1011802034586666,-0.23682901701126247
1732873807255540700,11.656540771484375,0.3192529966652393,1.2011305239856243,-0.2517788036608137
1732873807265536800,11.666536865234375,0.28098668663501736,1.2743212862722575,-0.15758965874277053
1732873807275531800,11.67653173828125,0.2018359930306673,1.3543778426751494,-0.1807584990147501
1732873807285526800,11.68652685546875,0.07877718411684036,1.4445334760271011,-0.31842757869176563
1732873807295521800,11.696521728515625,-0.011951134556531906,1.5742985045813023,-0.4358083419691771
1732873807305517000,11.70651708984375,-0.03703881406188011,1.7842346558287738,-0.5452241542493924
1732873807315512800,11.716512939453125,-0.14161445630192757,1.8610348407842219,-0.688503876882419
1732873807325507800,11.7265078125,-0.19424597629308699,1.8645866880469024,-0.8647855958092957
1732873807335502800,11.7365029296875,-0.31187399232983587,1.8162142868049442,-0.9367405326906592
1732873807345497900,11.746497802734375,-0.5296610032081603,1.7723728069908915,-0.9670475542794913
1732873807355492900,11.756492919921875,-0.6936135480463504,1.7405162178725002,-1.030825249119848
1732873807365488600,11.766488525390624,-0.8265209662795067,1.6241723964273929,-1.105922794875875
1732873807375483600,11.776483642578125,-1.0084662639260291,1.5204213684432208,-1.1840073205534367
1732873807385478700,11.786478759765625,-1.1361644230782986,1.476882086446136,-1.2635353961028157
1732873807395474000,11.796473876953126,-1.1263280887186526,1.4316744328454136,-1.325090081131458
1732873807405470000,11.806469970703125,-1.086332178416848,1.471459915266931,-1.3432635973341762
1732873807415465000,11.81646484375,-1.134723576620221,1.5396756656199693,-1.4165738943472503
1732873807425460000,11.8264599609375,-1.3097095566481352,1.6313057554386554,-1.4527451317943632
1732873807435454700,11.836454833984375,-1.498461611700058,1.7201356931447982,-1.4926421117663382
1732873807445449700,11.84644970703125,-1.541347398224473,1.7711714683771131,-1.5666662561371922
1732873807455445800,11.85644580078125,-1.3786486528396606,1.7365417612835763,-1.721352083197236
1732873807465440800,11.866440673828125,-1.0088064556658267,1.6173054332673549,-1.6744215513266623
1732873807475436300,11.876436279296875,-0.5165975234955549,1.470295401532203,-1.5091365888409316
1732873807485431300,11.886431396484374,-0.12106792735755442,1.3325436120077967,-1.3282806938663125
1732873807495427000,11.896427001953125,0.1125865147382021,1.2502312395021318,-1.0985052120957524
1732873807505422000,11.906422119140625,0.23341829525232313,1.233242403039336,-0.8344294013164937
1732873807515417000,11.9164169921875,0.17381459816098213,1.2170822724856436,-0.5816809306396171
1732873807525412400,11.926412353515625,0.06654547905325889,1.2572339578710496,-0.42371893145311623
1732873807535407400,11.936407470703125,0.0013426467806100845,1.321706430042535,-0.327839184833318
1732873807545403100,11.946403076171874,0.014465163204073905,1.3982318897098303,-0.36627734429910774
1732873807555398100,11.956398193359375,0.07008008292019367,1.4605974527299403,-0.3914368103990331
1732873807565393200,11.96639306640625,0.22646423833072185,1.4584204009518027,-0.36028771196287124
1732873807575388200,11.97638818359375,0.3744137428730726,1.4481621879182756,-0.317839914996922
1732873807585383200,11.986383056640625,0.44169396594166754,1.4658034969404339,-0.2344704711863771
1732873807595379200,11.996379150390625,0.4129267211407423,1.525576705379784,-0.14275891362931578
1732873807605374200,12.006374267578124,0.25491116513609885,1.5389420906484126,-0.05996167564957868
1732873807615369200,12.016369140625,0.1066033486753702,1.524308292879164,-0.03974252006262541
1732873807625364200,12.0263642578125,-0.005206336471438407,1.474145208828151,-0.014658142192638479
1732873807635359200,12.036359130859376,-0.035300445961952205,1.3695814031563698,0.045429566422826605
1732873807645355300,12.046355224609375,0.009476268875598907,1.2255392082508654,0.11559272908316924
1732873807655350300,12.056350341796875,0.1266378364443779,1.082887590920925,0.11517103307237848
1732873807665345300,12.06634521484375,0.34704584347605705,0.9704942606672644,0.11591653594374655
1732873807675340300,12.07634033203125,0.5736129576593637,0.924586569038406,0.16279689026335253
1732873807685336000,12.086336181640625,0.7306541156738996,0.9055507369179278,0.22181401963839306
1732873807695331300,12.096331298828124,0.6845294933587313,0.9082512280482798,0.18893689183322712
1732873807705326300,12.106326416015625,0.5410077421307563,0.859498741447553,0.1951310154993087
1732873807715321300,12.1163212890625,0.3007189765870571,0.7504501185119151,0.24260948184253647
1732873807725316400,12.12631640625,0.05427168841361999,0.5756017203237861,0.2082446544965729
1732873807735312100,12.13631201171875,-0.18746259976327417,0.45943069816231724,0.13932324009221048
1732873807745307100,12.14630712890625,-0.4694377129137516,0.29845987254865464,-0.09467818881031126
1732873807755302100,12.15630224609375,-0.7949217129230499,0.13210896133184433,-0.484161600119248
1732873807765297200,12.166297119140625,-1.0244932696193456,-0.005817088780924677,-0.9278462284214795
1732873807775293200,12.176293212890625,-1.3184095804542302,-0.011390797260031104,-1.3916849522843957
1732873807785288400,12.186288330078124,-1.5514970363169907,-0.06716368401683867,-1.8437394225902854
1732873807795283200,12.196283203125,-1.6274550713598728,-0.5059856747187673,-2.24174154632166
1732873807805278200,12.2062783203125,-1.5628718322902917,-1.14688302016519,-2.5203102120295164
1732873807815273200,12.216273193359376,-1.11394966866076,-1.0807521132621913,-1.823344577076286
1732873807825269200,12.226269287109375,-0.6054506959468126,-0.7169370674233884,-0.655109337607026
1732873807835264300,12.23626416015625,-0.3340893312692642,-0.2596251149807125,0.4776738455351442
1732873807845259300,12.24625927734375,-0.17260931402444837,0.2096095496416092,1.287626319655776
1732873807855254300,12.256254150390625,-0.1558732832789421,0.5433334085993469,1.6075262359224258
1732873807865249300,12.266249267578125,-0.19677987868487834,0.7071174650028348,1.5973215066418052
1732873807875245300,12.276245361328124,-0.26918928133547304,0.6903636063396931,1.3619986929424106
1732873807885240300,12.286240234375,-0.3237204974681139,0.35137671228721734,0.6769621999096125
1732873807895235300,12.2962353515625,-0.09106851041316985,0.17314385929256676,0.10246581047922372
1732873807905230300,12.306230224609376,0.24168226572871207,0.08836429295577108,-0.1472219574527815
1732873807915225300,12.316225341796875,0.48197453840374943,-0.05775814228989184,-0.46439708839803934
1732873807925221000,12.32622119140625,0.6763584618628025,-0.13746179360188543,-0.5577954299982637
1732873807935216000,12.336216064453126,0.7476257087409496,-0.20889095304347574,-0.659341641414538
1732873807945211100,12.346211181640625,0.6838216373503208,-0.31650077534765003,-0.9721304835669696
1732873807955206100,12.3562060546875,0.688142423158884,-0.36494945669621226,-1.2197229962527751
1732873807965202400,12.366202392578124,0.6725128923505544,-0.5997546762622893,-1.4660691621392965
1732873807975197400,12.376197509765625,0.6878209361195564,-0.6994250838693231,-1.393644269658625
1732873807985192200,12.386192138671875,0.6947504431217908,-0.8090938845299184,-1.4242832996807993
1732873807995187200,12.396187255859376,0.5868289975851774,-0.6352034446537494,-1.2960451884329318
1732873808005182200,12.40618212890625,0.42457273527085776,-0.17052366685681045,-0.891407572209835
1732873808015178200,12.41617822265625,0.0968354033768177,0.11840031558349728,-0.7659120376683771
1732873808025173200,12.42617333984375,-0.39953941630125045,0.30027663964703677,-0.7400039086256176
1732873808035168300,12.436168212890625,-0.8720043680816888,0.4187948825217783,-0.6582317804764956
1732873808045163300,12.446163330078125,-1.205551263037324,0.46922158594504,-0.5454365183584392
1732873808055158000,12.456157958984376,-1.2396335653811692,0.3995546869356185,-0.39628004917912185
1732873808065154300,12.466154296875,-0.9751315650790929,0.269707752251625,-0.3018014928604476
1732873808075149300,12.4761494140625,-0.5012894797265529,0.07552607336640357,-0.2478042192077264
1732873808085144300,12.486144287109376,-0.006975099709630012,-0.11120813905708492,-0.14608254162669182
1732873808095139300,12.496139404296875,0.44232349601686,-0.2444442777879536,-0.051009773141378535
1732873808105134300,12.50613427734375,0.7776689648270606,-0.3770497173998505,0.0033140290519688277
1732873808115130000,12.516130126953126,1.0686042140245438,-0.5002788413792848,0.06650173124307766
1732873808125125000,12.526125,1.1716308732569216,-0.5886116432182491,0.10492875739349983
1732873808135120100,12.5361201171875,1.0714075810074806,-0.6168830673262476,0.10210611945451237
1732873808145115100,12.546115234375,0.7985498402923346,-0.6217301420312374,0.09632564549008384
1732873808155111400,12.556111328125,0.3618728257298469,-0.55147061089091,0.04805477752699516
1732873808165106200,12.566106201171875,-0.051987961390614505,-0.4391325910210609,-0.04274751056488603
1732873808175101200,12.57610107421875,-0.32745617686510087,-0.27930750137642024,-0.11231933343568816
