time,seconds_elapsed,z,y,x
1732873795706058500,0.10705859375,-0.9877471923828125,-0.182891845703125,-0.0046234130859375
1732873795716053500,0.117053466796875,-0.9989013671875,-0.1834716796875,-0.005157470703125
1732873795726048500,0.127048583984375,-1.010528564453125,-0.182373046875,-0.0053863525390625
1732873795736044300,0.137044189453125,-1.019012451171875,-0.1764068603515625,-0.00439453125
1732873795746039300,0.147039306640625,-1.025146484375,-0.1700286865234375,-0.0053558349609375
1732873795756034300,0.157034423828125,-1.026031494140625,-0.169830322265625,-0.0048675537109375
1732873795766029300,0.167029296875,-1.02105712890625,-0.1756744384765625,-0.00335693359375
1732873795776024600,0.177024658203125,-1.008880615234375,-0.1784820556640625,-0.0041656494140625
1732873795786020600,0.1870205078125,-0.9965057373046875,-0.178558349609375,-0.0037841796875
1732873795796015600,0.197015625,-0.98779296875,-0.1794891357421875,-0.003814697265625
1732873795806010400,0.20701025390625,-0.9806060791015625,-0.1815643310546875,-0.0059051513671875
1732873795816005400,0.21700537109375,-0.9761199951171875,-0.1833648681640625,-0.0084228515625
1732873795826000400,0.22700048828125,-0.9734344482421875,-0.1851348876953125,-0.0119171142578125
1732873795835996400,0.236996337890625,-0.96868896484375,-0.1866455078125,-0.01397705078125
1732873795845991400,0.246991455078125,-0.96527099609375,-0.184722900390625,-0.0149078369140625
1732873795855986400,0.256986328125,-0.9663848876953125,-0.1826171875,-0.0160369873046875
1732873795865981700,0.266981689453125,-0.9749298095703125,-0.18499755859375,-0.014129638671875
1732873795875976400,0.2769765625,-0.98236083984375,-0.18206787109375,-0.01263427734375
1732873795885972500,0.286972412109375,-0.9892730712890625,-0.1749420166015625,-0.0088043212890625
1732873795895967500,0.296967529296875,-0.9973297119140625,-0.170318603515625,-0.0120697021484375
1732873795905962500,0.30696240234375,-1.0046539306640625,-0.167755126953125,-0.013427734375
1732873795915957500,0.31695751953125,-1.0061798095703125,-0.166839599609375,-0.0095367431640625
1732873795925953300,0.326953369140625,-1.0026397705078125,-0.16888427734375,-0.0066070556640625
1732873795935948300,0.3369482421875,-0.9958648681640625,-0.169830322265625,-0.00433349609375
1732873795945943300,0.346943359375,-0.990447998046875,-0.17431640625,-0.0081024169921875
1732873795955938600,0.3569384765625,-0.99017333984375,-0.175750732421875,-0.0089874267578125
1732873795965933600,0.36693359375,-0.9882354736328125,-0.1777191162109375,-0.01043701171875
1732873795975929600,0.3769296875,-0.98760986328125,-0.179046630859375,-0.009918212890625
1732873795985924600,0.386924560546875,-0.98724365234375,-0.180328369140625,-0.007415771484375
1732873795995919400,0.39691943359375,-0.982391357421875,-0.18414306640625,-0.0045166015625
1732873796005914400,0.406914306640625,-0.980133056640625,-0.1855010986328125,-0.0027008056640625
1732873796015909400,0.416909423828125,-0.9825592041015625,-0.1844940185546875,-0.0028076171875
1732873796025905400,0.426905517578125,-0.989410400390625,-0.1816558837890625,0.00018310546875
1732873796035900400,0.436900390625,-0.9947662353515625,-0.1771697998046875,0.009063720703125
1732873796045895700,0.446895751953125,-0.9980926513671875,-0.1737823486328125,0.0138397216796875
1732873796055890700,0.456890625,-0.993133544921875,-0.174957275390625,0.010040283203125
1732873796065885400,0.466885498046875,-0.9868011474609375,-0.17218017578125,0.013671875
1732873796075881500,0.476881591796875,-0.98260498046875,-0.1729278564453125,0.0159149169921875
1732873796085876500,0.48687646484375,-0.9774627685546875,-0.1783447265625,0.0084991455078125
1732873796095871500,0.49687158203125,-0.9743804931640625,-0.18035888671875,0.0043792724609375
1732873796105866500,0.506866455078125,-0.9722747802734375,-0.1808319091796875,0.00091552734375
1732873796115861500,0.516861572265625,-0.9785614013671875,-0.1805877685546875,0.0000762939453125
1732873796125857300,0.526857177734375,-0.984130859375,-0.1839752197265625,0.00213623046875
1732873796135852500,0.5368525390625,-0.9869384765625,-0.180267333984375,0.0025482177734375
1732873796145847600,0.54684765625,-0.98858642578125,-0.181304931640625,0.0021820068359375
1732873796155842600,0.556842529296875,-0.9861907958984375,-0.1855926513671875,0.0011749267578125
1732873796165837600,0.566837646484375,-0.9803009033203125,-0.185699462890625,-0.0037841796875
1732873796175833300,0.576833251953125,-0.972503662109375,-0.1838531494140625,-0.00732421875
1732873796185828400,0.586828369140625,-0.9713287353515625,-0.186309814453125,-0.0037078857421875
1732873796195823400,0.5968232421875,-0.9749755859375,-0.189300537109375,-0.0056610107421875
1732873796205818400,0.606818359375,-0.9774627685546875,-0.189239501953125,-0.0048828125
1732873796215814400,0.616814453125,-0.9773406982421875,-0.187957763671875,-0.0017852783203125
1732873796225809700,0.6268095703125,-0.977813720703125,-0.187774658203125,-0.00091552734375
1732873796235804700,0.6368046875,-0.9776153564453125,-0.1861572265625,0.001922607421875
1732873796245799400,0.64679931640625,-0.9786834716796875,-0.186767578125,0.004180908203125
1732873796255794400,0.65679443359375,-0.98095703125,-0.19036865234375,-0.002471923828125
1732873796265790500,0.66679052734375,-0.983306884765625,-0.195220947265625,-0.0097198486328125
1732873796275785500,0.676785400390625,-0.9818572998046875,-0.203155517578125,-0.018768310546875
1732873796285780500,0.686780517578125,-0.9802703857421875,-0.2073211669921875,-0.024566650390625
1732873796295775500,0.696775390625,-0.977020263671875,-0.2108306884765625,-0.02789306640625
1732873796305770500,0.7067705078125,-0.975921630859375,-0.211669921875,-0.0249481201171875
1732873796315766500,0.7167666015625,-0.9816741943359375,-0.2107391357421875,-0.0178070068359375
1732873796325761500,0.726761474609375,-0.987457275390625,-0.2080535888671875,-0.006622314453125
1732873796335756500,0.736756591796875,-0.9949188232421875,-0.210723876953125,0.00140380859375
1732873796345751600,0.74675146484375,-0.9956207275390625,-0.2157745361328125,0.0019989013671875
1732873796355747600,0.75674755859375,-0.991546630859375,-0.213623046875,0.000335693359375
1732873796365742300,0.766742431640625,-0.9849700927734375,-0.2126007080078125,-0.0029449462890625
1732873796375737300,0.7767373046875,-0.980224609375,-0.2081146240234375,-0.0055694580078125
1732873796385732400,0.786732421875,-0.9770355224609375,-0.2075347900390625,-0.0099945068359375
1732873796395727400,0.796727294921875,-0.9850311279296875,-0.209716796875,-0.0236358642578125
1732873796405723600,0.8067236328125,-0.9936981201171875,-0.2051239013671875,-0.0382232666015625
1732873796415718700,0.81671875,-0.9967803955078125,-0.1951141357421875,-0.04461669921875
1732873796425713700,0.826713623046875,-1.004791259765625,-0.191986083984375,-0.05316162109375
1732873796435708400,0.83670849609375,-1.0105438232421875,-0.1903076171875,-0.0612335205078125
1732873796445704400,0.846704345703125,-1.0175628662109375,-0.1909637451171875,-0.0740509033203125
1732873796455699500,0.856699462890625,-1.0211029052734375,-0.189117431640625,-0.0831298828125
1732873796465694500,0.866694580078125,-1.0215606689453125,-0.192596435546875,-0.0868988037109375
1732873796475689500,0.876689453125,-1.0167388916015625,-0.1967315673828125,-0.090789794921875
1732873796485684500,0.8866845703125,-1.0109100341796875,-0.19708251953125,-0.10015869140625
1732873796495680500,0.896680419921875,-1.010650634765625,-0.196441650390625,-0.117401123046875
1732873796505675500,0.906675537109375,-1.0095367431640625,-0.1920928955078125,-0.1294708251953125
1732873796515670500,0.91667041015625,-1.0053253173828125,-0.1710662841796875,-0.1197509765625
1732873796525665500,0.92666552734375,-0.99737548828125,-0.1322174072265625,-0.08782958984375
1732873796535661600,0.93666162109375,-0.991607666015625,-0.1163177490234375,-0.081756591796875
1732873796545656300,0.94665625,-0.9808197021484375,-0.1237335205078125,-0.0760955810546875
1732873796555651300,0.9566513671875,-0.9621734619140625,-0.1486053466796875,-0.0498046875
1732873796565646300,0.966646240234375,-0.93505859375,-0.1759033203125,-0.0191650390625
1732873796575641300,0.976641357421875,-0.8916015625,-0.2103729248046875,0.026580810546875
1732873796585637600,0.9866376953125,-0.8401641845703125,-0.250946044921875,0.057647705078125
1732873796595632600,0.996632568359375,-0.81451416015625,-0.2555084228515625,0.033416748046875
1732873796605627600,1.006627685546875,-0.8073577880859375,-0.27081298828125,0.0038909912109375
1732873796615622400,1.016622314453125,-0.811492919921875,-0.2911376953125,-0.0103607177734375
1732873796625618400,1.026618408203125,-0.822967529296875,-0.291351318359375,-0.0053253173828125
1732873796635613400,1.036613525390625,-0.87506103515625,-0.2644500732421875,0.015655517578125
1732873796645608400,1.0466083984375,-0.945648193359375,-0.188507080078125,0.069549560546875
1732873796655603500,1.056603515625,-0.913787841796875,-0.16827392578125,0.1274566650390625
1732873796665598500,1.066598388671875,-0.917388916015625,-0.1560516357421875,0.14471435546875
1732873796675594500,1.076594482421875,-0.9493255615234375,-0.113128662109375,0.141937255859375
1732873796685589500,1.086589599609375,-0.9847564697265625,-0.142608642578125,0.0896759033203125
1732873796695584500,1.09658447265625,-1.0454559326171875,-0.205291748046875,-0.0097198486328125
1732873796705579500,1.10657958984375,-1.1027374267578125,-0.188720703125,-0.032684326171875
1732873796715575600,1.116575439453125,-1.1533203125,-0.1573028564453125,-0.017669677734375
1732873796725570600,1.126570556640625,-1.195709228515625,-0.14886474609375,-0.0158843994140625
1732873796735565300,1.1365654296875,-1.2144622802734375,-0.152252197265625,-0.021881103515625
1732873796745560300,1.146560302734375,-1.19403076171875,-0.1472930908203125,-0.007415771484375
1732873796755555300,1.156555419921875,-1.14886474609375,-0.134918212890625,0.016448974609375
1732873796765551600,1.166551513671875,-1.09051513671875,-0.131744384765625,0.0191192626953125
1732873796775546600,1.176546630859375,-1.0256195068359375,-0.1498870849609375,-0.00262451171875
1732873796785541600,1.186541748046875,-0.9866180419921875,-0.1718292236328125,-0.0393218994140625
1732873796795536600,1.19653662109375,-0.9605712890625,-0.204315185546875,-0.08966064453125
1732873796805532400,1.206532470703125,-0.9580078125,-0.238861083984375,-0.145263671875
1732873796815527400,1.21652734375,-0.9649505615234375,-0.258270263671875,-0.194091796875
1732873796825522400,1.2265224609375,-0.9763336181640625,-0.2639923095703125,-0.2311859130859375
1732873796835517400,1.236517333984375,-0.981231689453125,-0.2621002197265625,-0.2472686767578125
1732873796845512400,1.246512451171875,-0.9715576171875,-0.232025146484375,-0.226165771484375
1732873796855508500,1.256508544921875,-0.9407501220703125,-0.1583404541015625,-0.1440277099609375
1732873796865503500,1.26650341796875,-0.918914794921875,-0.1616973876953125,-0.12860107421875
1732873796875498500,1.27649853515625,-0.906707763671875,-0.1674041748046875,-0.1357421875
1732873796885493500,1.286493408203125,-0.890594482421875,-0.1334228515625,-0.1191253662109375
1732873796895489500,1.296489501953125,-0.8915557861328125,-0.09564208984375,-0.11614990234375
1732873796905484500,1.306484619140625,-0.9186248779296875,-0.05413818359375,-0.1221771240234375
1732873796915479300,1.316479248046875,-0.9749908447265625,-0.0109100341796875,-0.11767578125
1732873796925474300,1.326474365234375,-1.0435028076171875,0.018280029296875,-0.103302001953125
1732873796935469600,1.336469482421875,-1.1095123291015625,0.03662109375,-0.08624267578125
1732873796945465600,1.346465576171875,-1.1556243896484375,0.034698486328125,-0.06884765625
1732873796955460600,1.356460693359375,-1.1654052734375,0.01776123046875,-0.0582122802734375
1732873796965455600,1.36645556640625,-1.128662109375,0.0011138916015625,-0.04718017578125
1732873796975450600,1.37645068359375,-1.0573577880859375,-0.0158843994140625,-0.0340423583984375
1732873796985446400,1.3864462890625,-0.9866485595703125,-0.033172607421875,-0.0242919921875
1732873796995441400,1.39644140625,-0.9320526123046875,-0.051910400390625,-0.0165863037109375
1732873797005436400,1.4064365234375,-0.8997955322265625,-0.069549560546875,-0.012939453125
1732873797015431400,1.416431396484375,-0.8895111083984375,-0.0827789306640625,-0.0056915283203125
1732873797025426700,1.4264267578125,-0.904998779296875,-0.0907135009765625,-0.0067596435546875
1732873797035422500,1.43642236328125,-0.9294281005859375,-0.1035308837890625,-0.0085601806640625
1732873797045417500,1.44641748046875,-0.9537811279296875,-0.1132965087890625,-0.0046844482421875
1732873797055412500,1.45641259765625,-0.970123291015625,-0.114410400390625,-0.0029144287109375
1732873797065407500,1.466407470703125,-0.9727630615234375,-0.1114654541015625,-0.0008544921875
1732873797075402500,1.476402587890625,-0.9660186767578125,-0.1090240478515625,0.0001373291015625
1732873797085398500,1.4863984375,-0.9566497802734375,-0.10382080078125,-0.00323486328125
1732873797095393500,1.4963935546875,-0.9564208984375,-0.0881500244140625,-0.0072174072265625
1732873797105388300,1.50638818359375,-0.9593353271484375,-0.0754547119140625,-0.012237548828125
1732873797115383600,1.516383544921875,-0.9713134765625,-0.0663299560546875,-0.02276611328125
1732873797125379600,1.526379638671875,-0.986328125,-0.0508575439453125,-0.04052734375
1732873797135374600,1.53637451171875,-1.0003814697265625,-0.041107177734375,-0.064422607421875
1732873797145369600,1.54636962890625,-1.017822265625,-0.03216552734375,-0.07489013671875
1732873797155364600,1.556364501953125,-1.0338897705078125,-0.0243377685546875,-0.0782012939453125
1732873797165360400,1.5663603515625,-1.0500030517578125,-0.0239105224609375,-0.0699310302734375
1732873797175355400,1.57635546875,-1.05413818359375,-0.029632568359375,-0.04815673828125
1732873797185350400,1.586350341796875,-1.03662109375,-0.03704833984375,-0.031158447265625
1732873797195345400,1.596345458984375,-1.0077667236328125,-0.0484466552734375,-0.0044097900390625
1732873797205340700,1.606340576171875,-0.980743408203125,-0.0633544921875,0.022216796875
1732873797215336400,1.61633642578125,-0.96173095703125,-0.07806396484375,0.044219970703125
1732873797225331500,1.62633154296875,-0.9530792236328125,-0.0950164794921875,0.06878662109375
1732873797235326500,1.636326416015625,-0.951904296875,-0.1137847900390625,0.0875091552734375
1732873797245321500,1.646321533203125,-0.959716796875,-0.128997802734375,0.097900390625
1732873797255317500,1.6563173828125,-0.9668121337890625,-0.1397705078125,0.10260009765625
1732873797265312500,1.6663125,-0.9726104736328125,-0.140350341796875,0.0979156494140625
1732873797275307500,1.6763076171875,-0.9857635498046875,-0.13397216796875,0.0819244384765625
1732873797285302500,1.686302490234375,-1.0058441162109375,-0.1249542236328125,0.0593719482421875
1732873797295297500,1.696297607421875,-1.0405731201171875,-0.113311767578125,0.05218505859375
1732873797305293600,1.70629345703125,-1.0743255615234375,-0.1048736572265625,0.0509490966796875
1732873797315288600,1.71628857421875,-1.1064453125,-0.1053314208984375,0.0540618896484375
1732873797325283600,1.72628369140625,-1.1207122802734375,-0.1136016845703125,0.0534515380859375
1732873797335278600,1.736278564453125,-1.11138916015625,-0.1210784912109375,0.0550384521484375
1732873797345274400,1.7462744140625,-1.0864105224609375,-0.1237945556640625,0.0615692138671875
1732873797355269400,1.756269287109375,-1.053314208984375,-0.1283416748046875,0.0689697265625
1732873797365264400,1.766264404296875,-1.01788330078125,-0.1331787109375,0.0864410400390625
1732873797375259400,1.77625927734375,-0.994873046875,-0.1364593505859375,0.107025146484375
1732873797385254700,1.786254638671875,-0.9850921630859375,-0.1370086669921875,0.1177825927734375
1732873797395250400,1.79625048828125,-0.9828948974609375,-0.1383056640625,0.129486083984375
1732873797405245400,1.806245361328125,-0.9854888916015625,-0.1376800537109375,0.1439208984375
1732873797415240400,1.816240478515625,-0.9939117431640625,-0.137847900390625,0.1548004150390625
1732873797425235500,1.8262353515625,-1.0035247802734375,-0.1360321044921875,0.164276123046875
1732873797435231500,1.8362314453125,-1.0138092041015625,-0.1308441162109375,0.1716156005859375
1732873797445226500,1.8462265625,-1.020751953125,-0.12841796875,0.181793212890625
1732873797455221500,1.856221435546875,-1.022796630859375,-0.129638671875,0.1910400390625
1732873797465216500,1.866216552734375,-1.0242919921875,-0.1349945068359375,0.1936187744140625
1732873797475211500,1.87621142578125,-1.014984130859375,-0.145263671875,0.1942138671875
1732873797485207800,1.886207763671875,-0.9940643310546875,-0.1596221923828125,0.1927642822265625
1732873797495202800,1.896202880859375,-0.9667816162109375,-0.1740875244140625,0.190185546875
1732873797505197800,1.90619775390625,-0.9383697509765625,-0.181610107421875,0.1905059814453125
1732873797515192800,1.91619287109375,-0.9163055419921875,-0.1856536865234375,0.184783935546875
1732873797525188600,1.926188720703125,-0.90472412109375,-0.18585205078125,0.1754150390625
1732873797535183600,1.93618359375,-0.905670166015625,-0.1840362548828125,0.1720428466796875
1732873797545178600,1.9461787109375,-0.91180419921875,-0.1805877685546875,0.17193603515625
1732873797555173600,1.956173583984375,-0.921844482421875,-0.17779541015625,0.166259765625
1732873797565170000,1.966169921875,-0.93670654296875,-0.181243896484375,0.15869140625
1732873797575164700,1.97616455078125,-0.9478607177734375,-0.1857147216796875,0.148529052734375
1732873797585159700,1.98615966796875,-0.9508819580078125,-0.1933441162109375,0.139312744140625
1732873797595154700,1.99615478515625,-0.942901611328125,-0.207794189453125,0.133148193359375
1732873797605149700,2.006149658203125,-0.927032470703125,-0.22052001953125,0.1240081787109375
1732873797615145700,2.016145751953125,-0.9120635986328125,-0.2370452880859375,0.1089324951171875
1732873797625140700,2.026140625,-0.9004669189453125,-0.2510528564453125,0.09136962890625
1732873797635135700,2.0361357421875,-0.8957366943359375,-0.2642974853515625,0.0766754150390625
1732873797645130800,2.046130859375,-0.9025726318359375,-0.2795562744140625,0.070556640625
1732873797655126800,2.056126708984375,-0.91339111328125,-0.2827911376953125,0.07122802734375
1732873797665121800,2.066121826171875,-0.9295654296875,-0.2891998291015625,0.0755615234375
1732873797675116800,2.07611669921875,-0.94683837890625,-0.2939300537109375,0.07012939453125
1732873797685111800,2.08611181640625,-0.961212158203125,-0.3013153076171875,0.064453125
1732873797695107600,2.096107666015625,-0.9668426513671875,-0.31292724609375,0.0668487548828125
1732873797705102600,2.1061025390625,-0.9681396484375,-0.32861328125,0.07135009765625
1732873797715097600,2.11609765625,-0.9656219482421875,-0.3420867919921875,0.068328857421875
1732873797725092600,2.126092529296875,-0.96075439453125,-0.3420562744140625,0.0728912353515625
1732873797735087600,2.136087646484375,-0.964385986328125,-0.33514404296875,0.0615692138671875
1732873797745084000,2.146083984375,-0.9696807861328125,-0.324005126953125,0.03338623046875
1732873797755079000,2.156078857421875,-0.9801483154296875,-0.3081817626953125,0.0073394775390625
1732873797765073700,2.16607373046875,-1.0095672607421875,-0.2891387939453125,-0.01824951171875
1732873797775068700,2.176068603515625,-1.050872802734375,-0.2757415771484375,-0.0551605224609375
1732873797785064700,2.186064697265625,-1.0910797119140625,-0.2669219970703125,-0.0848846435546875
1732873797795059700,2.196059814453125,-1.118743896484375,-0.2655029296875,-0.10791015625
1732873797805054700,2.2060546875,-1.1414947509765625,-0.2644805908203125,-0.119354248046875
1732873797815049700,2.2160498046875,-1.154327392578125,-0.2693023681640625,-0.1218719482421875
1732873797825045800,2.226045654296875,-1.1548004150390625,-0.2746124267578125,-0.12841796875
1732873797835040800,2.236040771484375,-1.1365814208984375,-0.2758636474609375,-0.1353302001953125
1732873797845035800,2.246035888671875,-1.1044921875,-0.2707977294921875,-0.1377105712890625
1732873797855030800,2.25603076171875,-1.08245849609375,-0.25994873046875,-0.1273193359375
1732873797865025800,2.26602587890625,-1.0927581787109375,-0.2418212890625,-0.099029541015625
1732873797875021800,2.276021728515625,-1.126708984375,-0.2235565185546875,-0.0712432861328125
1732873797885016600,2.2860166015625,-1.155426025390625,-0.214935302734375,-0.056427001953125
1732873797895011600,2.296011474609375,-1.1619415283203125,-0.2040863037109375,-0.050201416015625
1732873797905006600,2.306006591796875,-1.1427459716796875,-0.1859130859375,-0.03173828125
1732873797915003000,2.3160029296875,-1.1060791015625,-0.1864013671875,-0.0071868896484375
1732873797924998000,2.325997802734375,-1.0730133056640625,-0.2264556884765625,0.0058135986328125
1732873797934993000,2.335992919921875,-1.035003662109375,-0.2769317626953125,0.013153076171875
1732873797944987600,2.345987548828125,-1.0070037841796875,-0.3038177490234375,0.018524169921875
1732873797954983700,2.355983642578125,-0.97821044921875,-0.321868896484375,0.0308380126953125
1732873797964978700,2.365978759765625,-0.960906982421875,-0.329986572265625,0.070037841796875
1732873797974973700,2.3759736328125,-0.954742431640625,-0.3366546630859375,0.08514404296875
1732873797984968700,2.38596875,-0.966949462890625,-0.36431884765625,0.0736236572265625
1732873797994963700,2.395963623046875,-0.9795989990234375,-0.3827362060546875,0.0657501220703125
1732873798004959700,2.405959716796875,-0.9937896728515625,-0.4041595458984375,0.0447845458984375
1732873798014954800,2.415954833984375,-1.0115509033203125,-0.4048309326171875,0.0296478271484375
1732873798024949800,2.42594970703125,-1.0377044677734375,-0.370330810546875,0.0290679931640625
1732873798034944800,2.43594482421875,-1.0659637451171875,-0.295928955078125,0.0595703125
1732873798044940800,2.44594091796875,-1.0984649658203125,-0.16693115234375,0.1420440673828125
1732873798054935800,2.455935791015625,-1.144989013671875,-0.11962890625,0.1339263916015625
1732873798064930600,2.4659306640625,-1.199676513671875,-0.0919952392578125,0.0961761474609375
1732873798074925600,2.475925537109375,-1.2454376220703125,-0.0708770751953125,0.088348388671875
1732873798084921600,2.485921630859375,-1.2781829833984375,-0.074462890625,0.0740966796875
1732873798094916900,2.495916748046875,-1.28033447265625,-0.0868682861328125,0.0640869140625
1732873798104912000,2.505911865234375,-1.235504150390625,-0.1000518798828125,0.064239501953125
1732873798114907000,2.515906982421875,-1.1404876708984375,-0.108001708984375,0.0758209228515625
1732873798124902000,2.52590185546875,-1.02020263671875,-0.1247100830078125,0.0939788818359375
1732873798134897700,2.535897705078125,-0.9138946533203125,-0.1280059814453125,0.1151580810546875
1732873798144892700,2.545892578125,-0.8226165771484375,-0.13812255859375,0.1321563720703125
1732873798154887700,2.5558876953125,-0.7640228271484375,-0.139251708984375,0.1406097412109375
1732873798164882700,2.565882568359375,-0.7232818603515625,-0.13818359375,0.162017822265625
1732873798174878700,2.575878662109375,-0.7032012939453125,-0.1469879150390625,0.1872406005859375
1732873798184873700,2.585873779296875,-0.7124786376953125,-0.14813232421875,0.1973114013671875
1732873798194868700,2.59586865234375,-0.7309417724609375,-0.1553955078125,0.1914215087890625
1732873798204863700,2.60586376953125,-0.743194580078125,-0.168212890625,0.1784820556640625
1732873798214859800,2.61585986328125,-0.737701416015625,-0.182861328125,0.1643524169921875
1732873798224854800,2.625854736328125,-0.7294464111328125,-0.2059173583984375,0.1409912109375
1732873798234849800,2.635849853515625,-0.7173614501953125,-0.2200775146484375,0.111480712890625
1732873798244844800,2.6458447265625,-0.6976318359375,-0.2276611328125,0.0970001220703125
1732873798254839600,2.655839599609375,-0.687286376953125,-0.23974609375,0.08929443359375
1732873798264835800,2.6658359375,-0.686767578125,-0.2497100830078125,0.06805419921875
1732873798274830800,2.675830810546875,-0.6978912353515625,-0.2555389404296875,0.0274658203125
1732873798284825900,2.685825927734375,-0.71588134765625,-0.2645721435546875,0.005126953125
1732873798294820900,2.69582080078125,-0.7328338623046875,-0.2777252197265625,-0.011962890625
1732873798304816600,2.705816650390625,-0.7439117431640625,-0.2824249267578125,-0.0361785888671875
1732873798314811600,2.715811767578125,-0.74591064453125,-0.2881622314453125,-0.0555267333984375
1732873798324806700,2.725806640625,-0.7566375732421875,-0.29681396484375,-0.0602569580078125
1732873798334801700,2.7358017578125,-0.77996826171875,-0.3057708740234375,-0.061553955078125
1732873798344797700,2.745797607421875,-0.8145599365234375,-0.3069305419921875,-0.058135986328125
1732873798354793000,2.75579296875,-0.8497467041015625,-0.309173583984375,-0.0529937744140625
1732873798364787700,2.76578759765625,-0.879425048828125,-0.3156890869140625,-0.05169677734375
1732873798374782700,2.77578271484375,-0.8999786376953125,-0.32550048828125,-0.0443878173828125
1732873798384778800,2.78577880859375,-0.9120635986328125,-0.3282928466796875,-0.0188140869140625
1732873798394773800,2.795773681640625,-0.925933837890625,-0.3282470703125,0.0106201171875
1732873798404768800,2.805768798828125,-0.9424285888671875,-0.3253326416015625,0.040679931640625
1732873798414763800,2.815763671875,-0.9637603759765625,-0.3242950439453125,0.063812255859375
1732873798424758800,2.8257587890625,-0.9860687255859375,-0.3176727294921875,0.0836944580078125
1732873798434754600,2.835754638671875,-1.0155181884765625,-0.3124847412109375,0.103759765625
1732873798444749800,2.845749755859375,-1.0530853271484375,-0.3081817626953125,0.1110687255859375
1732873798454744800,2.855744873046875,-1.09912109375,-0.288543701171875,0.112457275390625
1732873798464740000,2.865739990234375,-1.148193359375,-0.2601165771484375,0.1125030517578125
1732873798474735900,2.87573583984375,-1.1894683837890625,-0.2390289306640625,0.1177978515625
1732873798484731100,2.885731201171875,-1.21978759765625,-0.2283935546875,0.1317901611328125
1732873798494726100,2.89572607421875,-1.23504638671875,-0.2320709228515625,0.143280029296875
1732873798504721200,2.90572119140625,-1.22271728515625,-0.241790771484375,0.138916015625
1732873798514717200,2.91571728515625,-1.1998748779296875,-0.2477874755859375,0.120361328125
1732873798524712200,2.925712158203125,-1.180084228515625,-0.2626953125,0.1039581298828125
1732873798534707000,2.93570703125,-1.1687164306640625,-0.2879180908203125,0.0977020263671875
1732873798544702000,2.945701904296875,-1.154998779296875,-0.3241729736328125,0.101043701171875
1732873798554697000,2.955697021484375,-1.128997802734375,-0.3519287109375,0.112548828125
1732873798564693000,2.96569287109375,-1.0936279296875,-0.3516845703125,0.1259613037109375
1732873798574688300,2.975688232421875,-1.0611114501953125,-0.3275146484375,0.1298828125
1732873798584683300,2.985683349609375,-1.049285888671875,-0.303497314453125,0.1109619140625
1732873798594678300,2.99567822265625,-1.0666656494140625,-0.29473876953125,0.069732666015625
1732873798604674000,3.005674072265625,-1.1021270751953125,-0.2892913818359375,0.02557373046875
1732873798614669000,3.0156689453125,-1.14208984375,-0.2496337890625,-0.010406494140625
1732873798624664000,3.0256640625,-1.1935577392578125,-0.173858642578125,-0.050201416015625
1732873798634659000,3.0356591796875,-1.2473602294921875,-0.0772247314453125,-0.092132568359375
1732873798644655000,3.045655029296875,-1.3050537109375,0.0152740478515625,-0.125946044921875
1732873798654649900,3.05564990234375,-1.355712890625,0.071685791015625,-0.1366729736328125
1732873798664645000,3.06564501953125,-1.3802642822265625,0.081146240234375,-0.1407928466796875
1732873798674640100,3.07564013671875,-1.3552398681640625,0.0584259033203125,-0.12835693359375
1732873798684635100,3.08563525390625,-1.2758636474609375,0.0268096923828125,-0.1267242431640625
1732873798694631200,3.095631103515625,-1.1370391845703125,-0.0087127685546875,-0.1366119384765625
1732873798704626200,3.105626220703125,-0.9625244140625,-0.0502471923828125,-0.13714599609375
1732873798714621200,3.11562109375,-0.79425048828125,-0.09027099609375,-0.1283111572265625
1732873798724616000,3.125615966796875,-0.668975830078125,-0.1289520263671875,-0.1510467529296875
1732873798734612000,3.135612060546875,-0.58782958984375,-0.149078369140625,-0.18060302734375
1732873798744607200,3.145607177734375,-0.55706787109375,-0.156524658203125,-0.171356201171875
1732873798754602200,3.155602294921875,-0.5768890380859375,-0.14013671875,-0.150115966796875
1732873798764597200,3.16559716796875,-0.625885009765625,-0.111480712890625,-0.1369781494140625
1732873798774593000,3.175593017578125,-0.69842529296875,-0.0969696044921875,-0.1066436767578125
1732873798784588000,3.185588134765625,-0.775665283203125,-0.077880859375,-0.0614166259765625
1732873798794583000,3.1955830078125,-0.8557891845703125,-0.0612030029296875,-0.0165863037109375
1732873798804578000,3.205578125,-0.9210662841796875,-0.0510101318359375,0.0211181640625
1732873798814573000,3.215572998046875,-0.97015380859375,-0.036865234375,0.044769287109375
1732873798824569000,3.225569091796875,-1.0146331787109375,-0.028839111328125,0.0634307861328125
1732873798834564000,3.235564208984375,-1.04296875,-0.0402069091796875,0.0810394287109375
1732873798844559000,3.24555908203125,-1.0461273193359375,-0.0583648681640625,0.09075927734375
1732873798854554000,3.25555419921875,-1.015625,-0.082916259765625,0.084320068359375
1732873798864550100,3.265550048828125,-0.964019775390625,-0.1189422607421875,0.06695556640625
1732873798874545200,3.275545166015625,-0.917144775390625,-0.1541748046875,0.05145263671875
1732873798884540200,3.2855400390625,-0.8748016357421875,-0.1845703125,0.035400390625
1732873798894535200,3.29553515625,-0.8377227783203125,-0.213531494140625,0.0237274169921875
1732873798904531000,3.305531005859375,-0.8095703125,-0.2352142333984375,0.016510009765625
1732873798914526000,3.31552587890625,-0.79443359375,-0.2435150146484375,0.000946044921875
1732873798924521200,3.325521240234375,-0.795745849609375,-0.243133544921875,-0.0199127197265625
1732873798934516200,3.33551611328125,-0.8135833740234375,-0.2427215576171875,-0.028594970703125
1732873798944511200,3.34551123046875,-0.85430908203125,-0.2336883544921875,-0.030670166015625
1732873798954507000,3.355507080078125,-0.9110565185546875,-0.2193756103515625,-0.0378875732421875
1732873798964502000,3.365501953125,-0.9672698974609375,-0.2093353271484375,-0.0324249267578125
1732873798974497000,3.3754970703125,-1.01409912109375,-0.2033843994140625,-0.025726318359375
1732873798984492000,3.385491943359375,-1.050079345703125,-0.2030792236328125,-0.030731201171875
1732873798994488000,3.395488037109375,-1.0636749267578125,-0.203521728515625,-0.038299560546875
1732873799004483000,3.405483154296875,-1.056884765625,-0.206146240234375,-0.0478363037109375
1732873799014478000,3.41547802734375,-1.0400543212890625,-0.21307373046875,-0.0565338134765625
1732873799024473000,3.42547314453125,-1.0121917724609375,-0.22369384765625,-0.0550384521484375
1732873799034469000,3.43546923828125,-0.9885101318359375,-0.2389068603515625,-0.048553466796875
1732873799044464000,3.445464111328125,-0.9707794189453125,-0.2565765380859375,-0.0477294921875
1732873799054459100,3.455459228515625,-0.95233154296875,-0.2721099853515625,-0.05010986328125
1732873799064454100,3.4654541015625,-0.941619873046875,-0.280426025390625,-0.0491790771484375
1732873799074449200,3.47544921875,-0.9525604248046875,-0.2796630859375,-0.0555419921875
1732873799084445000,3.48544482421875,-0.9872894287109375,-0.266754150390625,-0.063995361328125
1732873799094440000,3.49543994140625,-1.0370635986328125,-0.2362213134765625,-0.0784759521484375
1732873799104435200,3.505435302734375,-1.0964202880859375,-0.2004241943359375,-0.0966949462890625
1732873799114430200,3.51543017578125,-1.1631622314453125,-0.185302734375,-0.0941162109375
1732873799124426200,3.52542626953125,-1.224822998046875,-0.1872100830078125,-0.0680694580078125
1732873799134421000,3.5354208984375,-1.26922607421875,-0.1879425048828125,-0.0252838134765625
1732873799144416000,3.545416015625,-1.2983551025390625,-0.1968231201171875,0.02484130859375
1732873799154411000,3.555410888671875,-1.3050079345703125,-0.2169647216796875,0.0792236328125
1732873799164407000,3.565406982421875,-1.29522705078125,-0.2280120849609375,0.1210174560546875
1732873799174402000,3.575402099609375,-1.26837158203125,-0.20062255859375,0.152496337890625
1732873799184397000,3.58539697265625,-1.2480926513671875,-0.134613037109375,0.182525634765625
1732873799194392300,3.595392333984375,-1.2536773681640625,-0.060546875,0.1999053955078125
1732873799204387000,3.605386962890625,-1.2924957275390625,0.0025482177734375,0.2062835693359375
1732873799214383000,3.615383056640625,-1.3418731689453125,0.047119140625,0.204498291015625
1732873799224378000,3.625378173828125,-1.3551177978515625,0.049407958984375,0.2062835693359375
1732873799234373000,3.635373046875,-1.306610107421875,0.0239105224609375,0.2249603271484375
1732873799244368100,3.6453681640625,-1.1997833251953125,-0.00079345703125,0.2348175048828125
1732873799254364000,3.655364013671875,-1.0572509765625,-0.0382080078125,0.23504638671875
1732873799264359000,3.66535888671875,-0.891937255859375,-0.08056640625,0.223876953125
1732873799274354000,3.67535400390625,-0.7363433837890625,-0.10955810546875,0.1988525390625
1732873799284349200,3.68534912109375,-0.61956787109375,-0.1217803955078125,0.1708831787109375
1732873799294344200,3.69534423828125,-0.555938720703125,-0.12835693359375,0.1461334228515625
1732873799304340200,3.70534033203125,-0.548675537109375,-0.12786865234375,0.1233978271484375
1732873799314335200,3.715335205078125,-0.59759521484375,-0.121307373046875,0.11041259765625
1732873799324330000,3.725330078125,-0.6899261474609375,-0.1048736572265625,0.099456787109375
1732873799334325000,3.735324951171875,-0.7766876220703125,-0.0937652587890625,0.07904052734375
1732873799344321000,3.745321044921875,-0.839080810546875,-0.08819580078125,0.06488037109375
1732873799354316000,3.75531591796875,-0.876220703125,-0.085235595703125,0.0399322509765625
1732873799364311000,3.76531103515625,-0.8896942138671875,-0.090423583984375,0.008819580078125
1732873799374306300,3.775306396484375,-0.8756103515625,-0.101104736328125,-0.010528564453125
1732873799384302000,3.785302001953125,-0.843048095703125,-0.114654541015625,-0.0212249755859375
1732873799394297000,3.795297119140625,-0.8041839599609375,-0.134002685546875,-0.02276611328125
1732873799404292000,3.8052919921875,-0.76678466796875,-0.1653289794921875,-0.0217742919921875
1732873799414287000,3.815287109375,-0.7396697998046875,-0.191864013671875,-0.0115509033203125
1732873799424282000,3.8252822265625,-0.722869873046875,-0.215087890625,-0.008514404296875
1732873799434278000,3.83527783203125,-0.7195281982421875,-0.2359161376953125,-0.0088348388671875
1732873799444273000,3.84527294921875,-0.7254486083984375,-0.25213623046875,0.00018310546875
1732873799454268000,3.855267822265625,-0.7431640625,-0.262298583984375,0.0114288330078125
1732873799464262100,3.86526220703125,-0.7768402099609375,-0.2725677490234375,0.0238494873046875
1732873799474258400,3.875258544921875,-0.817138671875,-0.27606201171875,0.0300140380859375
1732873799484253400,3.88525341796875,-0.8706207275390625,-0.2678375244140625,0.0314178466796875
1732873799494248400,3.89524853515625,-0.923797607421875,-0.2572784423828125,0.03912353515625
1732873799504243500,3.905243408203125,-0.9718017578125,-0.2417755126953125,0.047119140625
1732873799514239200,3.9152392578125,-1.0195159912109375,-0.2214202880859375,0.048248291015625
1732873799524234200,3.925234130859375,-1.0721893310546875,-0.206085205078125,0.0488739013671875
1732873799534229200,3.935229248046875,-1.1170654296875,-0.1962738037109375,0.0552825927734375
1732873799544224300,3.945224365234375,-1.142791748046875,-0.1920013427734375,0.064453125
1732873799554219300,3.95521923828125,-1.1485748291015625,-0.1972808837890625,0.075347900390625
1732873799564215300,3.96521533203125,-1.1341094970703125,-0.210662841796875,0.08270263671875
1732873799574210300,3.975210205078125,-1.098419189453125,-0.2238311767578125,0.0855560302734375
1732873799584205300,3.985205322265625,-1.063720703125,-0.2303009033203125,0.0771484375
1732873799594200300,3.995200439453125,-1.0446624755859375,-0.22906494140625,0.0640411376953125
1732873799604196400,4.0051962890625,-1.046142578125,-0.222320556640625,0.0615692138671875
1732873799614191400,4.01519140625,-1.0677642822265625,-0.217315673828125,0.0690155029296875
1732873799624186400,4.025186279296875,-1.114105224609375,-0.222747802734375,0.082427978515625
1732873799634181400,4.035181396484375,-1.164154052734375,-0.222991943359375,0.0962677001953125
1732873799644176100,4.045176025390625,-1.2049102783203125,-0.20013427734375,0.099517822265625
1732873799654172400,4.05517236328125,-1.233245849609375,-0.1668548583984375,0.083526611328125
1732873799664167400,4.06516748046875,-1.259674072265625,-0.1637115478515625,0.0513916015625
1732873799674162400,4.075162353515625,-1.29290771484375,-0.197998046875,0.020111083984375
1732873799684157400,4.085157470703125,-1.307769775390625,-0.2432708740234375,-0.0063323974609375
1732873799694153200,4.0951533203125,-1.2862091064453125,-0.25994873046875,-0.0244598388671875
1732873799704148200,4.105148193359375,-1.2418670654296875,-0.2317047119140625,-0.05621337890625
1732873799714143200,4.115143310546875,-1.1984405517578125,-0.169677734375,-0.0888519287109375
1732873799724138200,4.12513818359375,-1.1756591796875,-0.076568603515625,-0.0911865234375
1732873799734134500,4.135134521484375,-1.205963134765625,0.0152587890625,-0.0987091064453125
1732873799744129500,4.145129638671875,-1.28179931640625,0.0689544677734375,-0.1009063720703125
1732873799754124300,4.155124267578125,-1.369384765625,0.062042236328125,-0.0850982666015625
1732873799764119300,4.165119384765625,-1.398345947265625,0.0217437744140625,-0.07635498046875
1732873799774114300,4.1751142578125,-1.3328399658203125,-0.0107421875,-0.090057373046875
1732873799784110300,4.1851103515625,-1.19598388671875,-0.0535736083984375,-0.1250762939453125
1732873799794105300,4.195105224609375,-1.029876708984375,-0.0988922119140625,-0.1649017333984375
1732873799804100400,4.205100341796875,-0.869293212890625,-0.1268157958984375,-0.1911163330078125
1732873799814095400,4.215095458984375,-0.74554443359375,-0.1455230712890625,-0.2088470458984375
1732873799824091400,4.22509130859375,-0.6581573486328125,-0.1493072509765625,-0.210540771484375
1732873799834086400,4.23508642578125,-0.610809326171875,-0.129119873046875,-0.1886749267578125
1732873799844081400,4.245081298828125,-0.6138458251953125,-0.112701416015625,-0.1560211181640625
1732873799854076400,4.255076416015625,-0.6551513671875,-0.103546142578125,-0.1341552734375
1732873799864071400,4.265071533203125,-0.729400634765625,-0.1087646484375,-0.1061553955078125
1732873799874067200,4.275067138671875,-0.801727294921875,-0.1199188232421875,-0.0652923583984375
1732873799884062200,4.285062255859375,-0.8409423828125,-0.106658935546875,-0.000335693359375
1732873799894057200,4.29505712890625,-0.8553466796875,-0.095703125,0.062103271484375
1732873799904052200,4.30505224609375,-0.8670196533203125,-0.1121063232421875,0.092987060546875
1732873799914048500,4.315048583984375,-0.864166259765625,-0.133209228515625,0.1187591552734375
1732873799924043500,4.32504345703125,-0.8376007080078125,-0.1657867431640625,0.145172119140625
1732873799934038500,4.33503857421875,-0.7952117919921875,-0.2030181884765625,0.161102294921875
1732873799944033300,4.345033203125,-0.7567291259765625,-0.219329833984375,0.1764068603515625
1732873799954029300,4.355029296875,-0.7344207763671875,-0.2330780029296875,0.18426513671875
1732873799964024300,4.3650244140625,-0.720733642578125,-0.2455902099609375,0.1898651123046875
1732873799974019300,4.375019287109375,-0.717559814453125,-0.249725341796875,0.1971588134765625
1732873799984014300,4.385014404296875,-0.7352294921875,-0.2452392578125,0.19757080078125
1732873799994009300,4.39500927734375,-0.7667388916015625,-0.237274169921875,0.179962158203125
1732873800004005400,4.40500537109375,-0.8026275634765625,-0.2238616943359375,0.15985107421875
1732873800014000400,4.41500048828125,-0.838470458984375,-0.21832275390625,0.1441802978515625
1732873800023995400,4.424995361328125,-0.8725128173828125,-0.21063232421875,0.1277618408203125
1732873800033990400,4.434990478515625,-0.902191162109375,-0.19451904296875,0.101959228515625
1732873800043986400,4.444986328125,-0.9340362548828125,-0.1890716552734375,0.0798492431640625
1732873800053981200,4.454981201171875,-0.965606689453125,-0.1920623779296875,0.0625
1732873800063976200,4.46497607421875,-0.98675537109375,-0.2005615234375,0.0455169677734375
1732873800073971200,4.47497119140625,-0.996612548828125,-0.2094879150390625,0.0290679931640625
1732873800083967500,4.484967529296875,-1.0045623779296875,-0.2154388427734375,0.02215576171875
1732873800093962500,4.49496240234375,-1.018218994140625,-0.22857666015625,0.01483154296875
1732873800103957500,4.50495751953125,-1.0247802734375,-0.2520904541015625,0.008056640625
1732873800113952500,4.514952392578125,-1.0179443359375,-0.2602996826171875,0.0033416748046875
1732873800123947300,4.524947265625,-1.0072784423828125,-0.2673797607421875,-0.0004119873046875
1732873800133943300,4.534943359375,-1.0003814697265625,-0.2772064208984375,-0.003662109375
1732873800143938300,4.544938232421875,-0.995391845703125,-0.289520263671875,-0.01043701171875
1732873800153933300,4.554933349609375,-0.9972076416015625,-0.2901763916015625,-0.009368896484375
1732873800163928300,4.56492822265625,-1.003875732421875,-0.28594970703125,-0.0131072998046875
1732873800173924400,4.57492431640625,-1.0214691162109375,-0.276947021484375,-0.0255126953125
1732873800183919400,4.58491943359375,-1.0446319580078125,-0.2660064697265625,-0.02581787109375
1732873800193914400,4.594914306640625,-1.067291259765625,-0.2553863525390625,-0.02294921875
1732873800203909400,4.604909423828125,-1.0791778564453125,-0.2430419921875,-0.01715087890625
1732873800213904400,4.614904296875,-1.08087158203125,-0.2350311279296875,-0.0091552734375
1732873800223900400,4.624900390625,-1.073333740234375,-0.2343902587890625,-0.0029754638671875
1732873800233895400,4.6348955078125,-1.0645599365234375,-0.2418670654296875,0.010284423828125
1732873800243890200,4.64489013671875,-1.0506134033203125,-0.2605743408203125,0.0220947265625
1732873800253885200,4.65488525390625,-1.04888916015625,-0.2783660888671875,0.0362548828125
1732873800263881500,4.664881591796875,-1.057281494140625,-0.29901123046875,0.0562591552734375
1732873800273876500,4.67487646484375,-1.070770263671875,-0.3106536865234375,0.0852203369140625
1732873800283871500,4.68487158203125,-1.093048095703125,-0.32037353515625,0.1052093505859375
1732873800293866500,4.694866455078125,-1.104736328125,-0.3431243896484375,0.1277618408203125
1732873800303862300,4.7048623046875,-1.097076416015625,-0.360687255859375,0.1673431396484375
1732873800313857300,4.714857177734375,-1.08050537109375,-0.355133056640625,0.2050628662109375
1732873800323852300,4.724852294921875,-1.072235107421875,-0.3173675537109375,0.226715087890625
1732873800333847300,4.734847412109375,-1.07403564453125,-0.2604217529296875,0.2216949462890625
1732873800343842300,4.74484228515625,-1.116790771484375,-0.1746826171875,0.2024688720703125
1732873800353838300,4.75483837890625,-1.1965789794921875,-0.0700225830078125,0.143829345703125
1732873800363833300,4.764833251953125,-1.2969970703125,0.03765869140625,0.0854034423828125
1732873800373828400,4.774828369140625,-1.3999176025390625,0.12213134765625,0.0556182861328125
1732873800383823400,4.7848232421875,-1.47930908203125,0.1682281494140625,0.0818939208984375
1732873800393819400,4.7948193359375,-1.5105438232421875,0.16790771484375,0.10430908203125
1732873800403814400,4.804814453125,-1.4989013671875,0.135650634765625,0.1415863037109375
1732873800413809400,4.814809326171875,-1.3890228271484375,0.1084442138671875,0.190338134765625
1732873800423804200,4.82480419921875,-1.1906585693359375,0.061431884765625,0.1992645263671875
1732873800433799200,4.834799072265625,-0.9981689453125,-0.0182037353515625,0.1977691650390625
1732873800443795500,4.84479541015625,-0.8263702392578125,-0.081695556640625,0.193756103515625
1732873800453790500,4.85479052734375,-0.6644287109375,-0.1411285400390625,0.1957855224609375
1732873800463785700,4.86478564453125,-0.5404205322265625,-0.175811767578125,0.179473876953125
1732873800473780700,4.87478076171875,-0.4625244140625,-0.1936798095703125,0.149383544921875
1732873800483776500,4.884776611328125,-0.4314422607421875,-0.1773529052734375,0.11883544921875
1732873800493771500,4.894771484375,-0.4541168212890625,-0.14031982421875,0.0986480712890625
1732873800503766500,4.9047666015625,-0.54437255859375,-0.109405517578125,0.0881805419921875
1732873800513761500,4.914761474609375,-0.6718292236328125,-0.078704833984375,0.0610198974609375
1732873800523757800,4.9247578125,-0.8108062744140625,-0.05377197265625,0.0321502685546875
1732873800533752600,4.934752685546875,-0.938262939453125,-0.055389404296875,0.0269317626953125
1732873800543747600,4.94474755859375,-1.03680419921875,-0.07470703125,0.039794921875
1732873800553742600,4.95474267578125,-1.088470458984375,-0.10009765625,0.0461578369140625
1732873800563737600,4.964737548828125,-1.0911407470703125,-0.1238555908203125,0.031982421875
1732873800573733600,4.974733642578125,-1.054168701171875,-0.1497802734375,0.0033721923828125
1732873800583728600,4.984728759765625,-0.987823486328125,-0.1759796142578125,-0.0211639404296875
1732873800593723600,4.9947236328125,-0.9240570068359375,-0.1970977783203125,-0.043853759765625
1732873800603718400,5.004718505859375,-0.873931884765625,-0.213958740234375,-0.06402587890625
1732873800613714700,5.014714599609375,-0.8437652587890625,-0.2197113037109375,-0.07171630859375
1732873800623709700,5.024709716796875,-0.8414154052734375,-0.2100677490234375,-0.060699462890625
1732873800633704700,5.03470458984375,-0.8646240234375,-0.20147705078125,-0.0498199462890625
1732873800643699700,5.04469970703125,-0.9090576171875,-0.188995361328125,-0.0465240478515625
1732873800653694700,5.05469482421875,-0.9556732177734375,-0.1722564697265625,-0.037017822265625
1732873800663690500,5.0646904296875,-1.0000457763671875,-0.1615142822265625,-0.0199432373046875
1732873800673685500,5.074685546875,-1.0263671875,-0.14459228515625,-0.002716064453125
1732873800683680500,5.084680419921875,-1.0366058349609375,-0.1327667236328125,0.010009765625
1732873800693675500,5.094675537109375,-1.0319976806640625,-0.128265380859375,0.0181121826171875
1732873800703671800,5.104671875,-1.0189666748046875,-0.1213531494140625,0.0272674560546875
1732873800713666600,5.11466650390625,-1.0098876953125,-0.120147705078125,0.0326690673828125
1732873800723661600,5.12466162109375,-1.0069427490234375,-0.1227264404296875,0.030731201171875
1732873800733656600,5.134656494140625,-1.0078277587890625,-0.132110595703125,0.0256195068359375
1732873800743652600,5.144652587890625,-1.010986328125,-0.1408233642578125,0.011260986328125
1732873800753647600,5.154647705078125,-1.0181427001953125,-0.1509552001953125,-0.0110321044921875
1732873800763642600,5.164642578125,-1.0287017822265625,-0.16241455078125,-0.035980224609375
1732873800773637600,5.1746376953125,-1.0420684814453125,-0.1642913818359375,-0.06085205078125
1732873800783632600,5.184632568359375,-1.06689453125,-0.159698486328125,-0.082611083984375
1732873800793628700,5.194628662109375,-1.0926055908203125,-0.1643218994140625,-0.1040802001953125
1732873800803623700,5.204623779296875,-1.1128082275390625,-0.160400390625,-0.1056060791015625
1732873800813618700,5.21461865234375,-1.139434814453125,-0.1490325927734375,-0.09027099609375
1732873800823613700,5.22461376953125,-1.1729888916015625,-0.1418609619140625,-0.0571136474609375
1732873800833609500,5.234609375,-1.1990814208984375,-0.1362152099609375,-0.0060272216796875
1732873800843604500,5.2446044921875,-1.21038818359375,-0.1345367431640625,0.0374603271484375
1732873800853599500,5.254599609375,-1.2039794921875,-0.1513519287109375,0.0693359375
1732873800863594500,5.264594482421875,-1.16802978515625,-0.1645660400390625,0.0937347412109375
1732873800873590800,5.2745908203125,-1.1104888916015625,-0.1652069091796875,0.10589599609375
1732873800883585800,5.284585693359375,-1.039825439453125,-0.1642608642578125,0.0944061279296875
1732873800893580800,5.294580810546875,-0.975677490234375,-0.1563262939453125,0.068084716796875
1732873800903575600,5.304575439453125,-0.9386138916015625,-0.1365509033203125,0.0436248779296875
1732873800913570600,5.314570556640625,-0.9316864013671875,-0.1151275634765625,0.0187835693359375
1732873800923566600,5.324566650390625,-0.950531005859375,-0.09478759765625,-0.000091552734375
1732873800933561600,5.3345615234375,-0.9862823486328125,-0.079345703125,-0.0140533447265625
1732873800943556600,5.344556640625,-1.021331787109375,-0.065582275390625,-0.01708984375
1732873800953551600,5.354551513671875,-1.048370361328125,-0.0577850341796875,-0.007965087890625
1732873800963547600,5.364547607421875,-1.0587005615234375,-0.05364990234375,0.00396728515625
1732873800973542700,5.374542724609375,-1.0447235107421875,-0.055694580078125,0.0067596435546875
1732873800983537700,5.38453759765625,-1.005859375,-0.059722900390625,0.00653076171875
1732873800993532700,5.39453271484375,-0.9629364013671875,-0.0701141357421875,0.010650634765625
1732873801003527700,5.404527587890625,-0.9297332763671875,-0.076019287109375,0.01861572265625
1732873801013523500,5.4145234375,-0.9112701416015625,-0.0782318115234375,0.0144195556640625
1732873801023518500,5.4245185546875,-0.9078826904296875,-0.0809478759765625,0.0121917724609375
1732873801033513500,5.434513427734375,-0.9155426025390625,-0.08245849609375,0.0183563232421875
1732873801043508500,5.444508544921875,-0.9328460693359375,-0.080657958984375,0.0345611572265625
1732873801053504800,5.4545048828125,-0.94207763671875,-0.0828857421875,0.0521240234375
1732873801063499800,5.464499755859375,-0.9381561279296875,-0.0858154296875,0.0688323974609375
1732873801073494800,5.474494873046875,-0.9239959716796875,-0.089141845703125,0.0797271728515625
1732873801083489500,5.484489501953125,-0.8990936279296875,-0.092742919921875,0.0787200927734375
1732873801093485600,5.494485595703125,-0.8807830810546875,-0.094207763671875,0.0748443603515625
1732873801103480600,5.50448046875,-0.87481689453125,-0.095947265625,0.0601806640625
1732873801113475600,5.5144755859375,-0.8764801025390625,-0.0967254638671875,0.039459228515625
1732873801123470600,5.524470703125,-0.885162353515625,-0.0998382568359375,0.032684326171875
1732873801133465600,5.534465576171875,-0.9012298583984375,-0.104248046875,0.040924072265625
1732873801143461600,5.544461669921875,-0.9214935302734375,-0.113525390625,0.03924560546875
1732873801153456600,5.55445654296875,-0.93359375,-0.1246337890625,0.04034423828125
1732873801163451600,5.56445166015625,-0.9340057373046875,-0.1330718994140625,0.0527801513671875
1732873801173446700,5.57444677734375,-0.9390411376953125,-0.1411895751953125,0.07098388671875
1732873801183442700,5.584442626953125,-0.9507904052734375,-0.141632080078125,0.0926666259765625
1732873801193437700,5.594437744140625,-0.96417236328125,-0.138885498046875,0.1137237548828125
1732873801203432400,5.604432373046875,-0.98968505859375,-0.129547119140625,0.1382598876953125
1732873801213427500,5.614427490234375,-1.02862548828125,-0.1187744140625,0.173431396484375
1732873801223422500,5.62442236328125,-1.0734710693359375,-0.11798095703125,0.2054595947265625
1732873801233418800,5.634418701171875,-1.1053924560546875,-0.11968994140625,0.2304840087890625
1732873801243413800,5.644413818359375,-1.118011474609375,-0.1361846923828125,0.241363525390625
1732873801253408800,5.65440869140625,-1.11181640625,-0.15423583984375,0.23828125
1732873801263403800,5.66440380859375,-1.0772247314453125,-0.1588134765625,0.2319793701171875
1732873801273399600,5.674399658203125,-1.0380096435546875,-0.17034912109375,0.22869873046875
1732873801283394600,5.68439453125,-1.007476806640625,-0.17724609375,0.2207794189453125
1732873801293389600,5.6943896484375,-0.9836578369140625,-0.173431396484375,0.2075042724609375
1732873801303384600,5.704384521484375,-0.972991943359375,-0.16485595703125,0.19293212890625
1732873801313380400,5.71438037109375,-0.9764556884765625,-0.1566162109375,0.1793365478515625
1732873801323375600,5.724375732421875,-0.9855194091796875,-0.1461181640625,0.16845703125
1732873801333370600,5.73437060546875,-0.9997406005859375,-0.135162353515625,0.14410400390625
1732873801343365600,5.74436572265625,-1.0018768310546875,-0.12548828125,0.12188720703125
1732873801353360600,5.754360595703125,-0.9915313720703125,-0.1168975830078125,0.102020263671875
1732873801363356700,5.764356689453125,-0.974517822265625,-0.110443115234375,0.0808563232421875
1732873801373351700,5.7743515625,-0.9539337158203125,-0.103790283203125,0.069915771484375
1732873801383346400,5.784346435546875,-0.939208984375,-0.1015777587890625,0.0690765380859375
1732873801393341400,5.794341552734375,-0.9316558837890625,-0.1073150634765625,0.0764007568359375
1732873801403337500,5.80433740234375,-0.933380126953125,-0.1193084716796875,0.086669921875
1732873801413332700,5.814332763671875,-0.9440155029296875,-0.1363677978515625,0.088165283203125
1732873801423327700,5.82432763671875,-0.9570465087890625,-0.155731201171875,0.0847320556640625
1732873801433322800,5.83432275390625,-0.9732818603515625,-0.16998291015625,0.07977294921875
1732873801443318500,5.844318603515625,-0.992706298828125,-0.1873626708984375,0.0630035400390625
1732873801453313500,5.8543134765625,-1.0095977783203125,-0.204010009765625,0.04852294921875
1732873801463308500,5.86430859375,-1.0207977294921875,-0.2222747802734375,0.0422210693359375
1732873801473303600,5.874303466796875,-1.0306396484375,-0.2357940673828125,0.0349273681640625
1732873801483298600,5.884298583984375,-1.0337982177734375,-0.2444915771484375,0.0279541015625
1732873801493294600,5.894294677734375,-1.0299224853515625,-0.2486572265625,0.0314483642578125
1732873801503289300,5.904289306640625,-1.019073486328125,-0.241241455078125,0.0484466552734375
1732873801513284400,5.914284423828125,-1.0171966552734375,-0.237030029296875,0.0447235107421875
1732873801523279400,5.924279296875,-1.0171966552734375,-0.23394775390625,0.032745361328125
1732873801533275400,5.934275390625,-1.013671875,-0.23052978515625,0.02349853515625
1732873801543270400,5.9442705078125,-1.00177001953125,-0.23406982421875,0.003509521484375
1732873801553265700,5.954265625,-0.9758148193359375,-0.239471435546875,-0.01568603515625
1732873801563260700,5.9642607421875,-0.9432373046875,-0.250579833984375,-0.0274810791015625
1732873801573255400,5.97425537109375,-0.915374755859375,-0.2572174072265625,-0.01739501953125
1732873801583251500,5.98425146484375,-0.8972930908203125,-0.257843017578125,-0.0123138427734375
1732873801593246500,5.99424658203125,-0.8939666748046875,-0.2492828369140625,-0.000335693359375
1732873801603241500,6.004241455078125,-0.910736083984375,-0.23486328125,0.025634765625
1732873801613236500,6.014236572265625,-0.93505859375,-0.21435546875,0.05902099609375
1732873801623232300,6.024232177734375,-0.969970703125,-0.19189453125,0.086334228515625
1732873801633227300,6.034227294921875,-1.01190185546875,-0.179840087890625,0.1112060546875
1732873801643222500,6.044222412109375,-1.040252685546875,-0.1708221435546875,0.126312255859375
1732873801653217500,6.054217529296875,-1.045257568359375,-0.172698974609375,0.1227264404296875
1732873801663213600,6.064213623046875,-1.0269927978515625,-0.182464599609375,0.107666015625
1732873801673208600,6.07420849609375,-0.9839324951171875,-0.1958465576171875,0.0861968994140625
1732873801683203600,6.08420361328125,-0.9202423095703125,-0.20477294921875,0.0722503662109375
1732873801693198300,6.0941982421875,-0.8811798095703125,-0.21514892578125,0.0674896240234375
1732873801703193300,6.104193359375,-0.8640289306640625,-0.2314605712890625,0.0521392822265625
1732873801713189400,6.114189453125,-0.837615966796875,-0.233642578125,0.0353546142578125
1732873801723184600,6.1241845703125,-0.818450927734375,-0.2415008544921875,0.01922607421875
1732873801733179600,6.1341796875,-0.82330322265625,-0.2322998046875,0.006500244140625
1732873801743174700,6.144174560546875,-0.8270263671875,-0.2249755859375,-0.015533447265625
1732873801753170400,6.15417041015625,-0.817901611328125,-0.2329254150390625,-0.0395355224609375
1732873801763165400,6.16416552734375,-0.81939697265625,-0.2429656982421875,-0.0543212890625
1732873801773160400,6.174160400390625,-0.82794189453125,-0.2470245361328125,-0.063934326171875
1732873801783155500,6.184155517578125,-0.8379058837890625,-0.250640869140625,-0.067962646484375
1732873801793150500,6.194150390625,-0.8453521728515625,-0.25421142578125,-0.062591552734375
1732873801803146200,6.204146240234375,-0.8603363037109375,-0.2536468505859375,-0.0550689697265625
1732873801813141500,6.2141416015625,-0.8852081298828125,-0.24664306640625,-0.0451812744140625
1732873801823136500,6.224136474609375,-0.924468994140625,-0.240234375,-0.030242919921875
1732873801833131500,6.234131591796875,-0.9712066650390625,-0.23712158203125,-0.0273284912109375
1732873801843127600,6.24412744140625,-1.0206756591796875,-0.231597900390625,-0.0314788818359375
1732873801853122600,6.25412255859375,-1.069488525390625,-0.2295684814453125,-0.0334625244140625
1732873801863117600,6.26411767578125,-1.114990234375,-0.2282867431640625,-0.040130615234375
1732873801873112300,6.2741123046875,-1.143218994140625,-0.22833251953125,-0.046630859375
1732873801883107300,6.284107421875,-1.1589508056640625,-0.2259063720703125,-0.0453033447265625
1732873801893103400,6.294103271484375,-1.166046142578125,-0.2252197265625,-0.03973388671875
1732873801903098600,6.3040986328125,-1.16619873046875,-0.2301788330078125,-0.038360595703125
1732873801913093600,6.31409375,-1.147674560546875,-0.2355499267578125,-0.0428466796875
1732873801923088600,6.324088623046875,-1.120941162109375,-0.2409515380859375,-0.0467529296875
1732873801933084400,6.33408447265625,-1.0809326171875,-0.250885009765625,-0.0470428466796875
1732873801943079400,6.344079345703125,-1.046478271484375,-0.259918212890625,-0.0370635986328125
1732873801953074400,6.354074462890625,-1.017333984375,-0.2640838623046875,-0.02801513671875
1732873801963069400,6.3640693359375,-0.98883056640625,-0.265045166015625,-0.019744873046875
1732873801973065500,6.3740654296875,-0.9629669189453125,-0.2636871337890625,-0.0028076171875
1732873801983060500,6.384060546875,-0.9490814208984375,-0.261566162109375,0.0097808837890625
1732873801993055500,6.394055419921875,-0.94451904296875,-0.2613525390625,0.015228271484375
1732873802003050500,6.404050537109375,-0.947601318359375,-0.26287841796875,0.0218658447265625
1732873802013045500,6.41404541015625,-0.9574737548828125,-0.2653350830078125,0.031829833984375
1732873802023041500,6.42404150390625,-0.9725799560546875,-0.2689208984375,0.048492431640625
1732873802033036500,6.43403662109375,-0.9805145263671875,-0.2752838134765625,0.06573486328125
1732873802043031600,6.444031494140625,-1.0016326904296875,-0.27813720703125,0.0839385986328125
1732873802053026600,6.454026611328125,-1.029266357421875,-0.283660888671875,0.0935516357421875
1732873802063022300,6.464022216796875,-1.05877685546875,-0.29559326171875,0.08587646484375
1732873802073017300,6.474017333984375,-1.098968505859375,-0.3072967529296875,0.0742950439453125
1732873802083012600,6.4840126953125,-1.1403656005859375,-0.3105316162109375,0.065216064453125
1732873802093007600,6.494007568359375,-1.1774139404296875,-0.308502197265625,0.049896240234375
1732873802103003400,6.50400341796875,-1.2066497802734375,-0.3022308349609375,0.0390167236328125
1732873802112998400,6.513998291015625,-1.234832763671875,-0.2915496826171875,0.0224761962890625
1732873802122993400,6.523993408203125,-1.257659912109375,-0.276702880859375,0.01312255859375
1732873802132988400,6.533988525390625,-1.2715606689453125,-0.26544189453125,0.030731201171875
1732873802142983400,6.5439833984375,-1.27587890625,-0.269134521484375,0.058135986328125
1732873802152979500,6.5539794921875,-1.263702392578125,-0.2918243408203125,0.0878753662109375
1732873802162974500,6.563974365234375,-1.2206268310546875,-0.29583740234375,0.1092681884765625
1732873802172969500,6.573969482421875,-1.15576171875,-0.256866455078125,0.131072998046875
1732873802182964500,6.583964599609375,-1.1024322509765625,-0.2069549560546875,0.1278228759765625
1732873802192960500,6.59396044921875,-1.0859375,-0.1112060546875,0.0904083251953125
1732873802202955500,6.60395556640625,-1.0972137451171875,0.008148193359375,0.0684814453125
1732873802212950500,6.613950439453125,-1.161468505859375,0.0974884033203125,0.06536865234375
1732873802222945500,6.623945556640625,-1.225799560546875,0.1416778564453125,0.056365966796875
1732873802232940500,6.6339404296875,-1.239532470703125,0.1370697021484375,0.0746612548828125
1732873802242936300,6.643936279296875,-1.1868896484375,0.1086883544921875,0.0994873046875
1732873802252931300,6.653931396484375,-1.092041015625,0.0460662841796875,0.106658935546875
1732873802262926600,6.663926513671875,-0.9636077880859375,0.0030670166015625,0.1013336181640625
1732873802272921600,6.673921630859375,-0.8177490234375,-0.019561767578125,0.06890869140625
1732873802282917400,6.68391748046875,-0.6927490234375,-0.0573577880859375,0.0204620361328125
1732873802292912400,6.693912353515625,-0.6059722900390625,-0.090850830078125,-0.0045318603515625
1732873802302907400,6.703907470703125,-0.57373046875,-0.0981903076171875,-0.0048980712890625
1732873802312902400,6.71390234375,-0.58001708984375,-0.0911102294921875,0.007110595703125
1732873802322897400,6.7238974609375,-0.61761474609375,-0.081817626953125,0.025482177734375
1732873802332893400,6.7338935546875,-0.6905975341796875,-0.0595245361328125,0.0374603271484375
1732873802342888400,6.743888427734375,-0.7846832275390625,-0.0423126220703125,0.0305328369140625
1732873802352883500,6.753883544921875,-0.8756866455078125,-0.030853271484375,0.049468994140625
1732873802362878500,6.76387841796875,-0.9445648193359375,-0.0299835205078125,0.076812744140625
1732873802372874500,6.77387451171875,-0.9823455810546875,-0.0435333251953125,0.08770751953125
1732873802382869500,6.783869384765625,-0.9927825927734375,-0.0686187744140625,0.0843658447265625
1732873802392864500,6.793864501953125,-0.9786224365234375,-0.093841552734375,0.087188720703125
1732873802402859500,6.803859619140625,-0.9517364501953125,-0.11993408203125,0.0978546142578125
1732873802412855300,6.813855224609375,-0.921478271484375,-0.14483642578125,0.1087799072265625
1732873802422850300,6.823850341796875,-0.8970794677734375,-0.1715545654296875,0.1021728515625
1732873802432845300,6.83384521484375,-0.8805389404296875,-0.1991424560546875,0.086334228515625
1732873802442840600,6.843840576171875,-0.87158203125,-0.2243194580078125,0.08465576171875
1732873802452835600,6.853835693359375,-0.873321533203125,-0.23992919921875,0.0849609375
1732873802462831600,6.86383154296875,-0.8865966796875,-0.2452545166015625,0.0802764892578125
1732873802472826400,6.873826416015625,-0.9088592529296875,-0.2385101318359375,0.0754852294921875
1732873802482821400,6.8838212890625,-0.9345855712890625,-0.22735595703125,0.0769805908203125
1732873802492816400,6.89381640625,-0.955413818359375,-0.218017578125,0.08184814453125
1732873802502812400,6.9038125,-0.9674224853515625,-0.2149810791015625,0.086456298828125
1732873802512807400,6.913807373046875,-0.9742431640625,-0.216156005859375,0.100128173828125
1732873802522802400,6.923802490234375,-0.978668212890625,-0.2161712646484375,0.1162872314453125
1732873802532797400,6.93379736328125,-0.9782257080078125,-0.211639404296875,0.129669189453125
1732873802542793200,6.943793212890625,-0.9686431884765625,-0.21466064453125,0.13580322265625
1732873802552788500,6.95378857421875,-0.95330810546875,-0.2130279541015625,0.142974853515625
1732873802562783500,6.963783447265625,-0.93438720703125,-0.2064056396484375,0.148529052734375
1732873802572778500,6.973778564453125,-0.9214019775390625,-0.2064971923828125,0.151397705078125
1732873802582773500,6.9837734375,-0.908721923828125,-0.2113494873046875,0.1417236328125
1732873802592769300,6.993769287109375,-0.898956298828125,-0.2114715576171875,0.126495361328125
1732873802602764300,7.003764404296875,-0.8938140869140625,-0.2061614990234375,0.101104736328125
1732873802612759300,7.01375927734375,-0.9019012451171875,-0.202056884765625,0.0706634521484375
1732873802622754300,7.02375439453125,-0.9317169189453125,-0.1939849853515625,0.0403289794921875
1732873802632750300,7.033750244140625,-0.9888763427734375,-0.17608642578125,0.016265869140625
1732873802642745600,7.04374560546875,-1.0765838623046875,-0.19537353515625,-0.0218658447265625
1732873802652740400,7.053740234375,-1.1688232421875,-0.2093353271484375,-0.029296875
1732873802662735400,7.0637353515625,-1.221649169921875,-0.1894683837890625,0.00933837890625
1732873802672730400,7.07373046875,-1.242523193359375,-0.1660308837890625,0.041961669921875
1732873802682726400,7.083726318359375,-1.2580413818359375,-0.14361572265625,0.0426025390625
1732873802692721400,7.093721435546875,-1.27593994140625,-0.128875732421875,0.0426483154296875
1732873802702716400,7.10371630859375,-1.2950439453125,-0.1392669677734375,0.0387420654296875
1732873802712711400,7.11371142578125,-1.302093505859375,-0.1671600341796875,0.0297393798828125
1732873802722707200,7.123707275390625,-1.2762451171875,-0.1745758056640625,0.0045166015625
1732873802732702500,7.133702392578125,-1.23046875,-0.13427734375,-0.035400390625
1732873802742697500,7.143697509765625,-1.2032623291015625,-0.050445556640625,-0.0569000244140625
1732873802752692500,7.1536923828125,-1.218902587890625,0.02105712890625,-0.0745849609375
1732873802762688500,7.1636884765625,-1.262237548828125,0.058502197265625,-0.0794219970703125
1732873802772683300,7.173683349609375,-1.286285400390625,0.0694427490234375,-0.066741943359375
1732873802782678300,7.18367822265625,-1.2692108154296875,0.053863525390625,-0.059661865234375
1732873802792673300,7.19367333984375,-1.1896209716796875,0.0168304443359375,-0.0670928955078125
1732873802802668300,7.203668212890625,-1.0558013916015625,-0.0174407958984375,-0.074249267578125
1732873802812664300,7.213664306640625,-0.9019012451171875,-0.046783447265625,-0.082427978515625
1732873802822659600,7.22365966796875,-0.7557525634765625,-0.0759735107421875,-0.088104248046875
1732873802832654600,7.233654541015625,-0.6486358642578125,-0.09344482421875,-0.0921478271484375
1732873802842649300,7.2436494140625,-0.5925140380859375,-0.091400146484375,-0.1134033203125
1732873802852645400,7.253645263671875,-0.6129302978515625,-0.0868988037109375,-0.1306915283203125
1732873802862640400,7.263640380859375,-0.6857147216796875,-0.0727386474609375,-0.131439208984375
1732873802872635400,7.273635498046875,-0.784698486328125,-0.04345703125,-0.11456298828125
1732873802882630400,7.28363037109375,-0.8747100830078125,-0.0135955810546875,-0.0752105712890625
1732873802892625400,7.29362548828125,-0.9672393798828125,0.008026123046875,-0.017608642578125
1732873802902621200,7.30362109375,-1.0306854248046875,0.0057525634765625,0.0182037353515625
1732873802912616400,7.313616455078125,-1.0625,-0.015716552734375,0.044891357421875
1732873802922611500,7.323611572265625,-1.0561981201171875,-0.0418243408203125,0.0558929443359375
1732873802932606500,7.3336064453125,-1.02685546875,-0.067047119140625,0.0630950927734375
1732873802942602500,7.3436025390625,-0.972991943359375,-0.09344482421875,0.07080078125
1732873802952597500,7.353597412109375,-0.9138336181640625,-0.1160125732421875,0.0836639404296875
1732873802962592300,7.36359228515625,-0.864105224609375,-0.1367950439453125,0.0844268798828125
1732873802972587300,7.373587158203125,-0.82666015625,-0.159210205078125,0.0804595947265625
1732873802982583300,7.383583251953125,-0.8015899658203125,-0.1830902099609375,0.073760986328125
1732873802992578300,7.393578369140625,-0.78289794921875,-0.2049713134765625,0.0631103515625
1732873803002573600,7.403573486328125,-0.7734832763671875,-0.217559814453125,0.056182861328125
1732873803012568600,7.413568603515625,-0.784820556640625,-0.2204742431640625,0.0452880859375
1732873803022563600,7.4235634765625,-0.8131256103515625,-0.2219696044921875,0.0312652587890625
1732873803032559400,7.433559326171875,-0.843719482421875,-0.2189483642578125,0.021636962890625
1732873803042554400,7.443554443359375,-0.8739471435546875,-0.2110748291015625,0.01702880859375
1732873803052549400,7.45354931640625,-0.907989501953125,-0.20672607421875,0.0140228271484375
1732873803062544400,7.46354443359375,-0.9404754638671875,-0.2039642333984375,0.005828857421875
1732873803072540200,7.4735400390625,-0.9615020751953125,-0.198394775390625,-0.004180908203125
1732873803082535200,7.48353515625,-0.979095458984375,-0.1939849853515625,-0.017791748046875
1732873803092530400,7.493530517578125,-0.992279052734375,-0.2009429931640625,-0.03118896484375
1732873803102525400,7.503525390625,-0.996673583984375,-0.20977783203125,-0.0364227294921875
1732873803112520400,7.5135205078125,-0.9918670654296875,-0.2190399169921875,-0.0357208251953125
1732873803122516500,7.5235166015625,-0.99066162109375,-0.226043701171875,-0.0298309326171875
1732873803132511500,7.533511474609375,-0.9918060302734375,-0.2387542724609375,-0.020294189453125
1732873803142506200,7.54350634765625,-0.988555908203125,-0.251190185546875,-0.010711669921875
1732873803152501200,7.553501220703125,-0.9824371337890625,-0.2558135986328125,-0.008148193359375
1732873803162497300,7.563497314453125,-0.9872283935546875,-0.25787353515625,-0.0063934326171875
1732873803172492300,7.5734921875,-1.00469970703125,-0.2621307373046875,-0.0028076171875
1732873803182487600,7.583487548828125,-1.030303955078125,-0.2532958984375,-0.0026397705078125
1732873803192482600,7.593482666015625,-1.0653533935546875,-0.2342071533203125,-0.0073394775390625
1732873803202477600,7.6034775390625,-1.1124420166015625,-0.21221923828125,-0.01666259765625
1732873803212473300,7.613473388671875,-1.1615142822265625,-0.181549072265625,-0.02685546875
1732873803222468400,7.62346826171875,-1.2131195068359375,-0.1510162353515625,-0.0254669189453125
1732873803232463400,7.63346337890625,-1.2598114013671875,-0.140625,-0.0103759765625
1732873803242458400,7.643458251953125,-1.295196533203125,-0.1525115966796875,0.02276611328125
1732873803252454400,7.653454345703125,-1.2980499267578125,-0.1600494384765625,0.0701904296875
1732873803262449200,7.66344921875,-1.2865142822265625,-0.139801025390625,0.1120452880859375
1732873803272444400,7.6734443359375,-1.287445068359375,-0.086517333984375,0.131561279296875
1732873803282439400,7.683439453125,-1.3143768310546875,0.001861572265625,0.1252593994140625
1732873803292435500,7.693435546875,-1.376617431640625,0.0808868408203125,0.0996246337890625
1732873803302430500,7.703430419921875,-1.4552764892578125,0.1274871826171875,0.089691162109375
1732873803312425500,7.713425537109375,-1.5002899169921875,0.1371002197265625,0.1043548583984375
1732873803322420500,7.72342041015625,-1.46148681640625,0.1096649169921875,0.14410400390625
1732873803332415200,7.733415283203125,-1.3249359130859375,0.0625457763671875,0.1743927001953125
1732873803342411300,7.743411376953125,-1.14190673828125,-0.000274658203125,0.174896240234375
1732873803352406500,7.753406494140625,-0.9601287841796875,-0.06219482421875,0.166778564453125
1732873803362401500,7.763401611328125,-0.7905120849609375,-0.1048736572265625,0.150665283203125
1732873803372396500,7.773396484375,-0.6448822021484375,-0.1371002197265625,0.1317138671875
1732873803382392300,7.783392333984375,-0.556121826171875,-0.144989013671875,0.1122589111328125
1732873803392387300,7.79338720703125,-0.5300445556640625,-0.14117431640625,0.11126708984375
1732873803402382300,7.80338232421875,-0.550628662109375,-0.1251983642578125,0.1250152587890625
1732873803412377300,7.81337744140625,-0.61895751953125,-0.1033935546875,0.1188507080078125
1732873803422372400,7.823372314453125,-0.720001220703125,-0.0786895751953125,0.0914459228515625
1732873803432368400,7.833368408203125,-0.8195953369140625,-0.0612945556640625,0.0517578125
1732873803442363400,7.84336328125,-0.906005859375,-0.0487213134765625,0.0216064453125
1732873803452358400,7.8533583984375,-0.9736175537109375,-0.0451507568359375,0.0084686279296875
1732873803462353400,7.863353515625,-1.017242431640625,-0.057525634765625,0.0061492919921875
1732873803472350200,7.87335009765625,-1.0291900634765625,-0.07598876953125,0.0113067626953125
1732873803482345200,7.88334521484375,-1.0137786865234375,-0.1026458740234375,0.023040771484375
1732873803492340000,7.893340087890625,-0.9675750732421875,-0.1382904052734375,0.02728271484375
1732873803502335000,7.9033349609375,-0.9008941650390625,-0.17169189453125,0.01751708984375
1732873803512330000,7.913330078125,-0.83831787109375,-0.1981658935546875,0.004180908203125
1732873803522326000,7.923325927734375,-0.78369140625,-0.2211761474609375,-0.0058441162109375
1732873803532321000,7.933321044921875,-0.7476043701171875,-0.2451324462890625,-0.0096435546875
1732873803542316300,7.94331640625,-0.7297210693359375,-0.2604522705078125,-0.0086212158203125
1732873803552311300,7.953311279296875,-0.730438232421875,-0.2716522216796875,-0.0074462890625
1732873803562307000,7.96330712890625,-0.753662109375,-0.2829132080078125,0.0055084228515625
1732873803572302000,7.973302001953125,-0.79168701171875,-0.2864532470703125,0.0244598388671875
1732873803582297000,7.983297119140625,-0.83563232421875,-0.283203125,0.0370941162109375
1732873803592292000,7.9932919921875,-0.877197265625,-0.276336669921875,0.0506744384765625
1732873803602288000,8.0032880859375,-0.9104461669921875,-0.267303466796875,0.060882568359375
1732873803612283000,8.013282958984375,-0.9480438232421875,-0.2602996826171875,0.060699462890625
1732873803622278000,8.02327783203125,-0.986907958984375,-0.2498931884765625,0.0619659423828125
1732873803632273200,8.033273193359374,-1.02142333984375,-0.241729736328125,0.0648193359375
1732873803642268200,8.04326806640625,-1.0460357666015625,-0.2422943115234375,0.0721588134765625
1732873803652264200,8.05326416015625,-1.0611572265625,-0.2466888427734375,0.079803466796875
1732873803662259200,8.06325927734375,-1.0706024169921875,-0.254241943359375,0.080322265625
1732873803672254200,8.073254150390625,-1.081451416015625,-0.2522430419921875,0.0738983154296875
1732873803682249000,8.0832490234375,-1.0909881591796875,-0.2393341064453125,0.0524444580078125
1732873803692245000,8.093244873046874,-1.1165008544921875,-0.224395751953125,0.02642822265625
1732873803702240000,8.103239990234375,-1.1586456298828125,-0.2225341796875,0.0031890869140625
1732873803712235000,8.113235107421875,-1.193145751953125,-0.2254180908203125,-0.002899169921875
1732873803722230300,8.123230224609374,-1.2084503173828125,-0.2243804931640625,0.0000152587890625
1732873803732226000,8.13322607421875,-1.2170867919921875,-0.2035675048828125,-0.000885009765625
1732873803742221000,8.143220947265625,-1.2349395751953125,-0.1696014404296875,-0.00396728515625
1732873803752216000,8.153216064453124,-1.2611083984375,-0.1446075439453125,-0.0113677978515625
1732873803762211000,8.163211181640625,-1.2878875732421875,-0.152435302734375,-0.0235137939453125
1732873803772206000,8.1732060546875,-1.29852294921875,-0.1812896728515625,-0.025634765625
1732873803782202000,8.1832021484375,-1.2750244140625,-0.197967529296875,-0.029327392578125
1732873803792196900,8.19319677734375,-1.22283935546875,-0.1617431640625,-0.0306854248046875
1732873803802192000,8.20319189453125,-1.1717071533203125,-0.0793304443359375,-0.0323638916015625
1732873803812187100,8.213187255859374,-1.1548004150390625,-0.00433349609375,-0.0230865478515625
1732873803822183200,8.22318310546875,-1.172119140625,0.049346923828125,-0.01312255859375
1732873803832178200,8.23317822265625,-1.19281005859375,0.0607757568359375,-0.0226593017578125
1732873803842173200,8.243173095703124,-1.1834259033203125,0.027587890625,-0.0476837158203125
1732873803852168200,8.253168212890625,-1.1100616455078125,-0.01708984375,-0.06365966796875
1732873803862163000,8.263162841796875,-1.0048675537109375,-0.05316162109375,-0.0787200927734375
1732873803872159000,8.273158935546874,-0.888336181640625,-0.094512939453125,-0.0941162109375
1732873803882154000,8.283154052734375,-0.767608642578125,-0.13885498046875,-0.105377197265625
1732873803892149200,8.293149169921875,-0.65728759765625,-0.15087890625,-0.1221466064453125
1732873803902144300,8.303144287109374,-0.60491943359375,-0.1660308837890625,-0.1256103515625
1732873803912140000,8.31314013671875,-0.5786285400390625,-0.1553955078125,-0.1313018798828125
1732873803922135000,8.323135009765625,-0.5810699462890625,-0.139556884765625,-0.12786865234375
1732873803932130000,8.333130126953124,-0.6208038330078125,-0.1227264404296875,-0.117034912109375
1732873803942125000,8.343125,-0.6809234619140625,-0.105987548828125,-0.1189117431640625
1732873803952120000,8.3531201171875,-0.7594451904296875,-0.0889129638671875,-0.1034393310546875
1732873803962116000,8.3631162109375,-0.838226318359375,-0.071533203125,-0.0740509033203125
1732873803972111000,8.373111083984375,-0.9124908447265625,-0.0694732666015625,-0.0502166748046875
1732873803982106000,8.383106201171875,-0.960968017578125,-0.0658721923828125,-0.0196990966796875
1732873803992101000,8.39310107421875,-0.9867095947265625,-0.0852508544921875,-0.00079345703125
1732873804002097200,8.40309716796875,-0.9983367919921875,-0.1107330322265625,0.010650634765625
1732873804012092200,8.413092041015625,-0.97900390625,-0.1215667724609375,0.02423095703125
1732873804022087200,8.423087158203124,-0.9330902099609375,-0.1290130615234375,0.04022216796875
1732873804032082200,8.433082275390625,-0.887359619140625,-0.14984130859375,0.0435638427734375
1732873804042077200,8.4430771484375,-0.853363037109375,-0.1779632568359375,0.040679931640625
1732873804052073000,8.453072998046874,-0.830413818359375,-0.201629638671875,0.045623779296875
1732873804062068000,8.46306787109375,-0.8227691650390625,-0.2147674560546875,0.0461578369140625
1732873804072063200,8.473063232421875,-0.82818603515625,-0.21392822265625,0.0445098876953125
1732873804082058200,8.483058349609376,-0.8486480712890625,-0.2114715576171875,0.038177490234375
1732873804092054000,8.493053955078125,-0.88214111328125,-0.20672607421875,0.028350830078125
1732873804102049000,8.503049072265625,-0.91851806640625,-0.1940155029296875,0.0244140625
1732873804112044000,8.5130439453125,-0.9553680419921875,-0.1795196533203125,0.0216217041015625
1732873804122039000,8.5230390625,-0.9882659912109375,-0.1622314453125,0.014556884765625
1732873804132034000,8.533033935546875,-1.0228424072265625,-0.1500396728515625,0.00665283203125
1732873804142030000,8.543030029296874,-1.046112060546875,-0.1483001708984375,-0.0036163330078125
1732873804152025000,8.553025146484375,-1.055908203125,-0.1570892333984375,-0.0225067138671875
1732873804162020000,8.56302001953125,-1.0442047119140625,-0.1760101318359375,-0.0389556884765625
1732873804172015000,8.57301513671875,-1.0207366943359375,-0.1940460205078125,-0.0455474853515625
1732873804182011100,8.58301123046875,-0.99444580078125,-0.21038818359375,-0.0408782958984375
1732873804192006100,8.593006103515625,-0.970184326171875,-0.22650146484375,-0.0402069091796875
1732873804202001200,8.603001220703124,-0.9553375244140625,-0.2313690185546875,-0.0421905517578125
1732873804211996200,8.61299609375,-0.959625244140625,-0.231536865234375,-0.0485076904296875
1732873804221992000,8.622991943359375,-0.995849609375,-0.2272491455078125,-0.054107666015625
1732873804231987000,8.632987060546874,-1.0595245361328125,-0.222930908203125,-0.060211181640625
1732873804241982000,8.64298193359375,-1.1249542236328125,-0.2146148681640625,-0.0637054443359375
1732873804251977200,8.652977294921875,-1.1831817626953125,-0.19500732421875,-0.0574798583984375
1732873804261972200,8.66297216796875,-1.2339324951171875,-0.17303466796875,-0.0456695556640625
1732873804271968000,8.672968017578125,-1.268585205078125,-0.16790771484375,-0.025604248046875
1732873804281963000,8.682962890625,-1.2877044677734375,-0.1819000244140625,0.0062103271484375
1732873804291958000,8.6929580078125,-1.2876739501953125,-0.2145843505859375,0.02667236328125
1732873804301953000,8.702953125,-1.2707061767578125,-0.233642578125,0.039306640625
1732873804311949000,8.712948974609375,-1.2454071044921875,-0.185333251953125,0.0537567138671875
1732873804321944000,8.722944091796874,-1.245361328125,-0.0653228759765625,0.052520751953125
1732873804331939000,8.73293896484375,-1.303680419921875,0.0728302001953125,0.043914794921875
1732873804341934000,8.74293408203125,-1.4066619873046875,0.176025390625,0.055511474609375
1732873804351929000,8.75292919921875,-1.5126800537109375,0.2136077880859375,0.0904998779296875
1732873804361925000,8.762925048828125,-1.5557708740234375,0.181243896484375,0.1287078857421875
1732873804371920100,8.772920166015625,-1.5023651123046875,0.1073760986328125,0.1484832763671875
1732873804381915100,8.7829150390625,-1.363494873046875,0.042755126953125,0.151611328125
1732873804391910100,8.79291015625,-1.1688995361328125,0.01605224609375,0.1530609130859375
1732873804401906000,8.802906005859375,-0.9610748291015625,-0.01580810546875,0.1600341796875
1732873804411901000,8.81290087890625,-0.7581939697265625,-0.0680084228515625,0.167877197265625
1732873804421896000,8.82289599609375,-0.58172607421875,-0.10577392578125,0.176849365234375
1732873804431891200,8.83289111328125,-0.4696807861328125,-0.1553192138671875,0.18670654296875
1732873804441886200,8.84288623046875,-0.4143524169921875,-0.197479248046875,0.2082977294921875
1732873804451882200,8.85288232421875,-0.4083709716796875,-0.2018585205078125,0.2185516357421875
1732873804461877000,8.862876953125,-0.460052490234375,-0.18853759765625,0.21392822265625
1732873804471871500,8.87287158203125,-0.5630035400390625,-0.1651611328125,0.1862640380859375
1732873804481866500,8.882866455078124,-0.681884765625,-0.1312255859375,0.1417694091796875
1732873804491862500,8.892862548828125,-0.7940521240234375,-0.1038055419921875,0.1035308837890625
1732873804501857500,8.902857421875,-0.906494140625,-0.080902099609375,0.0681915283203125
1732873804511852500,8.9128525390625,-1.0071563720703125,-0.0620269775390625,0.0362701416015625
1732873804521847600,8.92284765625,-1.0784149169921875,-0.05072021484375,0.02630615234375
1732873804531842800,8.9328427734375,-1.1073760986328125,-0.0558319091796875,0.02813720703125
1732873804541838600,8.942838623046875,-1.090576171875,-0.07928466796875,0.02752685546875
1732873804551833600,8.95283349609375,-1.0350799560546875,-0.1121368408203125,0.017669677734375
1732873804561828600,8.96282861328125,-0.9575042724609375,-0.146484375,0.0007171630859375
1732873804571823600,8.97282373046875,-0.8771209716796875,-0.1740264892578125,-0.0207366943359375
1732873804581819600,8.982819580078125,-0.80419921875,-0.197967529296875,-0.040740966796875
1732873804591814400,8.992814453125,-0.7498779296875,-0.217498779296875,-0.0543060302734375
1732873804601809400,9.002809326171874,-0.7146148681640625,-0.231719970703125,-0.047332763671875
1732873804611804400,9.012804443359375,-0.6981658935546875,-0.242645263671875,-0.02947998046875
1732873804621800700,9.02280078125,-0.707427978515625,-0.248291015625,-0.016571044921875
1732873804631795700,9.032795654296875,-0.7422637939453125,-0.2436981201171875,-0.0059051513671875
1732873804641790700,9.042790771484375,-0.8012542724609375,-0.2329559326171875,0.0149078369140625
1732873804651785700,9.05278564453125,-0.86578369140625,-0.2167816162109375,0.0371551513671875
1732873804661780500,9.062780517578124,-0.9323883056640625,-0.20843505859375,0.0506744384765625
1732873804671776500,9.072776611328125,-0.99163818359375,-0.206298828125,0.0695953369140625
1732873804681771500,9.082771484375,-1.033203125,-0.2088165283203125,0.086700439453125
1732873804691766500,9.0927666015625,-1.0605316162109375,-0.216705322265625,0.087799072265625
1732873804701761500,9.102761474609375,-1.065460205078125,-0.22491455078125,0.085662841796875
1732873804711757600,9.112757568359376,-1.0566558837890625,-0.2275238037109375,0.0795440673828125
1732873804721752600,9.122752685546875,-1.056732177734375,-0.22857666015625,0.0662994384765625
1732873804731747600,9.13274755859375,-1.0754241943359375,-0.231109619140625,0.049072265625
1732873804741742600,9.14274267578125,-1.105987548828125,-0.2359771728515625,0.03009033203125
1732873804751737600,9.152737548828124,-1.14349365234375,-0.2432708740234375,0.0138092041015625
1732873804761733600,9.162733642578125,-1.184906005859375,-0.2342071533203125,0.002288818359375
1732873804771728600,9.172728759765626,-1.2288970947265625,-0.190032958984375,-0.0102081298828125
1732873804781723400,9.182723388671874,-1.2777557373046875,-0.1465301513671875,-0.0218658447265625
1732873804791718400,9.192718505859375,-1.3276214599609375,-0.16009521484375,-0.0318450927734375
1732873804801714700,9.202714599609376,-1.3632659912109375,-0.19921875,-0.0540618896484375
1732873804811709700,9.212709716796875,-1.374725341796875,-0.18408203125,-0.082855224609375
1732873804821704700,9.22270458984375,-1.35821533203125,-0.0855560302734375,-0.1004486083984375
1732873804831699700,9.23269970703125,-1.34857177734375,0.04949951171875,-0.09564208984375
1732873804841694700,9.24269482421875,-1.37689208984375,0.1609954833984375,-0.0818939208984375
1732873804851690500,9.2526904296875,-1.4352874755859375,0.2129364013671875,-0.0625
1732873804861685500,9.262685546875,-1.4809417724609375,0.1999359130859375,-0.029510498046875
1732873804871680500,9.272680419921874,-1.455474853515625,0.1356964111328125,-0.0006561279296875
1732873804881675500,9.282675537109375,-1.334075927734375,0.0728607177734375,-0.0008697509765625
1732873804891671600,9.292671630859376,-1.166961669921875,0.0393218994140625,-0.0148468017578125
1732873804901666600,9.30266650390625,-0.979217529296875,0.008758544921875,-0.04315185546875
1732873804911661600,9.31266162109375,-0.7937774658203125,-0.0362701416015625,-0.074127197265625
1732873804921656600,9.322656494140626,-0.6398468017578125,-0.0782012939453125,-0.0972747802734375
1732873804931651600,9.332651611328124,-0.5430755615234375,-0.11785888671875,-0.10736083984375
1732873804941647600,9.342647705078125,-0.507049560546875,-0.1444244384765625,-0.124725341796875
1732873804951642600,9.352642578125,-0.498138427734375,-0.147979736328125,-0.145050048828125
1732873804961637400,9.362637451171874,-0.53662109375,-0.1288604736328125,-0.1243438720703125
1732873804971632400,9.37263232421875,-0.6060638427734375,-0.1037750244140625,-0.1111297607421875
1732873804981628700,9.382628662109376,-0.7078399658203125,-0.0790557861328125,-0.101318359375
1732873804991623700,9.392623779296875,-0.82049560546875,-0.0479736328125,-0.0840911865234375
1732873805001618700,9.40261865234375,-0.925384521484375,-0.0277862548828125,-0.0693817138671875
1732873805011613700,9.41261376953125,-1.00079345703125,-0.0177764892578125,-0.0447235107421875
1732873805021608700,9.422608642578124,-1.05078125,-0.0235443115234375,-0.0229034423828125
1732873805031604500,9.4326044921875,-1.071533203125,-0.038360595703125,-0.0001678466796875
1732873805041599500,9.442599609375,-1.0636444091796875,-0.0526123046875,0.0307769775390625
1732873805051594500,9.452594482421874,-1.0159759521484375,-0.068115234375,0.053131103515625
1732873805061589500,9.462589599609375,-0.9420013427734375,-0.0959930419921875,0.05987548828125
1732873805071585500,9.47258544921875,-0.877532958984375,-0.134063720703125,0.0601348876953125
1732873805081580500,9.48258056640625,-0.82049560546875,-0.1613922119140625,0.052734375
1732873805091575600,9.492575439453125,-0.77545166015625,-0.188385009765625,0.04644775390625
1732873805101570600,9.502570556640626,-0.7476043701171875,-0.216064453125,0.05615234375
1732873805111565600,9.512565673828124,-0.7326202392578125,-0.2302703857421875,0.06207275390625
1732873805121561600,9.5225615234375,-0.7428436279296875,-0.2389678955078125,0.0581207275390625
1732873805131556600,9.532556640625,-0.771697998046875,-0.2397308349609375,0.051361083984375
1732873805141551600,9.542551513671874,-0.81610107421875,-0.2483062744140625,0.03875732421875
1732873805151546400,9.55254638671875,-0.867340087890625,-0.252471923828125,0.0305633544921875
1732873805161542700,9.562542724609376,-0.9108123779296875,-0.2592926025390625,0.0269927978515625
1732873805171537700,9.57253759765625,-0.9339447021484375,-0.2591552734375,0.018463134765625
1732873805181532700,9.58253271484375,-0.9430999755859375,-0.24847412109375,0.0005645751953125
1732873805191527700,9.592527587890626,-0.9423980712890625,-0.234344482421875,-0.0240020751953125
1732873805201522700,9.602522705078124,-0.9431610107421875,-0.228240966796875,-0.0472869873046875
1732873805211518500,9.6125185546875,-0.9366912841796875,-0.22003173828125,-0.063018798828125
1732873805221513500,9.622513427734376,-0.927337646484375,-0.2210693359375,-0.074798583984375
1732873805231508500,9.632508544921874,-0.930419921875,-0.2186279296875,-0.08544921875
1732873805241503500,9.64250341796875,-0.9429473876953125,-0.2057952880859375,-0.08984375
1732873805251499800,9.652499755859376,-0.9727630615234375,-0.196563720703125,-0.0870208740234375
1732873805261494500,9.66249462890625,-1.0142059326171875,-0.1895904541015625,-0.0661468505859375
1732873805271489500,9.672489501953125,-1.0659637451171875,-0.1761016845703125,-0.0281982421875
1732873805281484500,9.682484619140626,-1.12628173828125,-0.156982421875,-0.0020294189453125
1732873805291480600,9.69248046875,-1.1847381591796875,-0.138458251953125,0.022430419921875
1732873805301475600,9.7024755859375,-1.2440338134765625,-0.1382904052734375,0.0534515380859375
1732873805311470600,9.712470703125,-1.29022216796875,-0.1578521728515625,0.08319091796875
1732873805321465600,9.722465576171874,-1.3125,-0.1824798583984375,0.1084442138671875
1732873805331460400,9.73246044921875,-1.3039093017578125,-0.2050323486328125,0.1382293701171875
1732873805341456600,9.74245654296875,-1.2774505615234375,-0.2388153076171875,0.17022705078125
1732873805351451600,9.75245166015625,-1.2474212646484375,-0.2852325439453125,0.2017822265625
1732873805361446700,9.76244677734375,-1.20489501953125,-0.309844970703125,0.24090576171875
1732873805371441700,9.772441650390626,-1.157958984375,-0.29718017578125,0.28076171875
1732873805381437400,9.7824375,-1.1171417236328125,-0.2095947265625,0.2721710205078125
1732873805391432400,9.792432373046875,-1.1253204345703125,-0.0665283203125,0.2143096923828125
1732873805401427500,9.802427490234376,-1.209503173828125,0.0711822509765625,0.1457977294921875
1732873805411422500,9.81242236328125,-1.2962646484375,0.1513519287109375,0.090606689453125
1732873805421417500,9.82241748046875,-1.3792572021484375,0.1568450927734375,0.0969696044921875
1732873805431413800,9.832413818359376,-1.463043212890625,0.1309356689453125,0.197113037109375
1732873805441408500,9.842408447265624,-1.4552154541015625,0.097930908203125,0.2610321044921875
1732873805451403500,9.852403564453125,-1.344818115234375,0.051910400390625,0.2332763671875
1732873805461398500,9.8623984375,-1.1868438720703125,-0.00555419921875,0.192718505859375
1732873805471394600,9.87239453125,-1.0108795166015625,-0.0455322265625,0.1676788330078125
1732873805481389600,9.8823896484375,-0.839630126953125,-0.0555572509765625,0.1368255615234375
1732873805491384800,9.892384765625,-0.7166900634765625,-0.0638427734375,0.0927886962890625
1732873805501379800,9.9023798828125,-0.642547607421875,-0.0725250244140625,0.0595245361328125
1732873805511374600,9.91237451171875,-0.6343536376953125,-0.072265625,0.0587615966796875
1732873805521370600,9.92237060546875,-0.68450927734375,-0.0693511962890625,0.067413330078125
1732873805531365600,9.93236572265625,-0.74273681640625,-0.0491943359375,0.0622100830078125
1732873805541360600,9.942360595703125,-0.8133087158203125,-0.0261383056640625,0.0558319091796875
1732873805551355600,9.952355712890625,-0.874603271484375,-0.009613037109375,0.0529632568359375
1732873805561351400,9.962351318359374,-0.9210968017578125,-0.007080078125,0.031890869140625
1732873805571346400,9.972346435546875,-0.9406585693359375,-0.0160675048828125,0.01385498046875
1732873805581341700,9.982341796875,-0.934417724609375,-0.0280609130859375,0.012237548828125
1732873805591336700,9.992336669921874,-0.9088134765625,-0.0461578369140625,0.015350341796875
1732873805601331700,10.002331787109375,-0.8776092529296875,-0.0635223388671875,0.0162811279296875
1732873805611327700,10.01232763671875,-0.854827880859375,-0.0872344970703125,0.0195465087890625
1732873805621322800,10.02232275390625,-0.8365478515625,-0.1119384765625,0.0289764404296875
1732873805631317500,10.0323173828125,-0.8261566162109375,-0.1358184814453125,0.0359039306640625
1732873805641312500,10.0423125,-0.8195037841796875,-0.15386962890625,0.0364837646484375
1732873805651308500,10.05230859375,-0.810821533203125,-0.169830322265625,0.030731201171875
1732873805661303600,10.062303466796875,-0.802886962890625,-0.1840362548828125,0.020416259765625
1732873805671298800,10.072298828125,-0.7966766357421875,-0.1936187744140625,0.0133209228515625
1732873805681293800,10.0822939453125,-0.8071441650390625,-0.1954803466796875,0.0126953125
1732873805691288800,10.092288818359375,-0.835052490234375,-0.1942138671875,0.0145721435546875
1732873805701284600,10.10228466796875,-0.87762451171875,-0.186767578125,0.015594482421875
1732873805711279600,10.112279541015624,-0.9291839599609375,-0.1743316650390625,0.02691650390625
1732873805721274600,10.122274658203125,-0.9813995361328125,-0.1655120849609375,0.041748046875
1732873805731269600,10.13226953125,-1.026031494140625,-0.16876220703125,0.0595855712890625
1732873805741265400,10.142265380859374,-1.05291748046875,-0.1799774169921875,0.076629638671875
1732873805751260400,10.152260498046875,-1.0501708984375,-0.1905670166015625,0.0910797119140625
1732873805761255700,10.162255615234375,-1.023284912109375,-0.2002410888671875,0.0987396240234375
1732873805771250700,10.172250732421874,-0.98834228515625,-0.2052154541015625,0.1060943603515625
1732873805781245700,10.18224560546875,-0.9612579345703125,-0.2067718505859375,0.104217529296875
1732873805791241700,10.19224169921875,-0.953643798828125,-0.203155517578125,0.0897674560546875
1732873805801236700,10.20223681640625,-0.968963623046875,-0.208648681640625,0.076751708984375
1732873805811231500,10.2122314453125,-0.996612548828125,-0.2078857421875,0.0764007568359375
1732873805821226500,10.2222265625,-1.020660400390625,-0.195526123046875,0.0734710693359375
1732873805831222500,10.232222412109374,-1.0488128662109375,-0.1833648681640625,0.07208251953125
1732873805841217500,10.242217529296875,-1.086090087890625,-0.17718505859375,0.0725555419921875
1732873805851212800,10.252212890625,-1.1146087646484375,-0.180633544921875,0.0732574462890625
1732873805861207800,10.262207763671874,-1.1369476318359375,-0.1850128173828125,0.0738983154296875
1732873805871202800,10.272202880859375,-1.1456451416015625,-0.17437744140625,0.0746002197265625
1732873805881198600,10.282198486328125,-1.14990234375,-0.16400146484375,0.0706939697265625
1732873805891193600,10.292193603515624,-1.158203125,-0.162933349609375,0.059112548828125
1732873805901188600,10.302188720703125,-1.1738128662109375,-0.1576995849609375,0.049468994140625
1732873805911183600,10.31218359375,-1.190826416015625,-0.1186676025390625,0.04229736328125
1732873805921179600,10.3221796875,-1.2245635986328125,-0.055572509765625,0.0262451171875
1732873805931174400,10.33217431640625,-1.2831573486328125,0.0098419189453125,0.0036468505859375
1732873805941169700,10.342169677734375,-1.354156494140625,0.066925048828125,-0.002716064453125
1732873805951164700,10.35216455078125,-1.4216156005859375,0.091156005859375,-0.005889892578125
1732873805961159700,10.36215966796875,-1.4470672607421875,0.07818603515625,-0.024200439453125
1732873805971155700,10.37215576171875,-1.3889923095703125,0.039886474609375,-0.03021240234375
1732873805981150700,10.382150634765624,-1.2603759765625,-0.0033416748046875,-0.02227783203125
1732873805991145700,10.392145751953125,-1.0889129638671875,-0.0456695556640625,-0.0207977294921875
1732873806001140500,10.402140380859375,-0.9150543212890625,-0.0867462158203125,-0.0370635986328125
1732873806011136500,10.412136474609374,-0.767486572265625,-0.12762451171875,-0.0581207275390625
1732873806021131500,10.422131591796875,-0.649688720703125,-0.146820068359375,-0.06561279296875
1732873806031126800,10.432126708984375,-0.569183349609375,-0.144439697265625,-0.0727691650390625
1732873806041121800,10.442121826171874,-0.537628173828125,-0.1274261474609375,-0.08575439453125
1732873806051116800,10.45211669921875,-0.5664215087890625,-0.0868072509765625,-0.105224609375
1732873806061112600,10.462112548828125,-0.640045166015625,-0.0500946044921875,-0.110198974609375
1732873806071107600,10.472107666015624,-0.7532958984375,-0.01861572265625,-0.0895233154296875
1732873806081102600,10.4821025390625,-0.882476806640625,0.011932373046875,-0.0612030029296875
1732873806091097600,10.49209765625,-1.0040283203125,0.0154266357421875,-0.0382232666015625
1732873806101093600,10.50209375,-1.0903778076171875,-0.0029144287109375,-0.026763916015625
1732873806111088600,10.512088623046875,-1.12799072265625,-0.0317230224609375,-0.01190185546875
1732873806121083600,10.522083740234375,-1.1060333251953125,-0.04913330078125,0.010650634765625
1732873806131078700,10.53207861328125,-1.0453033447265625,-0.069061279296875,0.0239410400390625
1732873806141073700,10.54207373046875,-0.971771240234375,-0.1012420654296875,0.0277252197265625
1732873806151069700,10.552069580078125,-0.9041900634765625,-0.13397216796875,0.037109375
1732873806161064700,10.562064697265624,-0.85162353515625,-0.1644439697265625,0.05841064453125
1732873806171059700,10.572059814453125,-0.8204193115234375,-0.18560791015625,0.0772857666015625
1732873806181054700,10.5820546875,-0.814697265625,-0.1924285888671875,0.0948028564453125
1732873806191050500,10.592050537109374,-0.8370361328125,-0.2002105712890625,0.120391845703125
1732873806201045800,10.602045654296875,-0.8550872802734375,-0.1894683837890625,0.142059326171875
1732873806211040800,10.612040771484375,-0.8741455078125,-0.175140380859375,0.157470703125
1732873806221035800,10.622035888671874,-0.899200439453125,-0.1620941162109375,0.1667327880859375
1732873806231030800,10.63203076171875,-0.9341583251953125,-0.1492156982421875,0.1707000732421875
1732873806241026600,10.642026611328125,-0.969573974609375,-0.129180908203125,0.178375244140625
1732873806251021600,10.652021484375,-1.0081939697265625,-0.1089019775390625,0.17193603515625
1732873806261016600,10.6620166015625,-1.04754638671875,-0.0955047607421875,0.150543212890625
1732873806271011600,10.672011474609375,-1.0920257568359375,-0.0913238525390625,0.1210479736328125
1732873806281007600,10.682007568359374,-1.125579833984375,-0.076385498046875,0.090850830078125
1732873806291002600,10.692002685546875,-1.150482177734375,-0.071136474609375,0.070587158203125
1732873806300997600,10.70199755859375,-1.15863037109375,-0.066436767578125,0.0553131103515625
1732873806310992600,10.71199267578125,-1.161102294921875,-0.0566558837890625,0.0489654541015625
1732873806320987600,10.721987548828125,-1.1631927490234375,-0.0614776611328125,0.0427093505859375
1732873806330983700,10.731983642578125,-1.1605377197265625,-0.082794189453125,0.029266357421875
1732873806340978700,10.741978759765624,-1.145416259765625,-0.116668701171875,0.0210113525390625
1732873806350973700,10.7519736328125,-1.10577392578125,-0.1446380615234375,0.01788330078125
1732873806360968700,10.76196875,-1.0431671142578125,-0.1504058837890625,0.03125
1732873806370964500,10.771964599609374,-0.9788360595703125,-0.131439208984375,0.0515289306640625
1732873806380959700,10.781959716796875,-0.9345855712890625,-0.08526611328125,0.0721588134765625
1732873806390954800,10.791954833984375,-0.939544677734375,-0.0399017333984375,0.0969696044921875
1732873806400949800,10.80194970703125,-0.9850006103515625,-0.0080413818359375,0.1198272705078125
1732873806410944800,10.81194482421875,-1.0457611083984375,0.008148193359375,0.138671875
1732873806420940500,10.8219404296875,-1.094085693359375,0.011993408203125,0.152557373046875
1732873806430935600,10.831935546875,-1.101593017578125,0.0011138916015625,0.1590423583984375
1732873806440930600,10.8419306640625,-1.0688934326171875,-0.0219573974609375,0.1632537841796875
1732873806450925600,10.851925537109375,-0.9979095458984375,-0.038665771484375,0.1670379638671875
1732873806460921600,10.861921630859374,-0.92205810546875,-0.064727783203125,0.174285888671875
1732873806470916900,10.871916748046875,-0.8589630126953125,-0.0782470703125,0.1840362548828125
1732873806480911600,10.88191162109375,-0.815277099609375,-0.092071533203125,0.180267333984375
1732873806490907000,10.891906982421874,-0.8003082275390625,-0.09381103515625,0.182098388671875
1732873806500902000,10.90190185546875,-0.8090362548828125,-0.0930328369140625,0.1844940185546875
1732873806510898000,10.91189794921875,-0.8359375,-0.08062744140625,0.1885223388671875
1732873806520893000,10.921892822265624,-0.8807525634765625,-0.0823211669921875,0.18377685546875
1732873806530888000,10.931887939453125,-0.93365478515625,-0.0727691650390625,0.181793212890625
1732873806540883000,10.941883056640625,-0.979949951171875,-0.0544586181640625,0.177032470703125
1732873806550878700,10.951878662109374,-1.022125244140625,-0.0523529052734375,0.154571533203125
1732873806560873700,10.961873779296875,-1.053558349609375,-0.0545806884765625,0.1367340087890625
1732873806570868700,10.97186865234375,-1.0743255615234375,-0.0517425537109375,0.119171142578125
1732873806580864000,10.981864013671874,-1.087310791015625,-0.0501251220703125,0.099395751953125
1732873806590859000,10.99185888671875,-1.0896453857421875,-0.05487060546875,0.08404541015625
1732873806600854800,11.001854736328125,-1.081329345703125,-0.0587158203125,0.0771636962890625
1732873806610849800,11.011849853515624,-1.074066162109375,-0.06402587890625,0.075164794921875
1732873806620844800,11.0218447265625,-1.066497802734375,-0.0731658935546875,0.0772552490234375
1732873806630839800,11.03183984375,-1.05804443359375,-0.0774993896484375,0.09014892578125
1732873806640834800,11.041834716796876,-1.0505218505859375,-0.08709716796875,0.1041107177734375
1732873806650830800,11.051830810546875,-1.0404205322265625,-0.09521484375,0.12646484375
1732873806660825900,11.061825927734375,-1.027374267578125,-0.0994720458984375,0.166290283203125
1732873806670820900,11.07182080078125,-1.014251708984375,-0.0958709716796875,0.2033233642578125
1732873806680815900,11.08181591796875,-0.9983978271484375,-0.0899505615234375,0.238494873046875
1732873806690812000,11.09181201171875,-0.9864501953125,-0.092803955078125,0.272796630859375
1732873806700807000,11.101806884765624,-0.979644775390625,-0.0946807861328125,0.3077239990234375
1732873806710802000,11.111802001953125,-0.9832000732421875,-0.0843048095703125,0.32843017578125
1732873806720797000,11.121796875,-0.9895782470703125,-0.079254150390625,0.3422393798828125
1732873806730791700,11.131791748046876,-1.010589599609375,-0.0707855224609375,0.3592681884765625
1732873806740787700,11.14178759765625,-1.037139892578125,-0.0638580322265625,0.36529541015625
1732873806750782700,11.15178271484375,-1.06390380859375,-0.06317138671875,0.364501953125
1732873806760778000,11.161778076171874,-1.0780792236328125,-0.0674591064453125,0.3568115234375
1732873806770773000,11.17177294921875,-1.0780181884765625,-0.069793701171875,0.348602294921875
1732873806780768800,11.181768798828125,-1.0631866455078125,-0.0657196044921875,0.3377838134765625
1732873806790763800,11.191763671875,-1.0482025146484375,-0.063812255859375,0.3211822509765625
1732873806800758800,11.2017587890625,-1.0458984375,-0.0649566650390625,0.298858642578125
1732873806810753800,11.21175390625,-1.05615234375,-0.0675506591796875,0.2717437744140625
1732873806820748800,11.221748779296876,-1.055389404296875,-0.05999755859375,0.2473602294921875
1732873806830744800,11.231744873046875,-1.03607177734375,-0.046234130859375,0.2177886962890625
1732873806840739800,11.24173974609375,-1.014923095703125,-0.0383453369140625,0.1771392822265625
1732873806850734800,11.25173486328125,-0.99853515625,-0.033599853515625,0.145965576171875
1732873806860729900,11.261729736328125,-0.9853668212890625,-0.022552490234375,0.1214141845703125
1732873806870726000,11.271725830078125,-0.9857177734375,-0.0136566162109375,0.0967864990234375
1732873806880721000,11.281720947265624,-0.9933624267578125,-0.0081024169921875,0.07952880859375
1732873806890716000,11.2917158203125,-0.9948272705078125,-0.0070343017578125,0.073150634765625
1732873806900711000,11.3017109375,-0.9886016845703125,-0.0159149169921875,0.0625457763671875
1732873806910706000,11.311705810546876,-0.96624755859375,-0.0298614501953125,0.05596923828125
1732873806920701700,11.32170166015625,-0.9388580322265625,-0.0402069091796875,0.06011962890625
1732873806930696700,11.33169677734375,-0.919830322265625,-0.04571533203125,0.0732879638671875
1732873806940692000,11.34169189453125,-0.905242919921875,-0.0459136962890625,0.079742431640625
1732873806950687000,11.35168701171875,-0.8957061767578125,-0.0477447509765625,0.08062744140625
1732873806960682000,11.361681884765625,-0.9007568359375,-0.0552520751953125,0.0777740478515625
1732873806970677800,11.371677734375,-0.9097442626953125,-0.0589141845703125,0.075714111328125
1732873806980672800,11.3816728515625,-0.9163665771484375,-0.060699462890625,0.071502685546875
1732873806990667800,11.391667724609375,-0.9138946533203125,-0.07177734375,0.06744384765625
1732873807000662800,11.401662841796876,-0.9003448486328125,-0.083648681640625,0.0672760009765625
1732873807010658800,11.411658935546875,-0.8771209716796875,-0.096771240234375,0.0653228759765625
1732873807020653800,11.42165380859375,-0.844146728515625,-0.107818603515625,0.0637969970703125
1732873807030648800,11.43164892578125,-0.8200531005859375,-0.122039794921875,0.071044921875
1732873807040643800,11.441643798828125,-0.8155364990234375,-0.1340789794921875,0.0888214111328125
1732873807050638800,11.451638916015625,-0.8319244384765625,-0.1325225830078125,0.097930908203125
1732873807060635000,11.461634765625,-0.87274169921875,-0.1225128173828125,0.1108856201171875
1732873807070630000,11.4716298828125,-0.938568115234375,-0.1120147705078125,0.1202545166015625
1732873807080625000,11.481625,-1.000518798828125,-0.0999298095703125,0.12677001953125
1732873807090620000,11.491619873046876,-1.0562286376953125,-0.0835418701171875,0.1290283203125
1732873807100615700,11.50161572265625,-1.1028289794921875,-0.0669403076171875,0.1197662353515625
1732873807110610700,11.511610595703125,-1.12799072265625,-0.05059814453125,0.10455322265625
1732873807120606000,11.52160595703125,-1.1434478759765625,-0.034271240234375,0.088623046875
1732873807130601000,11.53160107421875,-1.14837646484375,-0.02154541015625,0.06768798828125
1732873807140596000,11.541595947265625,-1.147979736328125,-0.0192718505859375,0.0562896728515625
1732873807150591700,11.551591796875,-1.1348724365234375,-0.02490234375,0.04974365234375
1732873807160586800,11.561586669921875,-1.1143035888671875,-0.0297088623046875,0.0475006103515625
1732873807170581800,11.571581787109375,-1.0868682861328125,-0.03076171875,0.036102294921875
1732873807180576800,11.58157666015625,-1.0550537109375,-0.033538818359375,0.016326904296875
1732873807190571800,11.59157177734375,-1.0260467529296875,-0.035125732421875,-0.0011749267578125
1732873807200567800,11.60156787109375,-1.0042877197265625,-0.0360565185546875,-0.01629638671875
1732873807210563000,11.61156298828125,-0.985992431640625,-0.0392608642578125,-0.020355224609375
1732873807220557800,11.621557861328125,-0.9796142578125,-0.0403289794921875,-0.010009765625
1732873807230552800,11.631552734375,-0.9788055419921875,-0.042449951171875,0.0016632080078125
1732873807240548900,11.641548828125,-0.9698944091796875,-0.034942626953125,0.0097808837890625
1732873807250543900,11.6515439453125,-0.959442138671875,-0.022613525390625,0.005340576171875
1732873807260539000,11.661538818359375,-0.958038330078125,-0.012969970703125,0.0065155029296875
1732873807270534000,11.671533935546876,-0.962249755859375,-0.0064544677734375,0.01544189453125
1732873807280529000,11.68152880859375,-0.97265625,0.0022125244140625,0.007965087890625
1732873807290525000,11.69152490234375,-0.986236572265625,0.0125732421875,-0.0074310302734375
1732873807300520000,11.70152001953125,-0.9929046630859375,0.0294647216796875,-0.019439697265625
1732873807310515000,11.711514892578125,-0.99603271484375,0.0484466552734375,-0.032806396484375
1732873807320510000,11.721510009765625,-1.007659912109375,0.0552825927734375,-0.0512847900390625
1732873807330505000,11.7315048828125,-1.0115509033203125,0.055694580078125,-0.0694732666015625
1732873807340500700,11.741500732421875,-1.0277862548828125,0.051727294921875,-0.0757293701171875
1732873807350495700,11.751495849609375,-1.05078125,0.048858642578125,-0.0811309814453125
1732873807360490800,11.76149072265625,-1.064849853515625,0.0452423095703125,-0.088958740234375
1732873807370485800,11.77148583984375,-1.0796356201171875,0.0325927734375,-0.096710205078125
1732873807380482000,11.78148193359375,-1.0997772216796875,0.0257720947265625,-0.1049957275390625
1732873807390477000,11.79147705078125,-1.1078643798828125,0.022125244140625,-0.1134033203125
1732873807400471800,11.801471923828124,-1.1060333251953125,0.0196990966796875,-0.1185760498046875
1732873807410466800,11.811466796875,-1.1021575927734375,0.025115966796875,-0.1229095458984375
1732873807420461800,11.8214619140625,-1.1122283935546875,0.0328369140625,-0.1313018798828125
1732873807430457900,11.831457763671875,-1.130645751953125,0.042816162109375,-0.136474609375
1732873807440452900,11.841452880859375,-1.14764404296875,0.05047607421875,-0.14453125
1732873807450448000,11.85144775390625,-1.1474761962890625,0.0532379150390625,-0.15625
1732873807460443000,11.86144287109375,-1.1248626708984375,0.0455474853515625,-0.1714935302734375
1732873807470439200,11.871439208984375,-1.0816650390625,0.0304412841796875,-0.160369873046875
1732873807480434200,11.88143408203125,-1.0321502685546875,0.0133056640625,-0.1420745849609375
1732873807490429200,11.89142919921875,-0.9958953857421875,-0.0014801025390625,-0.12152099609375
1732873807500424200,11.901424072265625,-0.97515869140625,-0.0090179443359375,-0.09490966796875
1732873807510419200,11.911419189453126,-0.967010498046875,-0.0106048583984375,-0.0672760009765625
1732873807520415200,11.921415283203125,-0.97662353515625,-0.01171875,-0.0438232421875
1732873807530410200,11.93141015625,-0.985992431640625,-0.00616455078125,-0.02923583984375
1732873807540405200,11.9414052734375,-0.991455078125,0.000274658203125,-0.0230560302734375
1732873807550400300,11.951400146484374,-0.9883575439453125,0.0103607177734375,-0.0292205810546875
1732873807560395300,11.961395263671875,-0.98065185546875,0.0147705078125,-0.0293426513671875
1732873807570391300,11.971391357421876,-0.9635009765625,0.014617919921875,-0.0263519287109375
1732873807580386000,11.981385986328124,-0.95086669921875,0.0152130126953125,-0.021728515625
1732873807590381000,11.991381103515625,-0.944854736328125,0.0202789306640625,-0.0137939453125
1732873807600376000,12.0013759765625,-0.9520263671875,0.0272369384765625,-0.0058746337890625
1732873807610371000,12.01137109375,-0.9707794189453125,0.028839111328125,-0.0016326904296875
1732873807620367400,12.021367431640625,-0.9849090576171875,0.0296173095703125,-0.001617431640625
1732873807630362400,12.0313623046875,-0.994598388671875,0.0250244140625,-0.00042724609375
1732873807640357400,12.041357421875,-0.99444580078125,0.012786865234375,0.00531005859375
1732873807650352000,12.05135205078125,-0.9904937744140625,-0.0005950927734375,0.0095672607421875
1732873807660348200,12.06134814453125,-0.9747772216796875,-0.016357421875,0.007659912109375
1732873807670343200,12.07134326171875,-0.9508209228515625,-0.0257568359375,0.007171630859375
1732873807680338200,12.081338134765625,-0.9285888671875,-0.0308990478515625,0.0133209228515625
1732873807690333200,12.091333251953126,-0.9167327880859375,-0.030517578125,0.0166473388671875
1732873807700328200,12.101328125,-0.9250030517578125,-0.03033447265625,0.0106658935546875
1732873807710324200,12.11132421875,-0.9433441162109375,-0.031494140625,0.0145111083984375
1732873807720319200,12.1213193359375,-0.9696502685546875,-0.041168212890625,0.0161895751953125
1732873807730314200,12.131314208984374,-0.9951324462890625,-0.0500946044921875,0.0126495361328125
1732873807740309200,12.141309326171875,-1.021209716796875,-0.056854248046875,0.0057373046875
1732873807750304300,12.15130419921875,-1.052642822265625,-0.0675506591796875,-0.0206146240234375
1732873807760300000,12.161300048828124,-1.0837860107421875,-0.0780029296875,-0.0606842041015625
1732873807770295000,12.171294921875,-1.1077880859375,-0.0844573974609375,-0.103271484375
1732873807780290000,12.1812900390625,-1.13873291015625,-0.0791015625,-0.14837646484375
1732873807790285000,12.19128515625,-1.158172607421875,-0.087066650390625,-0.185089111328125
1732873807800281300,12.20128125,-1.1643218994140625,-0.143310546875,-0.22100830078125
1732873807810276400,12.2112763671875,-1.1491241455078125,-0.19158935546875,-0.216949462890625
1732873807820271400,12.221271240234374,-1.0952911376953125,-0.16961669921875,-0.1141815185546875
1732873807830266000,12.23126611328125,-1.0496368408203125,-0.1289215087890625,0.020294189453125
1732873807840261000,12.24126123046875,-1.0245513916015625,-0.08013916015625,0.1390533447265625
1732873807850257200,12.251257080078124,-1.011016845703125,-0.0346832275390625,0.216766357421875
1732873807860252200,12.261252197265625,-1.0112457275390625,-0.0074005126953125,0.24078369140625
1732873807870247200,12.2712470703125,-1.016265869140625,0.0009613037109375,0.232452392578125
1732873807880242200,12.2812421875,-1.025177001953125,-0.0138397216796875,0.1952362060546875
1732873807890237400,12.291237548828125,-1.0242767333984375,-0.0559234619140625,0.1132965087890625
1732873807900233200,12.301233154296876,-0.9940643310546875,-0.074951171875,0.06134033203125
1732873807910228200,12.311228271484374,-0.962860107421875,-0.092132568359375,0.0285491943359375
1732873807920223200,12.32122314453125,-0.9383544921875,-0.1126861572265625,-0.0057830810546875
1732873807930218200,12.33121826171875,-0.9206085205078125,-0.1229095458984375,-0.016693115234375
1732873807940214300,12.34121435546875,-0.9182281494140625,-0.1358489990234375,-0.039215087890625
1732873807950209000,12.351208984375,-0.92425537109375,-0.1463165283203125,-0.0745086669921875
1732873807960204000,12.3612041015625,-0.9219207763671875,-0.160308837890625,-0.10699462890625
1732873807970199000,12.371198974609374,-0.92559814453125,-0.18115234375,-0.1249542236328125
1732873807980194300,12.3811943359375,-0.9206390380859375,-0.194183349609375,-0.1231689453125
1732873807990190300,12.3911904296875,-0.92431640625,-0.2018280029296875,-0.1293487548828125
1732873808000185300,12.401185302734374,-0.9362335205078125,-0.17266845703125,-0.108245849609375
1732873808010180400,12.411180419921875,-0.9559783935546875,-0.12677001953125,-0.072662353515625
1732873808020175000,12.421175048828125,-0.9952239990234375,-0.09796142578125,-0.0674285888671875
1732873808030170000,12.431170166015624,-1.0467071533203125,-0.0770111083984375,-0.063812255859375
1732873808040166100,12.441166259765625,-1.0941925048828125,-0.06353759765625,-0.054443359375
1732873808050161200,12.4511611328125,-1.1209259033203125,-0.05712890625,-0.0392608642578125
1732873808060156200,12.46115625,-1.117889404296875,-0.063629150390625,-0.0235443115234375
1732873808070151400,12.4711513671875,-1.083343505859375,-0.0777130126953125,-0.0149688720703125
1732873808080147200,12.481147216796876,-1.03326416015625,-0.0992279052734375,-0.007843017578125
1732873808090142200,12.49114208984375,-0.983001708984375,-0.119354248046875,0.0024566650390625
1732873808100137200,12.50113720703125,-0.939697265625,-0.136138916015625,0.009979248046875
1732873808110132200,12.51113232421875,-0.9056243896484375,-0.1523590087890625,0.014404296875
1732873808120127200,12.521127197265624,-0.8795166015625,-0.1683807373046875,0.02008056640625
1732873808130123300,12.531123291015625,-0.8748321533203125,-0.1767425537109375,0.02166748046875
1732873808140118000,12.541117919921875,-0.8887481689453125,-0.1803741455078125,0.0205230712890625
1732873808150113000,12.551113037109374,-0.922332763671875,-0.1778411865234375,0.01959228515625
1732873808160108300,12.5611083984375,-0.9676971435546875,-0.1689605712890625,0.0128173828125
1732873808170103300,12.571103271484375,-1.00677490234375,-0.1535797119140625,0.003570556640625
1732873808180099300,12.581099365234374,-1.032867431640625,-0.1362762451171875,-0.0030975341796875
1732873808190094300,12.59109423828125,-1.0558929443359375,-0.123779296875,-0.0069122314453125
1732873808200089300,12.60108935546875,-1.0694732666015625,-0.11346435546875,-0.0119171142578125
1732873808210084000,12.611083984375,-1.070526123046875,-0.109283447265625,-0.013946533203125
1732873808220080000,12.621080078125,-1.0671539306640625,-0.1098785400390625,-0.0104522705078125
1732873808230075100,12.6310751953125,-1.056640625,-0.1158905029296875,-0.0038909912109375
1732873808240070100,12.641070068359374,-1.025115966796875,-0.12689208984375,-0.0062713623046875
1732873808250065400,12.6510654296875,-0.985931396484375,-0.1330413818359375,0.0005340576171875
1732873808260060400,12.661060302734375,-0.9532928466796875,-0.1329498291015625,0.0105438232421875
1732873808270056200,12.67105615234375,-0.9349822998046875,-0.135498046875,0.0177001953125
1732873808280051200,12.68105126953125,-0.9393310546875,-0.14007568359375,0.027313232421875
1732873808290046200,12.691046142578125,-0.9513092041015625,-0.145782470703125,0.03192138671875
1732873808300041200,12.701041259765624,-0.9627227783203125,-0.145751953125,0.03277587890625
1732873808310036200,12.7110361328125,-0.9716949462890625,-0.1324005126953125,0.0355987548828125
1732873808320032000,12.721031982421875,-0.9856414794921875,-0.121124267578125,0.0399322509765625
1732873808330027000,12.731027099609374,-0.998870849609375,-0.1290130615234375,0.0387115478515625
1732873808340022300,12.741022216796875,-1.0052947998046875,-0.129638671875,0.037139892578125
1732873808350017300,12.751017333984375,-1.006256103515625,-0.1235198974609375,0.0346527099609375
1732873808360012300,12.76101220703125,-0.992340087890625,-0.122650146484375,0.0347442626953125
1732873808370008300,12.77100830078125,-0.98760986328125,-0.133697509765625,0.017547607421875
1732873808380003300,12.78100341796875,-0.9954833984375,-0.1395111083984375,-0.0053863525390625
1732873808389998000,12.790998046875,-0.9961395263671875,-0.146026611328125,-0.016143798828125
1732873808399993000,12.8009931640625,-0.9876708984375,-0.14874267578125,-0.0223388671875
1732873808409989000,12.810989013671875,-0.970672607421875,-0.1476898193359375,-0.032257080078125
1732873808419984100,12.820984130859374,-0.9577789306640625,-0.146942138671875,-0.0361480712890625
1732873808429979400,12.8309794921875,-0.939910888671875,-0.154815673828125,-0.0403900146484375
1732873808439974400,12.840974365234375,-0.9212188720703125,-0.1564178466796875,-0.04534912109375
1732873808449969400,12.850969482421876,-0.924163818359375,-0.150848388671875,-0.04107666015625
1732873808459965200,12.860965087890625,-0.932708740234375,-0.1354522705078125,-0.026824951171875
1732873808469959400,12.87095947265625,-0.9529266357421875,-0.1292724609375,-0.0169677734375
1732873808479954400,12.880954345703126,-0.98626708984375,-0.12103271484375,-0.011138916015625
1732873808489949400,12.890949462890624,-1.0272064208984375,-0.1073760986328125,-0.012237548828125
1732873808499944400,12.9009443359375,-1.0532073974609375,-0.1004486083984375,-0.016143798828125
1732873808509940500,12.9109404296875,-1.0612640380859375,-0.0955657958984375,-0.0177459716796875
1732873808519935500,12.920935546875,-1.0534210205078125,-0.0892486572265625,-0.01898193359375
1732873808529930200,12.93093017578125,-1.0379791259765625,-0.091796875,-0.0242767333984375
