time,seconds_elapsed,z,y,x
1732873795711056400,0.112056396484375,0.01828446425497532,-0.11501020938158035,-0.04297196865081787
1732873795721051400,0.122051513671875,0.016575515270233154,-0.11596841365098953,-0.02297855354845524
1732873795731046400,0.13204638671875,0.022606775164604187,-0.10118494182825089,-0.0020042951218783855
1732873795741041400,0.14204150390625,0.03863021731376648,-0.06463092565536499,0.014580007642507553
1732873795751036400,0.152036376953125,0.053828611969947815,-0.01702159456908703,0.02761431783437729
1732873795761032700,0.16203271484375,0.06524717807769775,0.029947778210043907,0.0380331352353096
1732873795771027500,0.17202734375,0.07082676887512207,0.05330822989344597,0.044309940189123154
1732873795781022500,0.1820224609375,0.06937640905380249,0.05302220582962036,0.04699786752462387
1732873795791017500,0.192017578125,0.06357018649578094,0.04139271378517151,0.04277835786342621
1732873795801012500,0.202012451171875,0.05393487215042114,0.02056892402470112,0.03458460792899132
1732873795811008500,0.212008544921875,0.04243134707212448,-0.0018024274613708258,0.017013603821396828
1732873795821003500,0.22200341796875,0.03111850470304489,-0.012598616071045399,-0.0018010957865044475
1732873795830998500,0.23199853515625,0.023809725418686867,-0.013851366937160492,-0.02052684687077999
1732873795840993300,0.2419931640625,0.02527126856148243,-0.0076211681589484215,-0.03280508518218994
1732873795850988300,0.25198828125,0.026457440108060837,0.003561178920790553,-0.04128299281001091
1732873795860984600,0.261984619140625,0.02316870167851448,0.015399995259940624,-0.03898175433278084
1732873795870979600,0.2719794921875,0.020426444709300995,0.015836220234632492,-0.03220640495419502
1732873795880974600,0.281974609375,0.020558804273605347,0.013435381464660168,-0.021137509495019913
1732873795890969600,0.291969482421875,0.020199012011289597,0.010041981004178524,-0.005276787560433149
1732873795900964600,0.301964599609375,0.011453989893198013,0.009274192154407501,0.0057188719511032104
1732873795910960400,0.31196044921875,0.007482151035219431,0.008347411639988422,0.013532586395740509
1732873795920955400,0.321955322265625,0.0120087256655097,0.0065503111109137535,0.014303571544587612
1732873795930950400,0.331950439453125,0.019665047526359558,0.01056076493114233,0.006315686274319887
1732873795940945400,0.3419453125,0.02424968034029007,0.019422966986894608,-0.002258360618725419
1732873795950941400,0.35194140625,0.0282132625579834,0.03740329667925835,-0.015157381072640419
1732873795960936400,0.3619365234375,0.03328338637948036,0.05678791552782059,-0.02273993380367756
1732873795970931500,0.371931396484375,0.03370549902319908,0.06998973339796066,-0.022895462810993195
1732873795980926500,0.381926513671875,0.036139361560344696,0.07413042336702347,-0.02009142003953457
1732873795990921500,0.39192138671875,0.03777587413787842,0.07094394415616989,-0.009861418977379799
1732873796000917500,0.40191748046875,0.036724723875522614,0.05880632624030113,-0.002912432886660099
1732873796010912500,0.41191259765625,0.034804586321115494,0.049543317407369614,0.004255198873579502
1732873796020907500,0.421907470703125,0.02835148014128208,0.043357059359550476,0.008100003935396671
1732873796030902300,0.43190234375,0.02299586310982704,0.03815670683979988,0.009121593087911606
1732873796040897300,0.441897216796875,0.020237626507878304,0.044985316693782806,0.008015315979719162
1732873796050893600,0.4518935546875,0.01822560839354992,0.05277346447110176,0.013142167590558529
1732873796060888600,0.461888671875,0.01937529630959034,0.05303525552153587,0.015261244960129261
1732873796070883600,0.471883544921875,0.026369288563728333,0.05000750720500946,0.020847758278250694
1732873796080878600,0.481878662109375,0.027362382039427757,0.04196422919631004,0.024155404418706894
1732873796090873600,0.49187353515625,0.02629764936864376,0.03641579672694206,0.027454260736703873
1732873796100869400,0.501869384765625,0.021929001435637474,0.03069612756371498,0.02762550301849842
1732873796110864400,0.511864501953125,0.012065451592206955,0.02526407688856125,0.023023827001452446
1732873796120859400,0.521859375,0.009652627632021904,0.026442525908350945,0.02008769102394581
1732873796130854400,0.5318544921875,0.013860155828297138,0.030228210613131523,0.017848771065473557
1732873796140849400,0.541849365234375,0.021648837253451347,0.04164118692278862,0.01738910935819149
1732873796150845400,0.551845458984375,0.027178624644875526,0.054657384753227234,0.016285495832562447
1732873796160840400,0.56184033203125,0.03381255641579628,0.06759662181138992,0.01997317560017109
1732873796170835500,0.57183544921875,0.03535958752036095,0.058453191071748734,0.01673290692269802
1732873796180830500,0.58183056640625,0.03008333407342434,0.04177514463663101,0.007367901504039764
1732873796190825500,0.591825439453125,0.0222038384526968,0.03269456326961517,0.0021140172611922026
1732873796200821500,0.601821533203125,0.012662798166275024,0.028025776147842407,-0.003805390791967511
1732873796210816300,0.611816162109375,0.0041547976434230804,0.03176991268992424,-0.00875274557620287
1732873796220811300,0.621811279296875,0.0031092404387891293,0.03429112955927849,-0.011346664279699326
1732873796230806300,0.63180615234375,0.005668005906045437,0.035358257591724396,-0.007700796704739332
1732873796240802600,0.641802490234375,0.015105715952813625,0.03431269899010658,-0.004394748248159885
1732873796250797600,0.651797607421875,0.017915884032845497,0.03786082938313484,0.005875732284039259
1732873796260792600,0.66179248046875,0.01938328519463539,0.045401569455862045,0.01667085476219654
1732873796270787600,0.67178759765625,0.011948272585868835,0.04626230522990227,0.020183298736810684
1732873796280782300,0.6817822265625,0.0007744472241029143,0.050511378794908524,0.014386129565536976
1732873796290778400,0.6917783203125,-0.013044162653386593,0.04982801154255867,-0.0057188719511032104
1732873796300773400,0.7017734375,-0.019577430561184883,0.04527267441153526,-0.03427621349692345
1732873796310768400,0.711768310546875,-0.02696024440228939,0.046422358602285385,-0.05692719668149948
1732873796320763400,0.721763427734375,-0.019353725016117096,0.057787131518125534,-0.07347235083580017
1732873796330759400,0.731759521484375,-0.003665042342618108,0.0805550292134285,-0.0756007507443428
1732873796340754400,0.74175439453125,0.0054520233534276485,0.10633070021867752,-0.06483465433120728
1732873796350749400,0.75174951171875,0.012664129957556725,0.12049072980880737,-0.052856557071208954
1732873796360744400,0.761744384765625,0.006857373286038637,0.11314812302589417,-0.03940093517303467
1732873796370739500,0.771739501953125,-0.0037862160243093967,0.079359270632267,-0.03074459731578827
1732873796380735500,0.781735595703125,-0.022009694948792458,0.028736306354403496,-0.02839595451951027
1732873796390730500,0.79173046875,-0.048116397112607956,-0.01212883461266756,-0.022214757278561592
1732873796400725200,0.801725341796875,-0.08053398877382278,-0.03333185613155365,-0.014503042213618755
1732873796410720300,0.81172021484375,-0.09546500444412231,-0.04360553249716759,-0.010236658155918121
1732873796420715500,0.821715576171875,-0.10360335558652878,-0.039629966020584106,-0.010359164327383041
1732873796430711600,0.831711669921875,-0.10953501611948013,-0.028004735708236694,-0.009400425478816032
1732873796440706600,0.84170654296875,-0.12123428285121918,-0.013482785783708096,-0.007261907681822777
1732873796450701600,0.85170166015625,-0.14006203413009644,0.003404052462428808,0.004671184346079826
1732873796460696600,0.861696533203125,-0.16186267137527466,0.014740596525371075,0.018821092322468758
1732873796470692400,0.8716923828125,-0.18890786170959473,0.01636139675974846,0.033967286348342896
1732873796480687600,0.8816875,-0.22187194228172302,0.010426009073853493,0.04150749742984772
1732873796490682600,0.8916826171875,-0.2613503634929657,0.01404790859669447,0.03897056728601456
1732873796500677600,0.901677734375,-0.3219785690307617,0.024294687435030937,0.032344888895750046
1732873796510672600,0.911672607421875,-0.3703969717025757,0.01876942627131939,0.02364061400294304
1732873796520668400,0.92166845703125,-0.37654754519462585,0.006579073145985603,0.02002617157995701
1732873796530663400,0.931663330078125,-0.3681524693965912,-0.00629091914743185,0.04616722837090492
1732873796540658400,0.941658447265625,-0.37244465947151184,-0.027352262288331985,0.09525701403617859
1732873796550653400,0.9516533203125,-0.369735449552536,-0.04765433818101883,0.1667543649673462
1732873796560649500,0.9616494140625,-0.3522278070449829,-0.06089557334780693,0.2450297325849533
1732873796570644700,0.971644775390625,-0.3071383833885193,-0.05105093494057655,0.30704542994499207
1732873796580639500,0.981639404296875,-0.241317018866539,-0.04658481106162071,0.3322890102863312
1732873796590634500,0.991634521484375,-0.20711323618888855,-0.06347724050283432,0.3092587888240814
1732873796600629500,1.00162939453125,-0.25009000301361084,-0.0699593797326088,0.23594994843006134
1732873796610625500,1.01162548828125,-0.36073583364486694,-0.08962229639291763,0.12453287094831467
1732873796620620500,1.02162060546875,-0.5050501227378845,-0.13087785243988037,-0.009603891521692276
1732873796630615600,1.031615478515625,-0.6529032588005066,-0.11999271810054779,-0.1285228282213211
1732873796640610600,1.041610595703125,-0.6947833299636841,-0.0038506644777953625,-0.22572527825832367
1732873796650606300,1.0516064453125,-0.7128301858901978,-0.08041361719369888,-0.33317238092422485
1732873796660601600,1.0616015625,-0.7591447234153748,-0.1674121618270874,-0.4044473469257355
1732873796670596600,1.0715966796875,-0.7964476346969604,-0.24214525520801544,-0.455253541469574
1732873796680591600,1.081591552734375,-0.891010582447052,-0.34551557898521423,-0.5040333271026611
1732873796690586600,1.091586669921875,-1.0951740741729736,-0.4022933840751648,-0.5178082585334778
1732873796700582400,1.10158251953125,-1.2728512287139893,-0.4335514307022095,-0.5143064856529236
1732873796710577400,1.111577392578125,-1.3642021417617798,-0.4166416823863983,-0.4724644720554352
1732873796720572400,1.121572509765625,-1.387879729270935,-0.3455451428890228,-0.3762284815311432
1732873796730567400,1.1315673828125,-1.3755578994750977,-0.25823554396629333,-0.22281576693058014
1732873796740563500,1.1415634765625,-1.3149163722991943,-0.1965133249759674,-0.03680328652262688
1732873796750558700,1.151558837890625,-1.212886095046997,-0.18479594588279724,0.14996446669101715
1732873796760553500,1.161553466796875,-1.1026488542556763,-0.2252964973449707,0.30923667550086975
1732873796770548500,1.171548583984375,-1.0424171686172485,-0.32091835141181946,0.41505393385887146
1732873796780543500,1.18154345703125,-1.054726243019104,-0.40609025955200195,0.4703826904296875
1732873796790539500,1.19153955078125,-1.1352277994155884,-0.4843733310699463,0.4791319668292999
1732873796800534500,1.201534423828125,-1.2670584917068481,-0.535875678062439,0.45997586846351624
1732873796810529500,1.211529541015625,-1.4246838092803955,-0.5571215748786926,0.4363807737827301
1732873796820524500,1.221524658203125,-1.5846670866012573,-0.5511640906333923,0.4230833351612091
1732873796830520300,1.231520263671875,-1.7326020002365112,-0.5319094061851501,0.4096892476081848
1732873796840515600,1.241515625,-1.8434292078018188,-0.5120366811752319,0.38314738869667053
1732873796850510600,1.251510498046875,-1.8331376314163208,-0.5226908922195435,0.3286002576351166
1732873796860505600,1.261505615234375,-1.8396410942077637,-0.5162513852119446,0.2567625343799591
1732873796870500600,1.27150048828125,-1.9008290767669678,-0.5142156481742859,0.16652879118919373
1732873796880496400,1.281496337890625,-1.9595086574554443,-0.5245212912559509,0.049193911254405975
1732873796890491400,1.291491455078125,-2.013075351715088,-0.5178511142730713,-0.1026880294084549
1732873796900486400,1.301486328125,-2.0596683025360107,-0.48514726758003235,-0.2733873426914215
1732873796910481400,1.3114814453125,-2.1003081798553467,-0.4354497492313385,-0.42880114912986755
1732873796920477400,1.3214775390625,-2.1384501457214355,-0.34871962666511536,-0.5367388129234314
1732873796930472700,1.33147265625,-2.17372727394104,-0.24180836975574493,-0.5744771361351013
1732873796940467700,1.3414677734375,-2.2006590366363525,-0.1322893351316452,-0.5187651515007019
1732873796950462500,1.35146240234375,-2.2172796726226807,-0.04800321161746979,-0.36376941204071045
1732873796960457500,1.36145751953125,-2.234910488128662,-0.023195067420601845,-0.1443747580051422
1732873796970453500,1.37145361328125,-2.2524290084838867,-0.06683868169784546,0.07319698482751846
1732873796980448500,1.381448486328125,-2.26764178276062,-0.16942816972732544,0.2320833057165146
1732873796990443500,1.391443603515625,-2.283766269683838,-0.2717668116092682,0.30372872948646545
1732873797000438500,1.4014384765625,-2.298082113265991,-0.3451637923717499,0.29026085138320923
1732873797010434600,1.4114345703125,-2.30212664604187,-0.36876073479652405,0.21029704809188843
1732873797020429600,1.4214296875,-2.2904229164123535,-0.3366214334964752,0.09741630405187607
1732873797030424600,1.431424560546875,-2.2669365406036377,-0.2624864876270294,-0.007822769694030285
1732873797040419600,1.441419677734375,-2.2321252822875977,-0.1759049892425537,-0.07935260981321335
1732873797050414600,1.45141455078125,-2.195709705352783,-0.12073200941085815,-0.10035590082406998
1732873797060410600,1.46141064453125,-2.1726698875427246,-0.11379393935203552,-0.08636870980262756
1732873797070405400,1.4714052734375,-2.1638436317443848,-0.15851055085659027,-0.05131272226572037
1732873797080400400,1.481400390625,-2.178389310836792,-0.25272518396377563,-0.017654094845056534
1732873797090395400,1.4913955078125,-2.207803249359131,-0.3577578663825989,0.000985103310085833
1732873797100391700,1.5013916015625,-2.238424062728882,-0.4459812045097351,-0.00520754512399435
1732873797110386700,1.51138671875,-2.2511098384857178,-0.5002540349960327,-0.03341761231422424
1732873797120381700,1.521381591796875,-2.250079870223999,-0.520324170589447,-0.07794566452503204
1732873797130376700,1.531376708984375,-2.241058111190796,-0.5243548154830933,-0.1354885846376419
1732873797140371500,1.541371337890625,-2.2177181243896484,-0.49776798486709595,-0.19458253681659698
1732873797150367500,1.551367431640625,-2.170320510864258,-0.4342169463634491,-0.23997345566749573
1732873797160362500,1.561362548828125,-2.098768711090088,-0.3342658579349518,-0.26074743270874023
1732873797170357500,1.571357421875,-2.0054209232330322,-0.2022143453359604,-0.24334394931793213
1732873797180352500,1.5813525390625,-1.9133949279785156,-0.09477284550666809,-0.20775052905082703
1732873797190348500,1.5913486328125,-1.8261828422546387,-0.03203010559082031,-0.16616633534431458
1732873797200343600,1.601343505859375,-1.7435108423233032,-0.017195764929056168,-0.13706624507904053
1732873797210338600,1.611338623046875,-1.6842036247253418,-0.04194026067852974,-0.1179327592253685
1732873797220333600,1.62133349609375,-1.6506309509277344,-0.09219277650117874,-0.12173975259065628
1732873797230328600,1.63132861328125,-1.6284548044204712,-0.1505759209394455,-0.14014752209186554
1732873797240324600,1.64132470703125,-1.6227319240570068,-0.18780452013015747,-0.1668233424425125
1732873797250319400,1.6513193359375,-1.6179907321929932,-0.20730365812778473,-0.2038457989692688
1732873797260314400,1.661314453125,-1.6206430196762085,-0.22081387042999268,-0.24856187403202057
1732873797270309400,1.671309326171875,-1.6351449489593506,-0.24332131445407867,-0.30001839995384216
1732873797280305700,1.6813056640625,-1.6669033765792847,-0.2865350842475891,-0.35054630041122437
1732873797290300700,1.69130078125,-1.696617841720581,-0.31717395782470703,-0.3853815197944641
1732873797300295700,1.701295654296875,-1.717231273651123,-0.33108311891555786,-0.3846643269062042
1732873797310290700,1.711290771484375,-1.7185287475585938,-0.3275434970855713,-0.3345295190811157
1732873797320285400,1.721285400390625,-1.6912034749984741,-0.3115525543689728,-0.23274482786655426
1732873797330281500,1.731281494140625,-1.645442008972168,-0.30138885974884033,-0.0955803170800209
1732873797340276500,1.7412763671875,-1.5827126502990723,-0.30852189660072327,0.0445280522108078
1732873797350271500,1.751271484375,-1.521486520767212,-0.32972252368927,0.15431207418441772
1732873797360266500,1.7612666015625,-1.463716745376587,-0.347210168838501,0.20196135342121124
1732873797370262500,1.771262451171875,-1.3987960815429688,-0.3349801301956177,0.1772802472114563
1732873797380257500,1.781257568359375,-1.3289775848388672,-0.27412503957748413,0.0960594192147255
1732873797390252500,1.79125244140625,-1.2538458108901978,-0.19127009809017181,-0.0101375887170434
1732873797400247600,1.80124755859375,-1.1799629926681519,-0.11730185896158218,-0.11099336296319962
1732873797410243600,1.81124365234375,-1.1052278280258179,-0.054248325526714325,-0.1823144108057022
1732873797420238600,1.821238525390625,-1.0349451303482056,-0.0008364989189431071,-0.21218442916870117
1732873797430233600,1.831233642578125,-0.9742703437805176,0.024464862421154976,-0.20828582346439362
1732873797440228400,1.841228271484375,-0.9186345338821411,0.02558099292218685,-0.1745864599943161
1732873797450223400,1.851223388671875,-0.866053581237793,0.020301010459661484,-0.12307452410459518
1732873797460219600,1.8612197265625,-0.8104121685028076,0.016229569911956787,-0.05847875773906708
1732873797470214700,1.871214599609375,-0.7565534710884094,0.003980094101279974,0.008598282001912594
1732873797480210000,1.8812099609375,-0.7106714844703674,-0.013843909837305546,0.07210694998502731
1732873797490205000,1.891204833984375,-0.6583608388900757,-0.025065938010811806,0.12202710658311844
1732873797500200700,1.90120068359375,-0.6024991869926453,-0.02670937590301037,0.14143888652324677
1732873797510195700,1.91119580078125,-0.5513326525688171,-0.019337212666869164,0.12492489069700241
1732873797520190700,1.921190673828125,-0.5133658647537231,-0.00261895265430212,0.0763954371213913
1732873797530185700,1.931185791015625,-0.4792235791683197,0.024152740836143494,0.007987619377672672
1732873797540180700,1.9411806640625,-0.4385078549385071,0.05890725925564766,-0.05605794116854668
1732873797550176500,1.951176513671875,-0.39299070835113525,0.08227117359638214,-0.1069224551320076
1732873797560171500,1.961171630859375,-0.3490261733531952,0.09599390625953674,-0.12766821682453156
1732873797570166800,1.971166748046875,-0.3005824685096741,0.08743663877248764,-0.12215200811624527
1732873797580161800,1.981161865234375,-0.25539207458496094,0.07194556295871735,-0.09983045607805252
1732873797590157800,1.99115771484375,-0.2182290107011795,0.05517324060201645,-0.07102277874946594
1732873797600152800,2.00115283203125,-0.18492963910102844,0.031129423528909683,-0.045521944761276245
1732873797610147800,2.01114794921875,-0.1619793176651001,0.005505819339305162,-0.03349777311086655
1732873797620142600,2.021142578125,-0.14836497604846954,-0.03526557981967926,-0.0399162583053112
1732873797630138600,2.031138671875,-0.14317846298217773,-0.08225146681070328,-0.06861793994903564
1732873797640133600,2.041133544921875,-0.1347287893295288,-0.1060771644115448,-0.11884835362434387
1732873797650128600,2.051128662109375,-0.11352123320102692,-0.10435064136981964,-0.18532352149486542
1732873797660124000,2.0611240234375,-0.06816334277391434,-0.06722643971443176,-0.25647199153900146
1732873797670119000,2.071118896484375,-0.017614413052797318,0.0016317188274115324,-0.311689168214798
1732873797680114700,2.08111474609375,0.034139860421419144,0.0841234028339386,-0.3383655250072479
1732873797690109700,2.091109619140625,0.0761011615395546,0.14359578490257263,-0.3363383412361145
1732873797700104700,2.101104736328125,0.11593405902385712,0.1862439066171646,-0.30068498849868774
1732873797710099700,2.111099609375,0.1313130110502243,0.20045506954193115,-0.2547747790813446
1732873797720095700,2.121095703125,0.1222635954618454,0.18309286236763,-0.21323265135288239
1732873797730090500,2.131090576171875,0.08055130392313004,0.12112802267074585,-0.18259911239147186
1732873797740085500,2.14108544921875,0.009782057255506516,0.024457938969135284,-0.1616104692220688
1732873797750080800,2.151080810546875,-0.08596310764551163,-0.09873909503221512,-0.14932982623577118
1732873797760076800,2.161076904296875,-0.18478289246559143,-0.22055047750473022,-0.13198094069957733
1732873797770071800,2.17107177734375,-0.27787530422210693,-0.3256596028804779,-0.09397123754024506
1732873797780066800,2.18106689453125,-0.3498685359954834,-0.3970014154911041,-0.037215013056993484
1732873797790061800,2.191061767578125,-0.3815697431564331,-0.4120147228240967,0.03725362941622734
1732873797800056600,2.201056640625,-0.3611946702003479,-0.36748266220092773,0.1216454729437828
1732873797810052600,2.211052490234375,-0.2945762276649475,-0.2727801203727722,0.2113921344280243
1732873797820047600,2.221047607421875,-0.19753918051719666,-0.13229519128799438,0.29617759585380554
1732873797830042600,2.231042724609375,-0.10917575657367706,0.009974869899451733,0.36657479405403137
1732873797840038000,2.241037841796875,-0.053697049617767334,0.11960842460393906,0.4032478630542755
1732873797850033700,2.25103369140625,-0.04747244343161583,0.14675748348236084,0.4114115238189697
1732873797860028700,2.261028564453125,-0.07911239564418793,0.07236447930335999,0.4268181622028351
1732873797870023700,2.271023681640625,-0.11949523538351059,-0.04706710949540138,0.49204349517822266
1732873797880018700,2.281018798828125,-0.1345713883638382,-0.12425004690885544,0.607234001159668
1732873797890014700,2.2910146484375,-0.11362616717815399,-0.13933391869068146,0.7532799243927002
1732873797900009700,2.301009765625,-0.031211182475090027,-0.09475979954004288,0.8862472772598267
1732873797910004700,2.311004638671875,0.09881126880645752,0.022602513432502747,0.9865450859069824
1732873797919999500,2.32099951171875,0.2075478583574295,0.20505328476428986,1.0557899475097656
1732873797929994800,2.330994873046875,0.26410913467407227,0.4094628691673279,1.0903029441833496
1732873797939990800,2.34099072265625,0.27058514952659607,0.6135504841804504,1.084069013595581
1732873797949985800,2.35098583984375,0.24152101576328278,0.7621303796768188,1.0299274921417236
1732873797959980800,2.360980712890625,0.23594515025615692,0.8409050703048706,0.9208691716194153
1732873797969975800,2.370975830078125,0.24708221852779388,0.7726525068283081,0.7554512023925781
1732873797979971600,2.3809716796875,0.22956980764865875,0.6251834630966187,0.5567969679832458
1732873797989966600,2.390966552734375,0.19219766557216644,0.44425442814826965,0.35426780581474304
1732873797999961600,2.400961669921875,0.12433899194002151,0.2542314827442169,0.15754568576812744
1732873798009956600,2.41095654296875,0.03609595075249672,0.075764000415802,-0.03110998310148716
1732873798019953000,2.420952880859375,-0.04909564182162285,-0.06991809606552124,-0.222246915102005
1732873798029947600,2.43094775390625,-0.09500507265329361,-0.17906296253204346,-0.4082375466823578
1732873798039942700,2.440942626953125,-0.00902438722550869,-0.26543858647346497,-0.5737839341163635
1732873798049937700,2.450937744140625,0.06053151935338974,-0.3395354449748993,-0.6792157888412476
1732873798059932700,2.4609326171875,0.06832606345415115,-0.43376049399375916,-0.7006486654281616
1732873798069928700,2.4709287109375,0.06673721969127655,-0.557092010974884,-0.613806962966919
1732873798079923700,2.480923828125,0.09882884472608566,-0.6280865669250488,-0.38322460651397705
1732873798089918700,2.490918701171875,0.1828150898218155,-0.5856906175613403,-0.011504589579999447
1732873798099913500,2.50091357421875,0.2927596867084503,-0.4487607479095459,0.4495397210121155
1732873798109909800,2.51090966796875,0.386806845664978,-0.2734110355377197,0.9123917818069458
1732873798119904800,2.52090478515625,0.45273178815841675,-0.1210864782333374,1.2786283493041992
1732873798129899800,2.530899658203125,0.5052549242973328,-0.009399094618856907,1.4873435497283936
1732873798139894800,2.540894775390625,0.52594393491745,0.07986580580472946,1.5273334980010986
1732873798149890600,2.550890625,0.5058916807174683,0.18094049394130707,1.4258873462677002
1732873798159885600,2.560885498046875,0.4560708701610565,0.25589942932128906,1.228064775466919
1732873798169880600,2.570880615234375,0.42144978046417236,0.28780728578567505,0.9807684421539307
1732873798179875600,2.58087548828125,0.3960072696208954,0.2739681601524353,0.7198143601417542
1732873798189870800,2.590870849609375,0.38790377974510193,0.25039759278297424,0.48363032937049866
1732873798199867000,2.600866943359375,0.3926154673099518,0.23463088274002075,0.2996194660663605
1732873798209861600,2.610861572265625,0.4103739559650421,0.19835543632507324,0.1889728456735611
1732873798219856600,2.620856689453125,0.4170265197753906,0.1652965545654297,0.12963469326496124
1732873798229851600,2.6308515625,0.39087560772895813,0.12010723352432251,0.08263576030731201
1732873798239847700,2.64084765625,0.3425528109073639,0.043527502566576004,0.009180182591080666
1732873798249842700,2.6508427734375,0.28564614057540894,-0.04794515669345856,-0.09079621732234955
1732873798259837700,2.660837646484375,0.22595004737377167,-0.1419009417295456,-0.2041589915752411
1732873798269832700,2.670832763671875,0.1400737464427948,-0.23391902446746826,-0.315792053937912
1732873798279828700,2.680828857421875,0.0558592714369297,-0.26195916533470154,-0.41256651282310486
1732873798289823700,2.69082373046875,0.004549744538962841,-0.22570689022541046,-0.48958539962768555
1732873798299818800,2.70081884765625,-0.03249429166316986,-0.16448481380939484,-0.5578632950782776
1732873798309813800,2.710813720703125,-0.05553143471479416,-0.09818834811449051,-0.6271480917930603
1732873798319808800,2.720808837890625,-0.06605491787195206,-0.06133632734417915,-0.6992638111114502
1732873798329804500,2.730804443359375,-0.06699101626873016,-0.0676080733537674,-0.7609868049621582
1732873798339799600,2.740799560546875,-0.0676400288939476,-0.09161274135112762,-0.800157904624939
1732873798349794600,2.750794677734375,-0.05861511081457138,-0.1018667072057724,-0.808060348033905
1732873798359789600,2.76078955078125,-0.03504373878240585,-0.09893164038658142,-0.7946925759315491
1732873798369785900,2.770785888671875,0.00042770366417244077,-0.08019790053367615,-0.7692535519599915
1732873798379780900,2.78078076171875,0.03916870802640915,-0.04579305276274681,-0.7441990375518799
1732873798389776000,2.79077587890625,0.0788428857922554,0.013063604012131691,-0.7340636253356934
1732873798399770600,2.8007705078125,0.11961854249238968,0.09401863813400269,-0.7371139526367188
1732873798409766700,2.8107666015625,0.1540803760290146,0.16610056161880493,-0.7513315081596375
1732873798419761700,2.82076171875,0.17851248383522034,0.22450341284275055,-0.75786292552948
1732873798429756700,2.830756591796875,0.17946882545948029,0.26913079619407654,-0.7586533427238464
1732873798439751700,2.840751708984375,0.16305017471313477,0.252840518951416,-0.7314593195915222
1732873798449747700,2.850747802734375,0.13830061256885529,0.179564967751503,-0.6598255634307861
1732873798459743000,2.860742919921875,0.11246156692504883,0.10486249625682831,-0.5225774645805359
1732873798469738000,2.870738037109375,0.10175672173500061,0.06418005377054214,-0.33945131301879883
1732873798479733000,2.88073291015625,0.1155921071767807,0.06444557011127472,-0.13659273087978363
1732873798489728000,2.89072802734375,0.14454706013202667,0.08886595815420151,0.05667766183614731
1732873798499724000,2.90072412109375,0.1771625280380249,0.12474699318408966,0.2207731157541275
1732873798509719000,2.910718994140625,0.21870890259742737,0.18445026874542236,0.3342519998550415
1732873798519714000,2.920714111328125,0.2552802264690399,0.287992388010025,0.392711341381073
1732873798529709000,2.930708984375,0.2943378984928131,0.4473780393600464,0.3977036774158478
1732873798539705000,2.940705078125,0.3381383717060089,0.6246819496154785,0.37060362100601196
1732873798549700000,2.9507001953125,0.37614884972572327,0.7460725903511047,0.3356325924396515
1732873798559695000,2.960695068359375,0.3914865553379059,0.7594072818756104,0.29454001784324646
1732873798569690000,2.970690185546875,0.35096415877342224,0.6806813478469849,0.22560995817184448
1732873798579686100,2.98068603515625,0.2362879067659378,0.5136973857879639,0.1026451513171196
1732873798589681200,2.99068115234375,0.040826261043548584,0.24154338240623474,-0.07813474535942078
1732873798599676200,3.00067626953125,-0.18578743934631348,-0.08060616254806519,-0.28201305866241455
1732873798609671200,3.010671142578125,-0.3681434094905853,-0.3935883045196533,-0.46116015315055847
1732873798619666200,3.020666259765625,-0.4911321699619293,-0.669163167476654,-0.5835827589035034
1732873798629662000,3.030661865234375,-0.5615360140800476,-0.8317734003067017,-0.6573964953422546
1732873798639657000,3.040656982421875,-0.5792140960693359,-0.8707172870635986,-0.6775041818618774
1732873798649652000,3.05065185546875,-0.533030092716217,-0.8085514307022095,-0.6274804472923279
1732873798659647000,3.06064697265625,-0.43847110867500305,-0.6656688451766968,-0.45631852746009827
1732873798669643300,3.070643310546875,-0.30873334407806396,-0.46399322152137756,-0.12884452939033508
1732873798679638300,3.08063818359375,-0.18232080340385437,-0.2763647437095642,0.33448025584220886
1732873798689633000,3.090633056640625,-0.11792849749326706,-0.16143469512462616,0.8268536925315857
1732873798699628000,3.1006279296875,-0.127900168299675,-0.1781175434589386,1.2153791189193726
1732873798709624000,3.1106240234375,-0.1729840338230133,-0.31759873032569885,1.38773512840271
1732873798719619000,3.120619140625,-0.24331705272197723,-0.4867725670337677,1.3193949460983276
1732873798729614000,3.130614013671875,-0.33484697341918945,-0.6557847857475281,1.0433721542358398
1732873798739609000,3.140609130859375,-0.3931291699409485,-0.7235017418861389,0.6314261555671692
1732873798749604000,3.15060400390625,-0.38233670592308044,-0.6147848963737488,0.17083992063999176
1732873798759600000,3.16060009765625,-0.33560648560523987,-0.37178048491477966,-0.28043246269226074
1732873798769595100,3.17059521484375,-0.27686408162117004,-0.0708715096116066,-0.6537192463874817
1732873798779590100,3.180590087890625,-0.22509250044822693,0.1887294352054596,-0.9109792709350586
1732873798789585200,3.190585205078125,-0.19035689532756805,0.37325695157051086,-1.0394341945648193
1732873798799581000,3.200580810546875,-0.1687924861907959,0.45942458510398865,-1.040881872177124
1732873798809576000,3.210575927734375,-0.17257550358772278,0.43151092529296875,-0.9201003313064575
1732873798819571000,3.220571044921875,-0.20975349843502045,0.30842041969299316,-0.7122941017150879
1732873798829566000,3.23056591796875,-0.26469558477401733,0.14133448898792267,-0.45554354786872864
1732873798839561000,3.24056103515625,-0.3115120828151703,0.018194982782006264,-0.18606014549732208
1732873798849557200,3.25055712890625,-0.34060338139533997,-0.05383233726024628,0.039633430540561676
1732873798859552300,3.26055224609375,-0.35368722677230835,-0.09048755466938019,0.18291789293289185
1732873798869547000,3.270547119140625,-0.3421440124511719,-0.0704169049859047,0.23936918377876282
1732873798879542000,3.2805419921875,-0.31196027994155884,-0.03369458019733429,0.22917139530181885
1732873798889538000,3.2905380859375,-0.2727729380130768,0.017101222649216652,0.17558221518993378
1732873798899533000,3.300532958984375,-0.23562105000019073,0.06471002101898193,0.10371414572000504
1732873798909528000,3.310528076171875,-0.20989304780960083,0.11541767418384552,0.02365020103752613
1732873798919523000,3.320523193359375,-0.19949845969676971,0.15341831743717194,-0.06920330226421356
1732873798929519000,3.33051904296875,-0.19971710443496704,0.17685014009475708,-0.17295792698860168
1732873798939514000,3.34051416015625,-0.19729310274124146,0.17883659899234772,-0.25843846797943115
1732873798949509000,3.350509033203125,-0.18779146671295166,0.18359938263893127,-0.30060988664627075
1732873798959504100,3.360504150390625,-0.1787191480398178,0.1807846873998642,-0.28637823462486267
1732873798969500200,3.370500244140625,-0.1576751172542572,0.15450382232666016,-0.21661965548992157
1732873798979495200,3.3804951171875,-0.11928032338619232,0.13217134773731232,-0.10832247883081436
1732873798989490000,3.390489990234375,-0.07291042804718018,0.10973981022834778,0.02371837943792343
1732873798999485000,3.40048486328125,-0.0316103920340538,0.09438775479793549,0.1527506560087204
1732873799009480000,3.41047998046875,-0.008253934793174267,0.084926076233387,0.2556171119213104
1732873799019476200,3.420476318359375,-0.00905501376837492,0.06967228651046753,0.32017719745635986
1732873799029471200,3.43047119140625,-0.018793661147356033,0.058887284249067307,0.33807632327079773
1732873799039466200,3.44046630859375,-0.03693990781903267,0.04880056157708168,0.3149971067905426
1732873799049461200,3.450461181640625,-0.07198817282915115,0.019217636436223984,0.2585607171058655
1732873799059457000,3.46045703125,-0.11491859704256058,-0.02443823032081127,0.1817956268787384
1732873799069452000,3.4704521484375,-0.17214486002922058,-0.08393910527229309,0.07233171910047531
1732873799079447000,3.480447021484375,-0.22798576951026917,-0.15234532952308655,-0.06120210513472557
1732873799089442000,3.490442138671875,-0.27141687273979187,-0.1943625509738922,-0.198113352060318
1732873799099438000,3.50043798828125,-0.2902906835079193,-0.1856233924627304,-0.31440240144729614
1732873799109433000,3.51043310546875,-0.2904704511165619,-0.15039962530136108,-0.3900793194770813
1732873799119428000,3.520427978515625,-0.2531672716140747,-0.08822733163833618,-0.4001050591468811
1732873799129423000,3.530423095703125,-0.17837053537368774,-0.012661466374993324,-0.34038686752319336
1732873799139418000,3.540418212890625,-0.07962265610694885,0.08402912318706512,-0.22009827196598053
1732873799149414100,3.5504140625,0.01818006858229637,0.18865619599819183,-0.0738941952586174
1732873799159409200,3.5604091796875,0.08976291120052338,0.29937419295310974,0.05482836067676544
1732873799169404000,3.57040380859375,0.13072125613689423,0.3741655945777893,0.12231419235467911
1732873799179399000,3.58039892578125,0.1365692913532257,0.380836546421051,0.1135137751698494
1732873799189395200,3.590395263671875,0.09817849844694138,0.3604567348957062,0.048169393092393875
1732873799199390200,3.60039013671875,0.0301405917853117,0.3022304177284241,-0.025660622864961624
1732873799209385200,3.61038525390625,-0.020239224657416344,0.22496041655540466,-0.008185225538909435
1732873799219380200,3.620380126953125,-0.018682608380913734,0.16647818684577942,0.16527177393436432
1732873799229375200,3.630375244140625,0.06106708198785782,0.13691870868206024,0.4913143217563629
1732873799239371000,3.64037109375,0.1925595998764038,0.15524178743362427,0.8898353576660156
1732873799249366000,3.650365966796875,0.31311771273612976,0.2258448451757431,1.2462115287780762
1732873799259361000,3.660361083984375,0.38707342743873596,0.25308364629745483,1.4422295093536377
1732873799269356000,3.67035595703125,0.41093188524246216,0.2144334614276886,1.4386481046676636
1732873799279352000,3.68035205078125,0.37634220719337463,0.13548405468463898,1.2272645235061646
1732873799289347000,3.69034716796875,0.3029433488845825,0.025729598477482796,0.8495747447013855
1732873799299342000,3.700342041015625,0.2101825326681137,-0.10873420536518097,0.37140071392059326
1732873799309337000,3.710337158203125,0.1204204186797142,-0.224972665309906,-0.10734323412179947
1732873799319333000,3.7203330078125,0.03580993041396141,-0.26995426416397095,-0.4801756739616394
1732873799329328000,3.730328125,-0.04746605083346367,-0.29623138904571533,-0.6732684373855591
1732873799339323100,3.7403232421875,-0.09922831505537033,-0.34517788887023926,-0.6853303909301758
1732873799349318100,3.750318115234375,-0.10473386943340302,-0.3818477690219879,-0.5633821487426758
1732873799359313000,3.76031298828125,-0.08851894736289978,-0.36868640780448914,-0.3720276355743408
1732873799369309200,3.77030908203125,-0.04923199489712715,-0.3054371476173401,-0.17547115683555603
1732873799379304200,3.78030419921875,0.0016178702935576439,-0.20799633860588074,-0.025908563286066055
1732873799389299200,3.79029931640625,0.05481983721256256,-0.09855932742357254,0.04616749659180641
1732873799399294200,3.800294189453125,0.09350784868001938,-0.006952448282390833,0.04126568138599396
1732873799409290000,3.8102900390625,0.10540418326854706,0.04236183688044548,-0.01005076989531517
1732873799419285000,3.820284912109375,0.10068532824516296,0.0523952953517437,-0.08367013186216354
1732873799429280000,3.830280029296875,0.09153018146753311,0.0309243593364954,-0.16254177689552307
1732873799439275000,3.84027490234375,0.08139099925756454,-0.0013558153295889497,-0.24041873216629028
1732873799449271300,3.850271240234375,0.08558627218008041,-0.028331240639090538,-0.3283272683620453
1732873799459266300,3.860266357421875,0.1063179150223732,-0.05770990252494812,-0.4118994176387787
1732873799469260500,3.870260498046875,0.14411935210227966,-0.10739436745643616,-0.48450329899787903
1732873799479255600,3.880255615234375,0.1828278750181198,-0.1558934599161148,-0.537509024143219
1732873799489250300,3.890250244140625,0.21614187955856323,-0.1862867921590805,-0.5621016621589661
1732873799499246300,3.900246337890625,0.24377964437007904,-0.2103055715560913,-0.5585623383522034
1732873799509241300,3.910241455078125,0.25530126690864563,-0.24030368030071259,-0.533334493637085
1732873799519236400,3.920236328125,0.2414773404598236,-0.2567252516746521,-0.47677481174468994
1732873799529231400,3.9302314453125,0.2079571932554245,-0.24297642707824707,-0.37347397208213806
1732873799539227100,3.94022705078125,0.1756724864244461,-0.20791751146316528,-0.21931052207946777
1732873799549222100,3.95022216796875,0.1416785717010498,-0.1572551280260086,-0.033668480813503265
1732873799559217400,3.960217529296875,0.10264435410499573,-0.11180242896080017,0.15814702212810516
1732873799569212400,3.97021240234375,0.06883285939693451,-0.09142924845218658,0.3164098858833313
1732873799579207400,3.98020751953125,0.04343242943286896,-0.08442540466785431,0.4058883786201477
1732873799589203500,3.990203369140625,0.03266766667366028,-0.060025520622730255,0.4057198166847229
1732873799599198500,4.000198486328125,0.048775263130664825,0.021578794345259666,0.32650142908096313
1732873799609193200,4.010193115234375,0.0846238061785698,0.14897136390209198,0.18774592876434326
1732873799619188200,4.020188232421875,0.13592001795768738,0.31009501218795776,0.04531794786453247
1732873799629184300,4.030184326171875,0.20479069650173187,0.48092639446258545,-0.059307798743247986
1732873799639179300,4.04017919921875,0.2662508487701416,0.6030725836753845,-0.11185702681541443
1732873799649174500,4.050174560546875,0.27673038840293884,0.6250050067901611,-0.1103251725435257
1732873799659169500,4.06016943359375,0.21183742582798004,0.537886381149292,-0.06064736843109131
1732873799669165300,4.070165283203125,0.07506731897592545,0.37752705812454224,0.0387553833425045
1732873799679160300,4.080160400390625,-0.08286931365728378,0.16901938617229462,0.17903420329093933
1732873799689155300,4.0901552734375,-0.2074727714061737,-0.03629648685455322,0.33320939540863037
1732873799699150300,4.100150390625,-0.29049333930015564,-0.20588313043117523,0.43120917677879333
1732873799709145300,4.110145263671875,-0.3452306389808655,-0.31127214431762695,0.4058564305305481
1732873799719141000,4.12014111328125,-0.3637736737728119,-0.3207639157772064,0.2324921041727066
1732873799729136000,4.13013623046875,-0.3557746112346649,-0.2086016833782196,-0.028687836602330208
1732873799739131400,4.14013134765625,-0.3270505666732788,0.007405185606330633,-0.2385273575782776
1732873799749126400,4.15012646484375,-0.29656243324279785,0.23710842430591583,-0.23281966149806976
1732873799759122400,4.160122314453125,-0.27110448479652405,0.37284335494041443,0.06744135916233063
1732873799769117400,4.170117431640625,-0.26292723417282104,0.3829955756664276,0.5721351504325867
1732873799779112400,4.180112548828125,-0.2968026399612427,0.2920486330986023,1.1116859912872314
1732873799789107200,4.190107177734375,-0.3680017292499542,0.10318257659673691,1.5259292125701904
1732873799799103200,4.200103271484375,-0.45260554552078247,-0.12209448218345642,1.6925197839736938
1732873799809098200,4.21009814453125,-0.5300915837287903,-0.2886214256286621,1.5868546962738037
1732873799819093200,4.22009326171875,-0.5803337097167969,-0.3277973234653473,1.2242095470428467
1732873799829088500,4.230088623046875,-0.5673225522041321,-0.2350655049085617,0.6892598867416382
1732873799839083500,4.24008349609375,-0.5014127492904663,-0.01245214231312275,0.09850873053073883
1732873799849079300,4.250079345703125,-0.40763115882873535,0.28064656257629395,-0.4134421646595001
1732873799859074300,4.26007421875,-0.32916057109832764,0.5947187542915344,-0.7454409003257751
1732873799869069300,4.2700693359375,-0.273989737033844,0.853565514087677,-0.8739945888519287
1732873799879064300,4.280064208984375,-0.22375266253948212,1.0080631971359253,-0.8525923490524292
1732873799889060400,4.290060302734375,-0.1831415891647339,1.0143625736236572,-0.7167330980300903
1732873799899055400,4.300055419921875,-0.19101576507091522,0.9002206325531006,-0.49143949151039124
1732873799909050000,4.310050048828125,-0.23890233039855957,0.6998965740203857,-0.2263290137052536
1732873799919045400,4.32004541015625,-0.30648481845855713,0.4363826513290405,0.02683640830218792
1732873799929040400,4.330040283203125,-0.3739650845527649,0.14513163268566132,0.22989684343338013
1732873799939036400,4.340036376953125,-0.42442718148231506,-0.09668632596731186,0.34095999598503113
1732873799949031400,4.350031494140625,-0.4408405125141144,-0.23092269897460938,0.34049633145332336
1732873799959026400,4.3600263671875,-0.41983482241630554,-0.26136741042137146,0.24506035447120667
1732873799969021400,4.370021484375,-0.3657369613647461,-0.22757962346076965,0.08596550673246384
1732873799979017200,4.380017333984375,-0.29281750321388245,-0.15160417556762695,-0.09087877720594406
1732873799989012200,4.39001220703125,-0.21559381484985352,-0.06950797140598297,-0.2450944483280182
1732873799999007200,4.40000732421875,-0.159486323595047,-0.02395673096179962,-0.3595595061779022
1732873800009002500,4.41000244140625,-0.13223899900913239,-0.03032914362847805,-0.4252282679080963
1732873800018998300,4.419998291015625,-0.12403646111488342,-0.07756270468235016,-0.4314989447593689
1732873800028993300,4.4299931640625,-0.1295212358236313,-0.16027168929576874,-0.39076003432273865
1732873800038988300,4.43998828125,-0.14035631716251373,-0.240068256855011,-0.3345566689968109
1732873800048983300,4.4499833984375,-0.14343172311782837,-0.28475797176361084,-0.2796042263507843
1732873800058978300,4.459978271484375,-0.12465910613536835,-0.28419309854507446,-0.23034745454788208
1732873800068974300,4.469974365234375,-0.08492394536733627,-0.2591484785079956,-0.18352295458316803
1732873800078969300,4.47996923828125,-0.030126210302114487,-0.2171964943408966,-0.14331534504890442
1732873800088964000,4.489964111328125,0.02376152202486992,-0.161334827542305,-0.10338550806045532
1732873800098959400,4.49995947265625,0.07102890312671661,-0.10669555515050888,-0.05248904228210449
1732873800108955400,4.509955322265625,0.09943071752786636,-0.08313243836164474,-0.0018181400373578072
1732873800118950400,4.519950439453125,0.09514355659484863,-0.08392152935266495,0.0419519767165184
1732873800128945400,4.5299453125,0.057486195117235184,-0.08979912847280502,0.07187525182962418
1732873800138940400,4.5399404296875,-0.004668254870921373,-0.11632607877254486,0.08623262494802475
1732873800148935400,4.549935302734375,-0.06211183965206146,-0.14475585520267487,0.08500730246305466
1732873800158931200,4.55993115234375,-0.1029900312423706,-0.15498292446136475,0.07988204807043076
1732873800168926200,4.56992626953125,-0.13248640298843384,-0.1416008025407791,0.06962781399488449
1732873800178921200,4.579921142578125,-0.14507782459259033,-0.11123677343130112,0.053650978952646255
1732873800188916500,4.58991650390625,-0.14577291905879974,-0.07291974872350693,0.04315679147839546
1732873800198912300,4.599912353515625,-0.12801362574100494,-0.025076856836676598,0.04668840765953064
1732873800208907300,4.6099072265625,-0.10046268999576569,0.018565693870186806,0.06791753321886063
1732873800218902300,4.61990234375,-0.0671878233551979,0.06765653938055038,0.10135698318481445
1732873800228897300,4.629897216796875,-0.027608724310994148,0.13924551010131836,0.13435222208499908
1732873800238893300,4.639893310546875,0.022457106038928032,0.20188438892364502,0.153994619846344
1732873800248888300,4.649888427734375,0.0645395815372467,0.24799062311649323,0.16520120203495026
1732873800258883300,4.65988330078125,0.08994879573583603,0.2575916051864624,0.1724623143672943
1732873800268878300,4.66987841796875,0.10148561000823975,0.23301221430301666,0.1962541937828064
1732873800278873300,4.679873291015625,0.0880771279335022,0.21005016565322876,0.2420155555009842
1732873800288869400,4.689869384765625,0.03833939880132675,0.17851302027702332,0.30294734239578247
1732873800298864400,4.699864501953125,-0.026493659242987633,0.1361282765865326,0.3549945652484894
1732873800308859400,4.709859375,-0.1070161983370781,0.08178487420082092,0.35720738768577576
1732873800318854400,4.7198544921875,-0.2180503010749817,0.02491253986954689,0.26905569434165955
1732873800328850200,4.72985009765625,-0.3413937985897064,-0.06978760659694672,0.08847447484731674
1732873800338845200,4.73984521484375,-0.46022993326187134,-0.16657966375350952,-0.18899761140346527
1732873800348840200,4.749840087890625,-0.5311693549156189,-0.2469770312309265,-0.5243111848831177
1732873800358835500,4.75983544921875,-0.5501155853271484,-0.2696993947029114,-0.8208045959472656
1732873800368831500,4.76983154296875,-0.5087087750434875,-0.24282729625701904,-0.9681347012519836
1732873800378826500,4.779826416015625,-0.39093419909477234,-0.18706496059894562,-0.8667835593223572
1732873800388821200,4.7898212890625,-0.17356513440608978,-0.14663365483283997,-0.4833349585533142
1732873800398816300,4.799816162109375,0.08500650525093079,-0.04262309521436691,0.12788446247577667
1732873800408811300,4.809811279296875,0.29229870438575745,0.10826708376407623,0.829596757888794
1732873800418807300,4.819807373046875,0.49293965101242065,0.18746550381183624,1.475887417793274
1732873800428802300,4.82980224609375,0.6340877413749695,0.22733569145202637,1.9086438417434692
1732873800438797300,4.83979736328125,0.6750993728637695,0.26483485102653503,2.0629706382751465
1732873800448792600,4.84979248046875,0.6530728936195374,0.2674252986907959,1.9504046440124512
1732873800458788400,4.859788330078125,0.6054262518882751,0.22250337898731232,1.6159662008285522
1732873800468783600,4.86978369140625,0.5249868035316467,0.14211639761924744,1.1083106994628906
1732873800478778600,4.879778564453125,0.4271699786186218,0.03098641149699688,0.4817224144935608
1732873800488773600,4.889773681640625,0.3321092426776886,-0.08859031647443771,-0.19373777508735657
1732873800498768600,4.8997685546875,0.2572227418422699,-0.15995052456855774,-0.8287965059280396
1732873800508764400,4.909764404296875,0.18843063712120056,-0.1963612586259842,-1.3131115436553955
1732873800518759400,4.919759521484375,0.11236941814422607,-0.2549654543399811,-1.5766488313674927
1732873800528754400,4.92975439453125,0.043408725410699844,-0.3112574815750122,-1.5849014520645142
1732873800538749700,4.939749755859375,-0.00375958438962698,-0.300624281167984,-1.356949806213379
1732873800548745700,4.949745849609375,-0.029108351096510887,-0.2481919676065445,-0.9544920921325684
1732873800558740700,4.95974072265625,-0.052262671291828156,-0.19244401156902313,-0.4659338891506195
1732873800568735500,4.969735595703125,-0.09929542988538742,-0.15924957394599915,-0.0014269216917455196
1732873800578730500,4.97973046875,-0.1788427233695984,-0.14192917943000793,0.323905885219574
1732873800588726500,4.9897265625,-0.26777204871177673,-0.13160116970539093,0.4456392526626587
1732873800598721500,4.999721435546875,-0.35431841015815735,-0.12945012748241425,0.39355793595314026
1732873800608716500,5.009716552734375,-0.4417073726654053,-0.14124873280525208,0.22272256016731262
1732873800618711800,5.0197119140625,-0.5062549114227295,-0.17835429310798645,-0.00242107966914773
1732873800628706800,5.029706787109375,-0.538860023021698,-0.22907952964305878,-0.21261745691299438
1732873800638702600,5.03970263671875,-0.539753258228302,-0.25760385394096375,-0.3527865409851074
1732873800648697600,5.049697509765625,-0.5191259980201721,-0.2621844708919525,-0.41352578997612
1732873800658692600,5.059692626953125,-0.4900687634944916,-0.24061153829097748,-0.39861130714416504
1732873800668687600,5.0696875,-0.46361851692199707,-0.2202197164297104,-0.32936006784439087
1732873800678683400,5.079683349609375,-0.4490249454975128,-0.1917068511247635,-0.2262435257434845
1732873800688678400,5.089678466796875,-0.4608200788497925,-0.16293352842330933,-0.1308877021074295
1732873800698673400,5.09967333984375,-0.4994764029979706,-0.14828534424304962,-0.07138017565011978
1732873800708668700,5.109668701171875,-0.5617693066596985,-0.13934750854969025,-0.058342400938272476
1732873800718663700,5.11966357421875,-0.6474149823188782,-0.1347716599702835,-0.06869863718748093
1732873800728659700,5.12965966796875,-0.7517730593681335,-0.14896364510059357,-0.08317238092422485
1732873800738654700,5.13965478515625,-0.8688262104988098,-0.19620360434055328,-0.07500926405191422
1732873800748649500,5.1496494140625,-0.9850353598594666,-0.25277313590049744,-0.050037600100040436
1732873800758644500,5.15964453125,-1.0939788818359375,-0.3030831813812256,-0.015667643398046494
1732873800768640500,5.169640625,-1.177390694618225,-0.330399751663208,0.02251569554209709
1732873800778635500,5.179635498046875,-1.2237789630889893,-0.31594330072402954,0.045892924070358276
1732873800788630500,5.189630615234375,-1.2455154657363892,-0.26860830187797546,0.044680919498205185
1732873800798625800,5.199625732421875,-1.2404333353042603,-0.19535964727401733,0.025495773181319237
1732873800808620800,5.209620849609375,-1.2202739715576172,-0.09607193619012833,-0.011599930934607983
1732873800818616600,5.219616455078125,-1.2053676843643188,0.005615541245788336,-0.039074696600437164
1732873800828611600,5.229611572265625,-1.2044254541397095,0.09024494141340256,-0.028557341545820236
1732873800838606600,5.239606689453125,-1.226499080657959,0.14876417815685272,0.04547720402479172
1732873800848601600,5.2496015625,-1.2657139301300049,0.1738881766796112,0.17610152065753937
1732873800858597600,5.25959765625,-1.3117750883102417,0.15719228982925415,0.3273533582687378
1732873800868592400,5.26959228515625,-1.361860990524292,0.10815523564815521,0.45275256037712097
1732873800878587400,5.27958740234375,-1.428227186203003,0.008037419989705086,0.5266587138175964
1732873800888582700,5.289582763671875,-1.5183144807815552,-0.15718482434749603,0.5226573348045349
1732873800898578700,5.29957861328125,-1.6176618337631226,-0.334171861410141,0.4310174286365509
1732873800908573700,5.30957373046875,-1.7013345956802368,-0.4801248013973236,0.26751187443733215
1732873800918568700,5.319568603515625,-1.7389541864395142,-0.5675808787345886,0.07419513165950775
1732873800928563700,5.329563720703125,-1.720136284828186,-0.5910508036613464,-0.0801267921924591
1732873800938558500,5.339558349609375,-1.651262879371643,-0.566362202167511,-0.15590517222881317
1732873800948554500,5.349554443359375,-1.5463128089904785,-0.5048189759254456,-0.13721059262752533
1732873800958549500,5.359549560546875,-1.4268988370895386,-0.4124589264392853,-0.04213573411107063
1732873800968544500,5.36954443359375,-1.3287421464920044,-0.31867730617523193,0.08688110113143921
1732873800978539800,5.379539794921875,-1.2763314247131348,-0.25976020097732544,0.1975002884864807
1732873800988535600,5.38953564453125,-1.2683185338974,-0.2527294456958771,0.25238272547721863
1732873800998530600,5.399530517578125,-1.2976963520050049,-0.29602155089378357,0.25143542885780334
1732873801008525600,5.409525634765625,-1.3566222190856934,-0.34974709153175354,0.21059772372245789
1732873801018520600,5.4195205078125,-1.4238028526306152,-0.3945547640323639,0.15236078202724457
1732873801028516600,5.4295166015625,-1.472548007965088,-0.41188690066337585,0.1075136736035347
1732873801038511600,5.43951171875,-1.4890029430389404,-0.4007234573364258,0.0893154963850975
1732873801048506600,5.449506591796875,-1.4732942581176758,-0.3543274402618408,0.10451255738735199
1732873801058501400,5.45950146484375,-1.438544750213623,-0.2921871244907379,0.1313289999961853
1732873801068496600,5.46949658203125,-1.399901032447815,-0.23299197852611542,0.15127846598625183
1732873801078492700,5.47949267578125,-1.3729248046875,-0.19767872989177704,0.14288099110126495
1732873801088487700,5.48948779296875,-1.3563114404678345,-0.20960941910743713,0.10850730538368225
1732873801098482700,5.499482666015625,-1.3488713502883911,-0.2418198138475418,0.057613227516412735
1732873801108477700,5.509477783203125,-1.359851360321045,-0.2820380926132202,-0.0032985913567245007
1732873801118473500,5.519473388671875,-1.370604395866394,-0.3177263140678406,-0.06383384019136429
1732873801128468500,5.529468505859375,-1.3639789819717407,-0.3119565546512604,-0.11304079741239548
1732873801138463500,5.53946337890625,-1.345302700996399,-0.2634691894054413,-0.13966628909111023
1732873801148458500,5.54945849609375,-1.3192572593688965,-0.19206078350543976,-0.14751754701137543
1732873801158454800,5.559454833984375,-1.2801740169525146,-0.13786599040031433,-0.15480636060237885
1732873801168449500,5.569449462890625,-1.2339123487472534,-0.09101592749357224,-0.18295890092849731
1732873801178444500,5.579444580078125,-1.1809542179107666,-0.06233527883887291,-0.2487938404083252
1732873801188439600,5.589439453125,-1.1163393259048462,-0.0421660952270031,-0.3413565158843994
1732873801198434600,5.5994345703125,-1.0416607856750488,-0.017827199772000313,-0.44199711084365845
1732873801208430600,5.6094306640625,-0.9535698294639587,0.005894640926271677,-0.5236712098121643
1732873801218425600,5.619425537109375,-0.8559897541999817,0.029748573899269104,-0.5509188175201416
1732873801228420600,5.629420654296875,-0.7559952735900879,0.030845796689391136,-0.5073913335800171
1732873801238415400,5.639415283203125,-0.6670421957969666,0.004384894855320454,-0.39684003591537476
1732873801248411600,5.64941162109375,-0.608357310295105,-0.026222549378871918,-0.2656673491001129
1732873801258406700,5.65940673828125,-0.5717148780822754,-0.09504955261945724,-0.14081890881061554
1732873801268401700,5.669401611328125,-0.5435450673103333,-0.18458369374275208,-0.027300063520669937
1732873801278396700,5.679396728515625,-0.5318585634231567,-0.26523831486701965,0.05625687912106514
1732873801288391700,5.6893916015625,-0.5279423594474792,-0.3261088728904724,0.08550558239221573
1732873801298387500,5.699387451171875,-0.5226650834083557,-0.3408835530281067,0.06271184980869293
1732873801308382500,5.709382568359375,-0.5039430260658264,-0.3163696825504303,0.0023315974976867437
1732873801318377500,5.71937744140625,-0.4743382930755615,-0.2823648452758789,-0.06295206397771835
1732873801328372500,5.72937255859375,-0.4554647207260132,-0.2502676248550415,-0.10171331465244293
1732873801338368800,5.73936865234375,-0.4474526047706604,-0.2463272213935852,-0.10073539614677429
1732873801348363500,5.749363525390625,-0.4489959180355072,-0.2734781503677368,-0.07279963791370392
1732873801358358500,5.759358642578125,-0.4549712538719177,-0.32481351494789124,-0.03887895494699478
1732873801368353500,5.769353515625,-0.4597976803779602,-0.38474634289741516,-0.023447269573807716
1732873801378348500,5.7793486328125,-0.4517842233181,-0.42713162302970886,-0.03141331672668457
1732873801388344600,5.789344482421875,-0.4157138466835022,-0.42097145318984985,-0.05837595835328102
1732873801398339600,5.799339599609375,-0.34012216329574585,-0.3620189428329468,-0.0876462310552597
1732873801408334600,5.80933447265625,-0.23791642487049103,-0.2688583731651306,-0.11815540492534637
1732873801418329600,5.81932958984375,-0.12029791623353958,-0.16415885090827942,-0.1489250361919403
1732873801428325600,5.82932568359375,0.007499461527913809,-0.051171839237213135,-0.1780797243118286
1732873801438320600,5.839320556640625,0.11865927278995514,0.05817382410168648,-0.2043808400630951
1732873801448315600,5.849315673828125,0.18081052601337433,0.13280650973320007,-0.22500355541706085
1732873801458310700,5.859310546875,0.19971737265586853,0.16383208334445953,-0.23367321491241455
1732873801468306400,5.869306396484375,0.17715853452682495,0.1596386581659317,-0.2203824371099472
1732873801478301400,5.879301513671875,0.12153229117393494,0.13122007250785828,-0.180501326918602
1732873801488296400,5.88929638671875,0.05020298436284065,0.09792523086071014,-0.13244113326072693
1732873801498291500,5.89929150390625,-0.0008671252289786935,0.052798233926296234,-0.08983694761991501
1732873801508286500,5.909286376953125,-0.03465704619884491,0.0210027527064085,-0.037818752229213715
1732873801518282500,5.919282470703125,-0.04499384015798569,0.006039250176399946,0.02629764936864376
1732873801528277500,5.929277587890625,-0.02045414224267006,-0.0046179210767149925,0.10228163003921509
1732873801538272300,5.939272216796875,0.029761889949440956,-0.00108284130692482,0.17710527777671814
1732873801548267300,5.949267333984375,0.09349506348371506,0.004421912599354982,0.2340468466281891
1732873801558263600,5.959263671875,0.15460315346717834,0.01937449723482132,0.24320892989635468
1732873801568258600,5.969258544921875,0.2129644751548767,0.04382018372416496,0.20097917318344116
1732873801578253600,5.979253662109375,0.264236718416214,0.08209966123104095,0.10385289788246155
1732873801588248600,5.98924853515625,0.2851771414279938,0.13283714652061462,-0.04055328667163849
1732873801598244400,5.999244384765625,0.2753463387489319,0.17114990949630737,-0.20241329073905945
1732873801608239400,6.0092392578125,0.24251782894134521,0.18051837384700775,-0.35256338119506836
1732873801618234400,6.019234375,0.2083774358034134,0.17097707092761993,-0.45712947845458984
1732873801628229400,6.0292294921875,0.18195675313472748,0.1598069816827774,-0.4906144440174103
1732873801638224400,6.039224365234375,0.1708258092403412,0.1416250467300415,-0.4462805390357971
1732873801648220400,6.049220458984375,0.17761260271072388,0.11367010325193405,-0.3328021764755249
1732873801658215400,6.05921533203125,0.18564656376838684,0.07970201969146729,-0.1854201853275299
1732873801668210400,6.06921044921875,0.18349099159240723,0.018135594204068184,-0.03839799016714096
1732873801678205400,6.079205322265625,0.1772293746471405,-0.0876784548163414,0.06705120205879211
1732873801688201500,6.089201416015625,0.16180461645126343,-0.16213484108448029,0.1295635849237442
1732873801698196500,6.099196533203125,0.10396235436201096,-0.2015184760093689,0.14804352819919586
1732873801708191500,6.10919140625,0.05201180279254913,-0.23799125850200653,0.12639549374580383
1732873801718186500,6.1191865234375,0.010603109374642372,-0.23723092675209045,0.07534721493721008
1732873801728181200,6.12918115234375,-0.02135349251329899,-0.19657377898693085,0.009474195539951324
1732873801738177500,6.139177490234375,-0.046772830188274384,-0.12928102910518646,-0.06278535723686218
1732873801748172500,6.149172607421875,-0.07341083139181137,-0.08884704858064651,-0.1221056655049324
1732873801758167600,6.15916748046875,-0.10084139555692673,-0.07709798216819763,-0.17140930891036987
1732873801768162600,6.16916259765625,-0.12039032578468323,-0.07747960835695267,-0.2080240398645401
1732873801778158300,6.179158447265625,-0.13565529882907867,-0.080731600522995,-0.24633707106113434
1732873801788153300,6.1891533203125,-0.14778733253479004,-0.0933656319975853,-0.3011387884616852
1732873801798148400,6.1991484375,-0.16424806416034698,-0.12403938919305801,-0.37149766087532043
1732873801808143400,6.209143310546875,-0.19648349285125732,-0.17995698750019073,-0.44844916462898254
1732873801818139600,6.2191396484375,-0.22515162825584412,-0.23830097913742065,-0.5147879719734192
1732873801828134700,6.229134765625,-0.2521619498729706,-0.2819203734397888,-0.5573354363441467
1732873801838129400,6.23912939453125,-0.2705657184123993,-0.30219900608062744,-0.572697103023529
1732873801848124400,6.24912451171875,-0.2624739706516266,-0.2803459167480469,-0.5595282912254333
1732873801858119400,6.259119384765625,-0.23646420240402222,-0.2162257730960846,-0.5186024308204651
1732873801868115500,6.269115478515625,-0.19995999336242676,-0.1334848254919052,-0.4509828984737396
1732873801878110500,6.2791103515625,-0.15466201305389404,-0.05757860839366913,-0.3592838644981384
1732873801888105500,6.28910546875,-0.1144179180264473,0.012018047273159027,-0.24595065414905548
1732873801898100500,6.2991005859375,-0.08065836131572723,0.05564248934388161,-0.11991521716117859
1732873801908096500,6.309096435546875,-0.06609326601028442,0.07376876473426819,0.00812157616019249
1732873801918091500,6.319091552734375,-0.05783187597990036,0.07683432847261429,0.12696513533592224
1732873801928086500,6.32908642578125,-0.061464160680770874,0.06572947651147842,0.2151985913515091
1732873801938081500,6.33908154296875,-0.062127020210027695,0.05826357379555702,0.2672908306121826
1732873801948076500,6.34907666015625,-0.05633597820997238,0.06359841674566269,0.2904888093471527
1732873801958072300,6.359072265625,-0.04837632179260254,0.07869561016559601,0.29028454422950745
1732873801968067300,6.3690673828125,-0.026219086721539497,0.09939582645893097,0.26608946919441223
1732873801978062300,6.379062255859375,-0.003715908620506525,0.1300908923149109,0.23241938650608063
1732873801988057300,6.389057373046875,0.01617896929383278,0.17006254196166992,0.18989349901676178
1732873801998053600,6.3990537109375,0.0315997377038002,0.2044399529695511,0.13970011472702026
1732873802008048600,6.409048583984375,0.04035674408078194,0.21976511180400848,0.08262643963098526
1732873802018043400,6.41904345703125,0.04602394998073578,0.22517293691635132,0.018571287393569946
1732873802028038400,6.429038330078125,0.04745246842503548,0.21621645987033844,-0.0504210963845253
1732873802038034400,6.439034423828125,0.05065412074327469,0.19899378716945648,-0.11669332534074783
1732873802048029400,6.449029541015625,0.06502054631710052,0.18608039617538452,-0.1768948882818222
1732873802058024400,6.4590244140625,0.07797016203403473,0.18681809306144714,-0.23566898703575134
1732873802068019500,6.46901953125,0.0968136265873909,0.18921838700771332,-0.28741952776908875
1732873802078014500,6.479014404296875,0.12762586772441864,0.17472387850284576,-0.3253437280654907
1732873802088010500,6.489010498046875,0.1520710289478302,0.1498779058456421,-0.3358789384365082
1732873802098005500,6.499005615234375,0.1664654165506363,0.12160871922969818,-0.3116031587123871
1732873802108000500,6.50900048828125,0.16840685904026031,0.10000622272491455,-0.24382996559143066
1732873802117995500,6.51899560546875,0.16084879636764526,0.07111572474241257,-0.13681457936763763
1732873802127991600,6.528991455078125,0.18069015443325043,0.06628447771072388,-0.005397694651037455
1732873802137986300,6.538986328125,0.24553360044956207,0.11102612316608429,0.13902153074741364
1732873802147981300,6.548981201171875,0.33858951926231384,0.1570037305355072,0.2754499614238739
1732873802157976300,6.558976318359375,0.4338281452655792,0.1713927835226059,0.3552686274051666
1732873802167971300,6.568971435546875,0.48679521679878235,0.11828829348087311,0.34438666701316833
1732873802177967600,6.578967529296875,0.4629679024219513,-0.05282406508922577,0.24267123639583588
1732873802187962600,6.588962646484375,0.325360506772995,-0.3007955253124237,0.08025568723678589
1732873802197957600,6.59895751953125,0.12941844761371613,-0.6013574600219727,-0.11104476451873779
1732873802207952400,6.608952392578125,-0.03871037811040878,-0.8091426491737366,-0.24739514291286469
1732873802217948400,6.618948486328125,-0.1555408537387848,-0.873898983001709,-0.25983503460884094
1732873802227943400,6.628943359375,-0.19042161107063293,-0.8137272596359253,-0.10998935252428055
1732873802237938400,6.6389384765625,-0.1247033178806305,-0.64900141954422,0.19788937270641327
1732873802247933400,6.648933349609375,0.017582722008228302,-0.4047909080982208,0.627403199672699
1732873802257929500,6.658929443359375,0.19481103122234344,-0.1719166338443756,1.0882691144943237
1732873802267924500,6.668924560546875,0.3188783824443817,-0.03401442617177963,1.4640182256698608
1732873802277919500,6.67891943359375,0.3342975676059723,-0.008886968716979027,1.654762864112854
1732873802287914500,6.68891455078125,0.24872885644435883,-0.06471827626228333,1.605755090713501
1732873802297909500,6.698909423828125,0.11229032278060913,-0.1411382108926773,1.302455186843872
1732873802307905500,6.708905517578125,-0.040496826171875,-0.16561771929264069,0.7690708637237549
1732873802317900500,6.718900634765625,-0.1808486133813858,-0.08555085211992264,0.11163891106843948
1732873802327895300,6.728895263671875,-0.2589585781097412,0.0883069559931755,-0.5170530080795288
1732873802337890300,6.738890380859375,-0.26615819334983826,0.2673712372779846,-0.9679903388023376
1732873802347886600,6.748886474609375,-0.19268715381622314,0.4521285891532898,-1.1790701150894165
1732873802357881600,6.758881591796875,-0.05524541065096855,0.5919551849365234,-1.1685646772384644
1732873802367876600,6.768876708984375,0.10544972866773605,0.6352792382240295,-0.9969620704650879
1732873802377871600,6.77887158203125,0.23419012129306793,0.5971105098724365,-0.7216495275497437
1732873802387866600,6.78886669921875,0.31760966777801514,0.4905385673046112,-0.4088703393936157
1732873802397862400,6.7988623046875,0.36129269003868103,0.31840619444847107,-0.13216309249401093
1732873802407857400,6.808857421875,0.38675808906555176,0.12186358869075775,0.07140520960092545
1732873802417852400,6.818852294921875,0.3843170404434204,-0.04410594329237938,0.18656295537948608
1732873802427847400,6.828847412109375,0.35633015632629395,-0.14603310823440552,0.2109718918800354
1732873802437843500,6.838843505859375,0.32182303071022034,-0.20936919748783112,0.16003254055976868
1732873802447838500,6.84883837890625,0.30167356133461,-0.2174345850944519,0.06787678599357605
1732873802457833500,6.85883349609375,0.29462897777557373,-0.17793510854244232,-0.03159068152308464
1732873802467828200,6.868828125,0.2927069664001465,-0.12031948566436768,-0.10778212547302246
1732873802477824500,6.878824462890625,0.2965744137763977,-0.060739513486623764,-0.13667050004005432
1732873802487819500,6.888819580078125,0.3066321015357971,-0.013338708318769932,-0.12190459668636322
1732873802497814500,6.898814453125,0.3211210370063782,0.012219381518661976,-0.07539861649274826
1732873802507809300,6.908809326171875,0.33300432562828064,0.008332764729857445,-0.008734369650483131
1732873802517804300,6.91880419921875,0.3428415060043335,-0.0008101335843093693,0.060928862541913986
1732873802527800300,6.92880029296875,0.35053297877311707,-0.02641935646533966,0.12739203870296478
1732873802537795300,6.93879541015625,0.34568655490875244,-0.06629140675067902,0.17894072830677032
1732873802547790300,6.948790283203125,0.32507768273353577,-0.08975092321634293,0.20990556478500366
1732873802557785300,6.958785400390625,0.3012338876724243,-0.09595742076635361,0.21583056449890137
1732873802567781400,6.968781494140625,0.2788524031639099,-0.08418785035610199,0.2076546549797058
1732873802577776400,6.9787763671875,0.25163862109184265,-0.0639941617846489,0.19658203423023224
1732873802587771400,6.988771484375,0.22215770184993744,-0.029745645821094513,0.17019037902355194
1732873802597766400,6.998766357421875,0.1767665147781372,0.0030024477746337652,0.12126278132200241
1732873802607761400,7.008761474609375,0.11347782611846924,0.00390312890522182,0.03921957314014435
1732873802617757400,7.01875732421875,0.05312979593873024,-0.012250008061528206,-0.0740760937333107
1732873802627752200,7.028752197265625,0.01793292723596096,-0.014968296512961388,-0.2040380835533142
1732873802637747200,7.038747314453125,-0.029261482879519463,0.030591199174523354,-0.3305744528770447
1732873802647742200,7.0487421875,-0.07828575372695923,0.13374102115631104,-0.42099836468696594
1732873802657738500,7.058738525390625,-0.09092377871274948,0.24323955178260803,-0.4866202473640442
1732873802667733500,7.0687333984375,-0.08467600494623184,0.3413133919239044,-0.5269697904586792
1732873802677728500,7.078728515625,-0.10282997786998749,0.39383837580680847,-0.5435325503349304
1732873802687723500,7.0887236328125,-0.15118153393268585,0.3723756968975067,-0.5331688523292542
1732873802697718300,7.09871826171875,-0.21802766621112823,0.28053098917007446,-0.48566868901252747
1732873802707714300,7.10871435546875,-0.27440333366394043,0.12552915513515472,-0.3879152536392212
1732873802717709300,7.118709228515625,-0.2992176115512848,-0.04484603554010391,-0.24088744819164276
1732873802727704300,7.128704345703125,-0.2984279692173004,-0.23143482208251953,-0.10333038121461868
1732873802737699300,7.13869921875,-0.2746206521987915,-0.39816123247146606,-0.03152383863925934
1732873802747695400,7.1486953125,-0.24157774448394775,-0.4740900695323944,-0.03634708747267723
1732873802757690400,7.1586904296875,-0.2035248875617981,-0.39407485723495483,-0.05896691232919693
1732873802767685400,7.168685302734375,-0.15066860616207123,-0.1974177360534668,-0.007346329744905233
1732873802777680400,7.178680419921875,-0.10132689028978348,0.045396775007247925,0.19717352092266083
1732873802787676400,7.188676513671875,-0.08564193546772003,0.24766412377357483,0.537589430809021
1732873802797671400,7.19867138671875,-0.1388377845287323,0.33566322922706604,0.9237147569656372
1732873802807666200,7.208666259765625,-0.24600310623645782,0.2330167442560196,1.2469053268432617
1732873802817661200,7.2186611328125,-0.3589640259742737,-0.034234669059515,1.4244135618209839
1732873802827656200,7.22865625,-0.45822641253471375,-0.3937307894229889,1.4007457494735718
1732873802837652500,7.238652587890625,-0.5268659591674805,-0.7311722040176392,1.159326434135437
1732873802847647500,7.2486474609375,-0.5726746916770935,-0.8768993020057678,0.737989604473114
1732873802857642500,7.258642578125,-0.5793064832687378,-0.8022064566612244,0.20120981335639954
1732873802867637500,7.268637451171875,-0.511222779750824,-0.5052189826965332,-0.3383775055408478
1732873802877633300,7.27863330078125,-0.3861660659313202,-0.10275833308696747,-0.792076051235199
1732873802887628300,7.288628173828125,-0.2332409769296646,0.3034171462059021,-1.0532413721084595
1732873802897623300,7.298623291015625,-0.0974983274936676,0.6045663356781006,-1.0894567966461182
1732873802907618300,7.308618408203125,0.0041792988777160645,0.7501208782196045,-0.9373043179512024
1732873802917614300,7.3186142578125,0.05354871228337288,0.7041943669319153,-0.6574873328208923
1732873802927609300,7.328609375,0.05411117151379585,0.5262691378593445,-0.31664931774139404
1732873802937604400,7.338604248046875,0.016536099836230278,0.2824293076992035,0.00854155607521534
1732873802947599400,7.348599365234375,-0.03543122857809067,0.05633943900465965,0.2516157329082489
1732873802957594400,7.358594482421875,-0.08332178741693497,-0.08174626529216766,0.3738439083099365
1732873802967590400,7.36859033203125,-0.11014008522033691,-0.13094790279865265,0.37871137261390686
1732873802977585400,7.37858544921875,-0.11134889721870422,-0.08165331929922104,0.2991797924041748
1732873802987580400,7.388580322265625,-0.0981457382440567,0.007340470794588327,0.17376592755317688
1732873802997575200,7.3985751953125,-0.07631287723779678,0.09352515637874603,0.038302380591630936
1732873803007571500,7.408571533203125,-0.05251487344503403,0.1583710014820099,-0.08135583996772766
1732873803017566500,7.41856640625,-0.041486989706754684,0.19227224588394165,-0.16634610295295715
1732873803027561500,7.4285615234375,-0.03906457871198654,0.19025489687919617,-0.2034820169210434
1732873803037556500,7.438556396484375,-0.04159032180905342,0.15567001700401306,-0.20194590091705322
1732873803047551500,7.448551513671875,-0.047741957008838654,0.11542672663927078,-0.17348523437976837
1732873803057547300,7.45854736328125,-0.05271487683057785,0.07639516890048981,-0.12172830104827881
1732873803067542300,7.468542236328125,-0.05273165553808212,0.027644677087664604,-0.060379453003406525
1732873803077537300,7.478537353515625,-0.04165956377983093,-0.014576545916497707,0.007738347165286541
1732873803087532300,7.4885322265625,-0.034218691289424896,-0.03873328119516373,0.07207951694726944
1732873803097528600,7.498528564453125,-0.021673602983355522,-0.04884876683354378,0.1362696886062622
1732873803107523300,7.5085234375,-0.0008375641773454845,-0.042806319892406464,0.18708014488220215
1732873803117518300,7.518518310546875,0.022834476083517075,-0.014935540035367012,0.22650425136089325
1732873803127513300,7.528513427734375,0.0443275161087513,0.02027437835931778,0.24296151101589203
1732873803137508400,7.53850830078125,0.06501255184412003,0.05477696284651756,0.2318047285079956
1732873803147504400,7.54850439453125,0.08329382538795471,0.06627489626407623,0.18904076516628265
1732873803157499400,7.55849951171875,0.08173028379678726,0.05323898792266846,0.11494283378124237
1732873803167494400,7.568494384765625,0.061226870864629745,-0.016033828258514404,0.020734040066599846
1732873803177489400,7.578489501953125,0.010316819883883,-0.13756372034549713,-0.0799156054854393
1732873803187485400,7.5884853515625,-0.059181831777095795,-0.28584080934524536,-0.1812952160835266
1732873803197480400,7.59848046875,-0.12389877438545227,-0.4082612693309784,-0.27688726782798767
1732873803207475500,7.608475341796875,-0.1631913185119629,-0.4707254469394684,-0.3693583309650421
1732873803217470500,7.618470458984375,-0.15831054747104645,-0.4293396472930908,-0.4533914625644684
1732873803227466200,7.62846630859375,-0.11527838557958603,-0.3131813406944275,-0.5139940977096558
1732873803237461200,7.638461181640625,-0.05825318768620491,-0.18518343567848206,-0.5213901996612549
1732873803247456300,7.648456298828125,0.013089437037706375,-0.09062524139881134,-0.475012868642807
1732873803257451300,7.658451171875,0.07390165328979492,-0.056357283145189285,-0.3944719433784485
1732873803267446300,7.6684462890625,0.10405822843313217,-0.09248092770576477,-0.307389497756958
1732873803277442600,7.678442626953125,0.1171223595738411,-0.19084344804286957,-0.22398249804973602
1732873803287437300,7.688437255859375,0.10395782440900803,-0.30101069808006287,-0.13618500530719757
1732873803297432300,7.698432373046875,0.08695273846387863,-0.32776880264282227,-0.00800199992954731
1732873803307427300,7.70842724609375,0.09660377353429794,-0.21570459008216858,0.19837035238742828
1732873803317423400,7.71842333984375,0.17742298543453217,0.016383500769734383,0.5031329393386841
1732873803327418400,7.72841845703125,0.31951141357421875,0.2532072365283966,0.8947363495826721
1732873803337413400,7.738413330078125,0.4645135998725891,0.40681755542755127,1.300300121307373
1732873803347408400,7.748408447265625,0.5864837169647217,0.4699994623661041,1.6637179851531982
1732873803357403400,7.7584033203125,0.6608626246452332,0.4381435215473175,1.8991374969482422
1732873803367399400,7.7683994140625,0.6719453930854797,0.311420738697052,1.9337375164031982
1732873803377394400,7.77839453125,0.6026735901832581,0.13915255665779114,1.714547038078308
1732873803387389400,7.788389404296875,0.47871944308280945,0.014218617230653763,1.2560889720916748
1732873803397384400,7.798384521484375,0.34899500012397766,-0.03423786535859108,0.6259310245513916
1732873803407380200,7.808380126953125,0.22943931818008423,0.013706491328775883,-0.06131875142455101
1732873803417375200,7.818375244140625,0.13843324780464172,0.11830853670835495,-0.6564233899116516
1732873803427370200,7.828370361328125,0.07251308113336563,0.21441695094108582,-1.0333060026168823
1732873803437365200,7.838365234375,0.03220001235604286,0.23226386308670044,-1.1456027030944824
1732873803447361500,7.848361572265625,0.026879817247390747,0.16274550557136536,-1.0252137184143066
1732873803457356500,7.8583564453125,0.04296903684735298,0.062311310321092606,-0.7392416000366211
1732873803467352000,7.86835205078125,0.06267989426851273,-0.02142805978655815,-0.3784050941467285
1732873803477347000,7.87834716796875,0.08825502544641495,-0.07476291805505753,-0.024441959336400032
1732873803487342000,7.888342041015625,0.10215646028518677,-0.10559540241956711,0.24578793346881866
1732873803497338000,7.898338134765625,0.10877201706171036,-0.11231402307748795,0.3945563733577728
1732873803507333000,7.9083330078125,0.09626741707324982,-0.11024714261293411,0.43018120527267456
1732873803517328100,7.918328125,0.07017748802900314,-0.10800902545452118,0.3763453960418701
1732873803527323000,7.928322998046875,0.03900705277919769,-0.12278877198696136,0.2651118338108063
1732873803537319200,7.938319091796875,0.019057314842939377,-0.16109460592269897,0.1243874654173851
1732873803547314200,7.948314208984375,0.016438893973827362,-0.2120770961046219,-0.01786395162343979
1732873803557309200,7.95830908203125,0.024345286190509796,-0.2608630061149597,-0.14531059563159943
1732873803567304200,7.96830419921875,0.04519703984260559,-0.27830326557159424,-0.2408541589975357
1732873803577299200,7.97829931640625,0.06978040933609009,-0.25623443722724915,-0.30610400438308716
1732873803587295000,7.988294921875,0.0959683433175087,-0.2179136872291565,-0.3405647575855255
1732873803597290000,7.9982900390625,0.11806885153055191,-0.18265902996063232,-0.3477233350276947
1732873803607285000,8.008284912109374,0.11529196798801422,-0.14889201521873474,-0.3369958698749542
1732873803617280000,8.018280029296875,0.0959254652261734,-0.117782823741436,-0.30193403363227844
1732873803627276300,8.0282763671875,0.05866784229874611,-0.08026660978794098,-0.24606862664222717
1732873803637271000,8.03827099609375,0.014184528030455112,-0.055159926414489746,-0.18075913190841675
1732873803647266000,8.04826611328125,-0.030431408435106277,-0.06232782453298569,-0.10388778150081635
1732873803657261000,8.058260986328126,-0.07397622615098953,-0.09692494571208954,-0.016262060031294823
1732873803667256000,8.068256103515624,-0.11371804028749466,-0.1468922346830368,0.0660003200173378
1732873803677252000,8.078252197265625,-0.15351100265979767,-0.2262142300605774,0.11973945051431656
1732873803687247000,8.0882470703125,-0.1848830282688141,-0.27882203459739685,0.1359168291091919
1732873803697242000,8.0982421875,-0.19699296355247498,-0.24785560369491577,0.11322056502103806
1732873803707237000,8.108237060546875,-0.16890352964401245,-0.12397228181362152,0.05126185715198517
1732873803717233200,8.118233154296876,-0.09783574938774109,0.029405824840068817,-0.042576223611831665
1732873803727228200,8.128228271484375,-0.013861486688256264,0.15015780925750732,-0.14263544976711273
1732873803737223200,8.13822314453125,0.04778536409139633,0.2219797968864441,-0.2273537963628769
1732873803747218200,8.14821826171875,0.06205698102712631,0.26074182987213135,-0.2783578634262085
1732873803757214000,8.1582138671875,0.030050843954086304,0.26785460114479065,-0.27857810258865356
1732873803767209000,8.168208984375,-0.02634798362851143,0.24188239872455597,-0.20409268140792847
1732873803777204000,8.178203857421876,-0.0876518189907074,0.16569656133651733,-0.06199333071708679
1732873803787199000,8.188198974609374,-0.1498217135667801,0.03971225768327713,0.09791724383831024
1732873803797194000,8.198194091796875,-0.20887118577957153,-0.10760342329740524,0.19802679121494293
1732873803807190300,8.208190185546876,-0.2545497417449951,-0.16338306665420532,0.20163138210773468
1732873803817185300,8.218185302734375,-0.24642762541770935,-0.07853502035140991,0.1506022959947586
1732873803827180000,8.228179931640625,-0.20478910207748413,0.116036057472229,0.13286031782627106
1732873803837175000,8.238175048828126,-0.17265619337558746,0.28963980078697205,0.2286566197872162
1732873803847171000,8.248171142578125,-0.17784430086612701,0.3325648903846741,0.43313679099082947
1732873803857166000,8.258166015625,-0.2318798303604126,0.22277209162712097,0.6887629628181458
1732873803867161000,8.2681611328125,-0.33796367049217224,0.001591771375387907,0.9223331212997437
1732873803877156000,8.278156005859374,-0.4769953191280365,-0.2503288984298706,1.0557258129119873
1732873803887151000,8.288151123046875,-0.5740036368370056,-0.5439940690994263,1.0402719974517822
1732873803897147100,8.298147216796876,-0.6229040622711182,-0.7551869750022888,0.8699798583984375
1732873803907142100,8.30814208984375,-0.6086774468421936,-0.8539769649505615,0.5629576444625854
1732873803917137200,8.31813720703125,-0.5469187498092651,-0.7400833964347839,0.1428532898426056
1732873803927132200,8.328132080078126,-0.4456736147403717,-0.42866718769073486,-0.3415887653827667
1732873803937128200,8.338128173828125,-0.32981839776039124,-0.05080485716462135,-0.8110939264297485
1732873803947123000,8.348123046875,-0.2151900678873062,0.3013366758823395,-1.1895333528518677
1732873803957118000,8.358117919921876,-0.12053520232439041,0.5452332496643066,-1.4055641889572144
1732873803967113000,8.368113037109374,-0.07019586861133575,0.638527512550354,-1.4425337314605713
1732873803977109200,8.378109130859375,-0.04976223036646843,0.5566715002059937,-1.3152114152908325
1732873803987104300,8.388104248046876,-0.07421457767486572,0.42354142665863037,-1.0588675737380981
1732873803997099300,8.398099365234375,-0.13862845301628113,0.30125969648361206,-0.7282568216323853
1732873804007094300,8.40809423828125,-0.20142339169979095,0.17521575093269348,-0.3908284604549408
1732873804017089000,8.418089111328126,-0.23229555785655975,0.06805814802646637,-0.11086153984069824
1732873804027085000,8.4280849609375,-0.23469746112823486,0.017601097002625465,0.047801077365875244
1732873804037080000,8.438080078125,-0.2153639793395996,0.02532612904906273,0.08426640927791595
1732873804047075000,8.448074951171876,-0.16002614796161652,0.07513602823019028,0.02305418625473976
1732873804057070000,8.458070068359374,-0.09241515398025513,0.1693299114704132,-0.09503410011529922
1732873804067066000,8.468066162109375,-0.020975856110453606,0.264945387840271,-0.23018953204154968
1732873804077061000,8.47806103515625,0.03952423855662346,0.3455265164375305,-0.3440471291542053
1732873804087056100,8.48805615234375,0.08138912916183472,0.383490651845932,-0.414381742477417
1732873804097051100,8.498051025390625,0.09037703275680542,0.38077664375305176,-0.43530434370040894
1732873804107046100,8.508046142578126,0.07208511233329773,0.3296005427837372,-0.41002029180526733
1732873804117042200,8.518042236328125,0.04120283201336861,0.24113431572914124,-0.338243305683136
1732873804127037000,8.528036865234375,0.004261856433004141,0.15811187028884888,-0.23634648323059082
1732873804137032000,8.538031982421876,-0.031736359000205994,0.09453635662794113,-0.10604813694953918
1732873804147027000,8.54802685546875,-0.05052948743104935,0.05915200337767601,0.03725016489624977
1732873804157023200,8.558023193359375,-0.047317713499069214,0.045937396585941315,0.17750634253025055
1732873804167018200,8.568018310546876,-0.022881614044308662,0.042157839983701706,0.29392537474632263
1732873804177013200,8.57801318359375,0.013431386090815067,0.04038204252719879,0.37115010619163513
1732873804187008300,8.58800830078125,0.03958655893802643,0.006007025949656963,0.40020519495010376
1732873804197003000,8.5980029296875,0.04128725081682205,-0.031196534633636475,0.37140363454818726
1732873804206999000,8.6079990234375,0.018160095438361168,-0.06781739741563797,0.27286988496780396
1732873804216994000,8.617994140625,-0.021734323352575302,-0.10891316831111908,0.11588691920042038
1732873804226989000,8.627989013671876,-0.07165767252445221,-0.15282629430294037,-0.06316059082746506
1732873804236984000,8.637984130859374,-0.1185452863574028,-0.22312362492084503,-0.22039201855659485
1732873804246980000,8.64797998046875,-0.137872114777565,-0.29194504022598267,-0.3069319725036621
1732873804256975000,8.65797509765625,-0.12000949680805206,-0.33047112822532654,-0.32836028933525085
1732873804266970000,8.66797021484375,-0.061644189059734344,-0.3248688876628876,-0.31273579597473145
1732873804276965000,8.677965087890625,0.0400741808116436,-0.2536325454711914,-0.2902970612049103
1732873804286960000,8.687960205078125,0.1560913324356079,-0.1460922211408615,-0.28264686465263367
1732873804296956200,8.6979560546875,0.25043967366218567,-0.06704162061214447,-0.29048243165016174
1732873804306951200,8.707951171875,0.3205154240131378,-0.08548587560653687,-0.32971104979515076
1732873804316946000,8.71794580078125,0.3394249379634857,-0.16264882683753967,-0.4103800654411316
1732873804326941000,8.72794091796875,0.26746445894241333,-0.23427295684814453,-0.5225436091423035
1732873804336937200,8.737937255859375,0.13590936362743378,-0.23843254148960114,-0.6227319836616516
1732873804346932200,8.74793212890625,0.016921458765864372,-0.13451386988162994,-0.6117445826530457
1732873804356927200,8.75792724609375,-0.00675244489684701,0.0014088122406974435,-0.3674107789993286
1732873804366922200,8.767922119140625,0.06920436769723892,0.06273075938224792,0.15311898291110992
1732873804376918000,8.77791796875,0.20733001828193665,0.12423566728830338,0.8483161330223083
1732873804386913000,8.7879130859375,0.35242435336112976,0.2100086212158203,1.5463783740997314
1732873804396908000,8.797907958984375,0.4605036973953247,0.2733236849308014,2.0847365856170654
1732873804406903000,8.807903076171876,0.5153035521507263,0.27846330404281616,2.355191230773926
1732873804416898000,8.81789794921875,0.5434009432792664,0.2084573358297348,2.3139231204986572
1732873804426894000,8.82789404296875,0.5156620144844055,0.14519420266151428,1.9794176816940308
1732873804436889000,8.83788916015625,0.4477788507938385,0.10280334204435349,1.4096490144729614
1732873804446884000,8.847884033203124,0.36419233679771423,0.09098343551158905,0.7017911672592163
1732873804456879000,8.857879150390625,0.29543936252593994,0.09200848639011383,-0.021742846816778183
1732873804466874600,8.86787451171875,0.24285605549812317,0.1056997999548912,-0.6383940577507019
1732873804476869600,8.87786962890625,0.1973242610692978,0.14211958646774292,-1.0772864818572998
1732873804486864600,8.88786474609375,0.15660904347896576,0.12608149647712708,-1.3140952587127686
1732873804496859600,8.897859619140625,0.14353665709495544,0.022356703877449036,-1.3495193719863892
1732873804506854700,8.907854736328124,0.14118801057338715,-0.10632403939962387,-1.1993519067764282
1732873804516850700,8.9178505859375,0.14273451268672943,-0.18063901364803314,-0.908776044845581
1732873804526845700,8.927845703125,0.15022385120391846,-0.19938048720359802,-0.5485440492630005
1732873804536840700,8.9378408203125,0.15960590541362762,-0.17734602093696594,-0.17616650462150574
1732873804546835700,8.947835693359375,0.16623903810977936,-0.14045298099517822,0.14855991303920746
1732873804556831500,8.95783154296875,0.15986104309558868,-0.09065080434083939,0.38708966970443726
1732873804566826500,8.967826416015624,0.14340563118457794,-0.06608154624700546,0.5231979489326477
1732873804576821500,8.977821533203125,0.12493980675935745,-0.05747660994529724,0.5521571636199951
1732873804586816500,8.98781640625,0.10511922836303711,-0.06004362925887108,0.4887624979019165
1732873804596811500,8.9978115234375,0.09570575505495071,-0.06437312811613083,0.3461883068084717
1732873804606807800,9.007807861328125,0.10679195821285248,-0.0715293139219284,0.14407461881637573
1732873804616802800,9.017802734375,0.13485608994960785,-0.06243940815329552,-0.08205705136060715
1732873804626797600,9.027797607421874,0.16233697533607483,-0.0449078194797039,-0.2993350327014923
1732873804636792600,9.03779248046875,0.1868598908185959,-0.014344850555062294,-0.46283501386642456
1732873804646788600,9.04778857421875,0.21038013696670532,0.03905685618519783,-0.5480641722679138
1732873804656783600,9.05778369140625,0.22222721576690674,0.1025620624423027,-0.557397723197937
1732873804666778600,9.067778564453125,0.222752645611763,0.15045395493507385,-0.4946014881134033
1732873804676773600,9.077773681640625,0.21416474878787994,0.17292064428329468,-0.37553632259368896
1732873804686768600,9.0877685546875,0.1811804473400116,0.17434197664260864,-0.21473759412765503
1732873804696764700,9.0977646484375,0.11988752335309982,0.1355639547109604,-0.04944611340761185
1732873804706759700,9.107759765625,0.040946632623672485,0.04526335000991821,0.07575095444917679
1732873804716754700,9.117754638671874,-0.04957873746752739,-0.06435475498437881,0.1273302584886551
1732873804726749700,9.127749755859375,-0.13294073939323425,-0.13539829850196838,0.09739073365926743
1732873804736745500,9.137745361328125,-0.18023395538330078,-0.14803606271743774,0.008731972426176071
1732873804746740500,9.147740478515624,-0.19468213617801666,-0.09304365515708923,-0.10341427475214005
1732873804756735500,9.157735595703125,-0.17788344621658325,-0.006941529456526041,-0.22122985124588013
1732873804766730500,9.16773046875,-0.15040601789951324,0.05825132131576538,-0.3199620246887207
1732873804776726500,9.1777265625,-0.14211559295654297,0.10712805390357971,-0.400341272354126
1732873804786721800,9.1877216796875,-0.1697291135787964,0.12711134552955627,-0.44831547141075134
1732873804796716800,9.197716796875,-0.22673781216144562,0.09560588747262955,-0.45263537764549255
1732873804806711600,9.207711669921874,-0.2941213846206665,-0.01034451648592949,-0.41310182213783264
1732873804816706600,9.21770654296875,-0.3489590585231781,-0.17723549902439117,-0.3731277883052826
1732873804826702600,9.22770263671875,-0.375155508518219,-0.32325583696365356,-0.38987401127815247
1732873804836697600,9.237697509765624,-0.36727067828178406,-0.3399865925312042,-0.4669618606567383
1732873804846692600,9.247692626953125,-0.315569132566452,-0.17012806236743927,-0.5179520845413208
1732873804856687600,9.2576875,-0.20972447097301483,0.14811064302921295,-0.4103933870792389
1732873804866682600,9.2676826171875,-0.07704977691173553,0.47099149227142334,-0.06162501499056816
1732873804876678700,9.2776787109375,0.027355991303920746,0.6276636719703674,0.484467089176178
1732873804886673700,9.287673583984375,0.057501643896102905,0.6024222373962402,1.0953773260116577
1732873804896668700,9.297668701171874,0.0015877765836194158,0.388040691614151,1.6355111598968506
1732873804906663700,9.30766357421875,-0.13463903963565826,0.03971385583281517,1.9784005880355835
1732873804916659700,9.31765966796875,-0.29580050706863403,-0.35080569982528687,2.044184923171997
1732873804926654500,9.327654541015624,-0.41076889634132385,-0.6937465071678162,1.8179978132247925
1732873804936649500,9.3376494140625,-0.46257564425468445,-0.8630380630493164,1.3581924438476562
1732873804946644500,9.34764453125,-0.47763606905937195,-0.786034107208252,0.7353507280349731
1732873804956640500,9.357640625,-0.42433449625968933,-0.47890961170196533,0.05012255534529686
1732873804966635800,9.3676357421875,-0.31811511516571045,-0.106548011302948,-0.595725953578949
1732873804976630800,9.377630859375,-0.20701177418231964,0.24673202633857727,-1.0821951627731323
1732873804986625800,9.387625732421874,-0.126738503575325,0.5141429305076599,-1.3534109592437744
1732873804996620500,9.39762060546875,-0.10028665512800217,0.6682947278022766,-1.4194622039794922
1732873805006616600,9.407616455078125,-0.10962316393852234,0.7203896045684814,-1.3215053081512451
1732873805016611600,9.417611572265624,-0.1489119827747345,0.6593267917633057,-1.0800704956054688
1732873805026606600,9.427606689453125,-0.20981821417808533,0.5277730226516724,-0.7335118055343628
1732873805036601600,9.4376015625,-0.28301864862442017,0.3958030045032501,-0.33256569504737854
1732873805046597400,9.447597412109374,-0.34517017006874084,0.2694336175918579,0.05246507376432419
1732873805056592600,9.457592529296875,-0.3867708742618561,0.1480957269668579,0.3498818278312683
1732873805066587600,9.467587646484375,-0.39894524216651917,0.06712284684181213,0.5174367427825928
1732873805076582700,9.477582763671874,-0.37654274702072144,0.05173802748322487,0.5471680164337158
1732873805086577700,9.48757763671875,-0.31928879022598267,0.07712993770837784,0.4588509202003479
1732873805096573700,9.49757373046875,-0.24732616543769836,0.13975363969802856,0.2883604168891907
1732873805106568400,9.507568359375,-0.16582173109054565,0.20179224014282227,0.08224666863679886
1732873805116563500,9.5175634765625,-0.09470227360725403,0.25371217727661133,-0.11155954748392105
1732873805126558500,9.527558349609375,-0.03803606703877449,0.2545151114463806,-0.2541177570819855
1732873805136554500,9.537554443359374,-0.008020908571779728,0.20477844774723053,-0.3232124149799347
1732873805146549800,9.5475498046875,0.0030684941448271275,0.12951697409152985,-0.32619142532348633
1732873805156544800,9.557544677734375,0.00219551008194685,0.04984612017869949,-0.2688966989517212
1732873805166539800,9.567539794921874,-0.00800120085477829,-0.026576483622193336,-0.16457749903202057
1732873805176534500,9.577534423828125,-0.025534121319651604,-0.08912188559770584,-0.036852821707725525
1732873805186530600,9.587530517578125,-0.03978256508708,-0.14780864119529724,0.09059488028287888
1732873805196525600,9.597525634765624,-0.05962444841861725,-0.17792952060699463,0.19803665578365326
1732873805206520600,9.6075205078125,-0.08468160033226013,-0.19501662254333496,0.26267609000205994
1732873805216515600,9.617515625,-0.12175359576940536,-0.23054799437522888,0.2808569669723511
1732873805226511400,9.627511474609374,-0.16698552668094635,-0.2667451500892639,0.2638359069824219
1732873805236506600,9.637506591796875,-0.20849941670894623,-0.29197514057159424,0.21877121925354004
1732873805246501600,9.647501708984375,-0.24498552083969116,-0.28897562623023987,0.14415770769119263
1732873805256496600,9.65749658203125,-0.2523677945137024,-0.259421706199646,0.03146151825785637
1732873805266491600,9.66749169921875,-0.22183172404766083,-0.20736943185329437,-0.1153194010257721
1732873805276487700,9.67748779296875,-0.17150144279003143,-0.12213203310966492,-0.2804606854915619
1732873805286482700,9.687482666015624,-0.11545655131340027,-0.006024602800607681,-0.4371640086174011
1732873805296477400,9.6974775390625,-0.03825444355607033,0.1491442173719406,-0.5525968670845032
1732873805306472400,9.707472412109375,0.05920899659395218,0.3053484559059143,-0.5933690667152405
1732873805316468500,9.717468505859374,0.16935095191001892,0.4397584795951843,-0.5401899814605713
1732873805326463700,9.727463623046875,0.28552308678627014,0.5333206653594971,-0.4039013981819153
1732873805336458800,9.737458740234375,0.3855538070201874,0.6038323640823364,-0.22099736332893372
1732873805346453800,9.747453857421876,0.458130806684494,0.6756567358970642,-0.037038709968328476
1732873805356448800,9.75744873046875,0.5191662311553955,0.7100006341934204,0.10646891593933105
1732873805366444500,9.767444580078125,0.5973278284072876,0.6737880110740662,0.1940869241952896
1732873805376439600,9.777439453125,0.6595286726951599,0.5217697024345398,0.1963426172733307
1732873805386434600,9.7874345703125,0.6694044470787048,0.2214098870754242,0.10721167176961899
1732873805396429600,9.7974296875,0.5839263200759888,-0.09463728964328766,-0.04157034680247307
1732873805406425600,9.807425537109374,0.4238745868206024,-0.3919842839241028,-0.19894079864025116
1732873805416420600,9.817420654296875,0.2598068118095398,-0.615444004535675,-0.27049219608306885
1732873805426415600,9.82741552734375,0.2098938375711441,-0.5628974437713623,-0.17868265509605408
1732873805436410600,9.83741064453125,0.2900363504886627,-0.3573927581310272,0.0548107847571373
1732873805446405600,9.847405517578125,0.4195946156978607,-0.1606764942407608,0.4027477204799652
1732873805456401700,9.857401611328125,0.5597423911094666,-0.0051566786132752895,0.7953229546546936
1732873805466396700,9.867396728515626,0.6843719482421875,0.03150838986039162,1.1288650035858154
1732873805476391700,9.8773916015625,0.753451943397522,-0.09712707996368408,1.314592719078064
1732873805486386400,9.887386474609375,0.716096818447113,-0.26472407579421997,1.2875382900238037
1732873805496382700,9.8973828125,0.5888805985450745,-0.4754698574542999,1.0546088218688965
1732873805506377700,9.907377685546875,0.4286019504070282,-0.6443944573402405,0.6759212017059326
1732873805516372700,9.917372802734375,0.25614628195762634,-0.6361144185066223,0.22470687329769135
1732873805526367700,9.92736767578125,0.09575928002595901,-0.5299091339111328,-0.21148987114429474
1732873805536362800,9.93736279296875,-0.02202301099896431,-0.325655072927475,-0.5492711067199707
1732873805546358500,9.947358642578125,-0.08105064183473587,-0.0952753871679306,-0.7498300671577454
1732873805556353500,9.957353515625,-0.0917525589466095,0.095013327896595,-0.8059340715408325
1732873805566348500,9.9673486328125,-0.0853513851761818,0.21634376049041748,-0.729920506477356
1732873805576343600,9.977343505859375,-0.08165890723466873,0.2728903889656067,-0.5855169892311096
1732873805586339800,9.98733984375,-0.07360311597585678,0.259268581867218,-0.3985801339149475
1732873805596334600,9.99733447265625,-0.06931835412979126,0.20010539889335632,-0.22316011786460876
1732873805606329600,10.00732958984375,-0.07424972951412201,0.11186741292476654,-0.0806058943271637
1732873805616324600,10.01732470703125,-0.09620216488838196,0.015250591561198235,0.014328339137136936
1732873805626320600,10.027320556640625,-0.13102565705776215,-0.08530104905366898,0.07148297131061554
1732873805636315600,10.037315673828125,-0.16805025935173035,-0.1556902676820755,0.09666342288255692
1732873805646310700,10.047310546875,-0.19342058897018433,-0.18030212819576263,0.08879964053630829
1732873805656305700,10.0573056640625,-0.20428521931171417,-0.17673589289188385,0.04970576986670494
1732873805666300400,10.067300537109375,-0.19776473939418793,-0.16845425963401794,-0.027967719361186028
1732873805676296700,10.077296630859376,-0.16927078366279602,-0.15184386074543,-0.1351919025182724
1732873805686291700,10.087291748046875,-0.11795379966497421,-0.11138990521430969,-0.24784068763256073
1732873805696286700,10.09728662109375,-0.05607179179787636,-0.05895466357469559,-0.34272804856300354
1732873805706281700,10.10728173828125,0.014763499610126019,0.0044080642983317375,-0.38762548565864563
1732873805716277500,10.117277587890625,0.08093240112066269,0.0580875389277935,-0.36971625685691833
1732873805726272500,10.1272724609375,0.13929371535778046,0.09344978630542755,-0.28200453519821167
1732873805736267500,10.137267578125,0.1781281977891922,0.10349070280790329,-0.13441000878810883
1732873805746262500,10.147262451171875,0.201887845993042,0.08073745667934418,0.04645724594593048
1732873805756257500,10.157257568359375,0.21052688360214233,0.045394379645586014,0.22128312289714813
1732873805766253800,10.16725390625,0.21077321469783783,0.004266384057700634,0.33652210235595703
1732873805776248600,10.17724853515625,0.2006627917289734,-0.01272777933627367,0.3781012296676636
1732873805786243600,10.18724365234375,0.18142038583755493,0.005855758674442768,0.3473353385925293
1732873805796238600,10.197238525390626,0.15377464890480042,0.059909671545028687,0.25794127583503723
1732873805806234600,10.207234619140625,0.1230606809258461,0.14857029914855957,0.14046071469783783
1732873805816229600,10.217229736328125,0.09252327680587769,0.22721904516220093,0.018162226304411888
1732873805826224600,10.227224609375,0.06654440611600876,0.27335324883461,-0.07183104753494263
1732873805836219600,10.2372197265625,0.037979606539011,0.2945304214954376,-0.11633273214101791
1732873805846214700,10.247214599609375,0.014821556396782398,0.2859548032283783,-0.10936270654201508
1732873805856210700,10.257210693359376,0.006311691831797361,0.24622388184070587,-0.06178906559944153
1732873805866205700,10.267205810546875,0.005285841878503561,0.17044417560100555,0.00072597770486027
1732873805876200700,10.27720068359375,-0.008464857004582882,0.06668341904878616,0.03934740647673607
1732873805886195700,10.28719580078125,-0.03935539349913597,-0.04785327613353729,0.036619529128074646
1732873805896191500,10.29719140625,-0.08918766677379608,-0.14689010381698608,-0.022521819919347763
1732873805906186500,10.3071865234375,-0.13312609493732452,-0.2323155254125595,-0.12651905417442322
1732873805916181500,10.317181396484376,-0.16354338824748993,-0.29853129386901855,-0.24512480199337006
1732873805926176500,10.327176513671875,-0.1810704469680786,-0.3114013075828552,-0.3564220368862152
1732873805936171500,10.337171630859375,-0.1703195422887802,-0.24593013525009155,-0.428091436624527
1732873805946167800,10.347167724609376,-0.14516118168830872,-0.12624874711036682,-0.39743682742118835
1732873805956162800,10.357162841796875,-0.1242913231253624,0.025843314826488495,-0.18968364596366882
1732873805966157600,10.367157470703125,-0.10549606382846832,0.171234592795372,0.17920809984207153
1732873805976152600,10.377152587890626,-0.09070699661970139,0.22999565303325653,0.6444191932678223
1732873805986148600,10.387148681640625,-0.10786974430084229,0.17898786067962646,1.1010639667510986
1732873805996143600,10.3971435546875,-0.16543397307395935,0.02179078198969364,1.466842770576477
1732873806006138600,10.407138671875,-0.2568219304084778,-0.19483846426010132,1.6724510192871094
1732873806016133600,10.417133544921874,-0.3309638202190399,-0.39032992720603943,1.6483728885650635
1732873806026128600,10.427128662109375,-0.3656408190727234,-0.5332385897636414,1.3616909980773926
1732873806036124700,10.437124755859376,-0.3546973764896393,-0.612394392490387,0.8581940531730652
1732873806046119700,10.44711962890625,-0.3103831708431244,-0.5539348125457764,0.20977985858917236
1732873806056114700,10.45711474609375,-0.240945503115654,-0.3633134961128235,-0.48826396465301514
1732873806066109700,10.467109619140626,-0.15000946819782257,-0.10528780519962311,-1.0945496559143066
1732873806076105500,10.47710546875,-0.045038316398859024,0.15027205646038055,-1.4821157455444336
1732873806086100500,10.4871005859375,0.033181123435497284,0.31451159715652466,-1.5862058401107788
1732873806096095500,10.497095458984376,0.08173161745071411,0.3651745021343231,-1.4312748908996582
1732873806106090500,10.507090576171874,0.11028362810611725,0.3840683102607727,-1.0826151371002197
1732873806116085500,10.51708544921875,0.13059422373771667,0.3735072612762451,-0.641811192035675
1732873806126081800,10.527081787109376,0.14779531955718994,0.330846905708313,-0.21010476350784302
1732873806136076800,10.537076904296875,0.14221839606761932,0.2767799198627472,0.12373525649309158
1732873806146071600,10.547071533203125,0.12459838390350342,0.23638111352920532,0.30198755860328674
1732873806156066600,10.557066650390626,0.11170496046543121,0.2295474410057068,0.3375481963157654
1732873806166062600,10.5670625,0.1049349382519722,0.27883535623550415,0.2566773295402527
1732873806176057600,10.5770576171875,0.11199390888214111,0.3555535674095154,0.11591701209545135
1732873806186052600,10.587052490234376,0.1281510442495346,0.45566844940185547,-0.016568589955568314
1732873806196047600,10.597047607421874,0.14682459831237793,0.5173110365867615,-0.11165648698806763
1732873806206042600,10.607042724609375,0.17325061559677124,0.5072629451751709,-0.15581916272640228
1732873806216038700,10.61703857421875,0.19605232775211334,0.44010093808174133,-0.15428464114665985
1732873806226033700,10.62703369140625,0.21748624742031097,0.3632274866104126,-0.12783412635326385
1732873806236028700,10.637028564453125,0.22862198948860168,0.27873921394348145,-0.09727168828248978
1732873806246023700,10.647023681640626,0.21806734800338745,0.1786043643951416,-0.0647457093000412
1732873806256019700,10.657019775390625,0.21552430093288422,0.04721811041235924,-0.017242370173335075
1732873806266014500,10.667014404296875,0.20170675218105316,-0.07404493540525436,0.041917089372873306
1732873806276009500,10.677009521484376,0.19405655562877655,-0.2162580043077469,0.11397343873977661
1732873806286004500,10.68700439453125,0.19577482342720032,-0.30336734652519226,0.19425469636917114
1732873806295999500,10.69699951171875,0.2151583880186081,-0.34620189666748047,0.2695814073085785
1732873806305995800,10.706995849609376,0.2571742832660675,-0.35526809096336365,0.3327971398830414
1732873806315990800,10.71699072265625,0.3160895109176636,-0.30422595143318176,0.38206160068511963
1732873806325985800,10.72698583984375,0.38882312178611755,-0.20977267622947693,0.4231656491756439
1732873806335980500,10.73698046875,0.46435409784317017,-0.09947545826435089,0.4712117314338684
1732873806345976600,10.7469765625,0.5321826934814453,-0.007678425870835781,0.5135442614555359
1732873806355971600,10.7569716796875,0.5914528965950012,0.04607028886675835,0.5236712098121643
1732873806365966600,10.766966552734376,0.6520653963088989,0.06622882187366486,0.47234678268432617
1732873806375961600,10.776961669921874,0.7069656848907471,0.04442738741636276,0.3281850814819336
1732873806385956600,10.78695654296875,0.7317200303077698,0.04623034596443176,0.10465717315673828
1732873806395952600,10.79695263671875,0.7138480544090271,0.08857247978448868,-0.1404324769973755
1732873806405947600,10.80694775390625,0.6731131672859192,0.14650101959705353,-0.32973024249076843
1732873806415942700,10.816942626953125,0.6344491243362427,0.20649191737174988,-0.4005995988845825
1732873806425937700,10.826937744140626,0.6109288930892944,0.22188019752502441,-0.32680556178092957
1732873806435933700,10.83693359375,0.5901258587837219,0.20589511096477509,-0.14576119184494019
1732873806445928400,10.846928466796875,0.5690956711769104,0.176780104637146,0.055993761867284775
1732873806455923500,10.85692333984375,0.5268568992614746,0.15276691317558289,0.197236105799675
1732873806465918700,10.866918701171874,0.4991925060749054,0.12026914954185486,0.23364044725894928
1732873806475913700,10.876913818359375,0.4665890038013458,0.10287871211767197,0.16212232410907745
1732873806485910000,10.886909912109376,0.43387874960899353,0.11006125807762146,0.007682687137275934
1732873806495905000,10.896905029296875,0.40073198080062866,0.11397237330675125,-0.17346659302711487
1732873806505900000,10.906900146484375,0.3908223509788513,0.09101592749357224,-0.33901694416999817
1732873806515894800,10.916894775390626,0.39775243401527405,0.050938546657562256,-0.45603543519973755
1732873806525889800,10.926889892578124,0.4218260645866394,-0.0026754115242511034,-0.5220586657524109
1732873806535885800,10.9368857421875,0.47521740198135376,-0.06263035535812378,-0.5370075106620789
1732873806545880800,10.946880859375,0.5282619595527649,-0.12095598131418228,-0.5192729830741882
1732873806555875800,10.956875732421874,0.5789994597434998,-0.18378899991512299,-0.4761044979095459
1732873806565870800,10.966870849609375,0.6220678091049194,-0.23031549155712128,-0.4144757390022278
1732873806575867000,10.976866943359376,0.6492893099784851,-0.2348037213087082,-0.3342200517654419
1732873806585862000,10.98686181640625,0.6552257537841797,-0.22276197373867035,-0.251423180103302
1732873806595857000,10.99685693359375,0.6485897302627563,-0.20214644074440002,-0.17660486698150635
1732873806605852000,11.006851806640626,0.6318802237510681,-0.15698988735675812,-0.11159870028495789
1732873806615847000,11.016846923828124,0.6086603999137878,-0.09103377163410187,-0.062131281942129135
1732873806625842700,11.0268427734375,0.5932105779647827,-0.010322146117687225,-0.02329493686556816
1732873806635837700,11.036837646484376,0.5868083834648132,0.08298330008983612,0.006959106307476759
1732873806645832700,11.046832763671874,0.5951706767082214,0.17001061141490936,0.03888588026165962
1732873806655827700,11.05682763671875,0.6277515292167664,0.2538037896156311,0.08073452860116959
1732873806665824000,11.066823974609376,0.6786368489265442,0.3299211859703064,0.1345261186361313
1732873806675819000,11.076819091796875,0.7361499071121216,0.39005589485168457,0.18707215785980225
1732873806685814000,11.08681396484375,0.796035647392273,0.4344084560871124,0.21721060574054718
1732873806695808800,11.096808837890626,0.8516847491264343,0.46506035327911377,0.21818053722381592
1732873806705803800,11.1068037109375,0.8893373608589172,0.4822950065135956,0.18393760919570923
1732873806715799800,11.1167998046875,0.9091022610664368,0.4628147780895233,0.11558917909860611
1732873806725794800,11.126794921875,0.9214907288551331,0.4231824278831482,0.036735910922288895
1732873806735789800,11.136789794921874,0.9344030618667603,0.377881795167923,-0.032530777156353
1732873806745784800,11.146784912109375,0.9448655843734741,0.32842129468917847,-0.0741964653134346
1732873806755780900,11.15678076171875,0.956597626209259,0.2629900872707367,-0.0764593556523323
1732873806765776000,11.16677587890625,0.9732722043991089,0.2043858915567398,-0.04674859717488289
1732873806775771000,11.17677099609375,0.988143265247345,0.13606196641921997,-0.0019438412273302674
1732873806785766000,11.186765869140626,1.0017591714859009,0.06994473189115524,0.04002251848578453
1732873806795761000,11.196760986328124,1.0199142694473267,0.0277932807803154,0.0788482129573822
1732873806805757000,11.2067568359375,1.0401830673217773,0.023841150104999542,0.1069866344332695
1732873806815751700,11.216751708984376,1.0588219165802002,0.0477193184196949,0.13276790082454681
1732873806825746700,11.22674658203125,1.0832767486572266,0.08102481067180634,0.15514510869979858
1732873806835741700,11.23674169921875,1.1124857664108276,0.0974288210272789,0.17314328253269196
1732873806845736700,11.24673681640625,1.1427773237228394,0.09715744107961655,0.17733749747276306
1732873806855733000,11.25673291015625,1.1816555261611938,0.09308546781539917,0.16543050110340118
1732873806865728000,11.26672802734375,1.2189764976501465,0.1091989278793335,0.1430586278438568
1732873806875723000,11.276722900390626,1.2602605819702148,0.15924957394599915,0.12474992126226425
1732873806885717800,11.2867177734375,1.3165011405944824,0.23887969553470612,0.11195210367441177
1732873806895713800,11.2967138671875,1.375014066696167,0.33358994126319885,0.1114245280623436
1732873806905708800,11.306708740234376,1.433593511581421,0.41760149598121643,0.11527173221111298
1732873806915703800,11.316703857421874,1.4835983514785767,0.4680481553077698,0.12111630290746689
1732873806925698800,11.32669873046875,1.5182290077209473,0.4912741184234619,0.11064156144857407
1732873806935693800,11.33669384765625,1.5374183654785156,0.48231711983680725,0.08669628202915192
1732873806945689900,11.34668994140625,1.5516796112060547,0.4320555329322815,0.04023903235793114
1732873806955684900,11.356684814453125,1.569728136062622,0.37406495213508606,-0.01255094539374113
1732873806965679900,11.366679931640626,1.5953730344772339,0.3581134080886841,-0.05648351460695267
1732873806975675000,11.3766748046875,1.6304510831832886,0.3804730474948883,-0.09319145977497101
1732873806985671000,11.3866708984375,1.6782793998718262,0.4141865372657776,-0.10474584996700287
1732873806995665700,11.396665771484376,1.7370145320892334,0.44992774724960327,-0.0928276777267456
1732873807005660700,11.40666064453125,1.795972466468811,0.47711142897605896,-0.0774199590086937
1732873807015655700,11.41665576171875,1.8432555198669434,0.4738903343677521,-0.08413218706846237
1732873807025650700,11.426650634765625,1.8835026025772095,0.4445132613182068,-0.13323742151260376
1732873807035647000,11.43664697265625,1.9288105964660645,0.43425798416137695,-0.23064225912094116
1732873807045642000,11.44664208984375,1.976728081703186,0.4434349536895752,-0.3761238157749176
1732873807055637000,11.456636962890625,2.030524492263794,0.4721371829509735,-0.5553050637245178
1732873807065631700,11.4666318359375,2.0850226879119873,0.5299307107925415,-0.739030122756958
1732873807075626800,11.476626708984375,2.132296323776245,0.5610973834991455,-0.8970714211463928
1732873807085622800,11.486622802734376,2.1782734394073486,0.5557631254196167,-1.003077745437622
1732873807095617800,11.49661767578125,2.232207775115967,0.5223601460456848,-1.0350202322006226
1732873807105612800,11.50661279296875,2.2857472896575928,0.4304398000240326,-0.9874823093414307
1732873807115607800,11.51660791015625,2.3331925868988037,0.28853166103363037,-0.8818352222442627
1732873807125603800,11.526603759765624,2.3716483116149902,0.13722896575927734,-0.7398043274879456
1732873807135598800,11.536598876953125,2.397975206375122,0.03086364082992077,-0.5860016942024231
1732873807145593900,11.54659375,2.4158732891082764,-0.002526274649426341,-0.43980374932289124
1732873807155588900,11.5565888671875,2.4367642402648926,0.020131632685661316,-0.3102175295352936
1732873807165584000,11.566583984375,2.4500675201416016,0.08164266496896744,-0.20463064312934875
1732873807175580000,11.576579833984376,2.4428982734680176,0.12384498119354248,-0.12793320417404175
1732873807185574700,11.58657470703125,2.422325372695923,0.13483983278274536,-0.07174369692802429
1732873807195569700,11.596569580078125,2.401851177215576,0.1287931352853775,-0.035602468997240067
1732873807205564700,11.606564697265625,2.395775079727173,0.12670014798641205,-0.009594570845365524
1732873807215560000,11.616559814453124,2.4132654666900635,0.13689686357975006,-0.001058872789144516
1732873807225556000,11.626555908203125,2.4479763507843018,0.16185708343982697,-0.00455640209838748
1732873807235551000,11.636551025390625,2.497119426727295,0.21673044562339783,-0.015907593071460724
1732873807245546000,11.6465458984375,2.5434510707855225,0.28295233845710754,-0.041612423956394196
1732873807255540700,11.656540771484375,2.5755748748779297,0.32402655482292175,-0.08046688139438629
1732873807265536800,11.666536865234375,2.604041814804077,0.323559433221817,-0.11673300713300705
1732873807275531800,11.67653173828125,2.6280462741851807,0.3032855689525604,-0.1356624960899353
1732873807285526800,11.68652685546875,2.6283457279205322,0.26625218987464905,-0.13907559216022491
1732873807295521800,11.696521728515625,2.6092119216918945,0.2247055470943451,-0.14292626082897186
1732873807305517000,11.70651708984375,2.5929484367370605,0.16975520551204681,-0.15173013508319855
1732873807315512800,11.716512939453125,2.5800881385803223,0.15273335576057434,-0.1640360802412033
1732873807325507800,11.7265078125,2.5696465969085693,0.15603433549404144,-0.17446660995483398
1732873807335502800,11.7365029296875,2.5733067989349365,0.18651102483272552,-0.18097618222236633
1732873807345497900,11.746497802734375,2.5887603759765625,0.23469160497188568,-0.17869997024536133
1732873807355492900,11.756492919921875,2.6063694953918457,0.2814372777938843,-0.16819407045841217
1732873807365488600,11.766488525390624,2.610938549041748,0.3013308048248291,-0.15143266320228577
1732873807375483600,11.776483642578125,2.5988197326660156,0.3148500919342041,-0.13383929431438446
1732873807385478700,11.786478759765625,2.5659265518188477,0.31864696741104126,-0.1198614239692688
1732873807395474000,11.796473876953126,2.536831855773926,0.2741420865058899,-0.10725082457065582
1732873807405470000,11.806469970703125,2.5099709033966064,0.2003972828388214,-0.09140714257955551
1732873807415465000,11.81646484375,2.4794862270355225,0.11245623975992203,-0.06554518640041351
1732873807425460000,11.8264599609375,2.4516005516052246,0.04620504379272461,-0.01967756450176239
1732873807435454700,11.836454833984375,2.4381842613220215,0.04639546200633049,0.03888055309653282
1732873807445449700,11.84644970703125,2.434990167617798,0.1176571249961853,0.10062860697507858
1732873807455445800,11.85644580078125,2.427140712738037,0.23964694142341614,0.14930985867977142
1732873807465440800,11.866440673828125,2.4214515686035156,0.3709477186203003,0.17320480942726135
1732873807475436300,11.876436279296875,2.408637523651123,0.4526039659976959,0.16088847815990448
1732873807485431300,11.886431396484374,2.377261161804199,0.46804922819137573,0.11266157031059265
1732873807495427000,11.896427001953125,2.3341615200042725,0.426041841506958,0.0557096004486084
1732873807505422000,11.906422119140625,2.294830083847046,0.36813461780548096,0.0032836776226758957
1732873807515417000,11.9164169921875,2.269892930984497,0.3277813196182251,-0.0324343740940094
1732873807525412400,11.926412353515625,2.2487752437591553,0.3071032166481018,-0.0493377223610878
1732873807535407400,11.936407470703125,2.2306647300720215,0.2926960587501526,-0.05559082329273224
1732873807545403100,11.946403076171874,2.211153984069824,0.27324485778808594,-0.05854160711169243
1732873807555398100,11.956398193359375,2.1844072341918945,0.26035434007644653,-0.07584123313426971
1732873807565393200,11.96639306640625,2.150352954864502,0.23261326551437378,-0.10822074860334396
1732873807575388200,11.97638818359375,2.104478120803833,0.18607160449028015,-0.15088538825511932
1732873807585383200,11.986383056640625,2.046680212020874,0.13245631754398346,-0.191594198346138
1732873807595379200,11.996379150390625,1.9805928468704224,0.08159898966550827,-0.21750248968601227
1732873807605374200,12.006374267578124,1.9117933511734009,0.04622741788625717,-0.21876908838748932
1732873807615369200,12.016369140625,1.8477799892425537,0.03623497113585472,-0.1956041157245636
1732873807625364200,12.0263642578125,1.7922704219818115,0.04104197397828102,-0.14707200229167938
1732873807635359200,12.036359130859376,1.7468379735946655,0.06356113404035568,-0.07950174808502197
1732873807645355300,12.046355224609375,1.7061858177185059,0.09567459672689438,-0.006213154643774033
1732873807655350300,12.056350341796875,1.6633312702178955,0.11406292021274567,0.05162084847688675
1732873807665345300,12.06634521484375,1.6186299324035645,0.12369078397750854,0.06841101497411728
1732873807675340300,12.07634033203125,1.5740448236465454,0.12077914923429489,0.020311130210757256
1732873807685336000,12.086336181640625,1.5226212739944458,0.10977363586425781,-0.0853860005736351
1732873807695331300,12.096331298828124,1.44435715675354,0.09772948920726776,-0.23221459984779358
1732873807705326300,12.106326416015625,1.3466154336929321,0.11372204124927521,-0.39353904128074646
1732873807715321300,12.1163212890625,1.242922306060791,0.1564098447561264,-0.5420078635215759
1732873807725316400,12.12631640625,1.151099681854248,0.24217908084392548,-0.6426798701286316
1732873807735312100,12.13631201171875,1.0780625343322754,0.32255274057388306,-0.6795651912689209
1732873807745307100,12.14630712890625,1.0266305208206177,0.35346487164497375,-0.6489138007164001
1732873807755302100,12.15630224609375,0.9828031063079834,0.34427347779273987,-0.5676860809326172
1732873807765297200,12.166297119140625,0.9392846822738647,0.36137551069259644,-0.4702487289905548
1732873807775293200,12.176293212890625,0.8867120146751404,0.44558200240135193,-0.39628103375434875
1732873807785288400,12.186288330078124,0.8268401622772217,0.6401261687278748,-0.3629632890224457
1732873807795283200,12.196283203125,0.6858417391777039,0.9606618285179138,-0.32067760825157166
1732873807805278200,12.2062783203125,0.45299971103668213,1.251460075378418,-0.24722443521022797
1732873807815273200,12.216273193359376,0.24300731718540192,1.3327816724777222,-0.18269817531108856
1732873807825269200,12.226269287109375,0.12088248133659363,1.1997218132019043,-0.11990909278392792
1732873807835264300,12.23626416015625,0.1283246874809265,0.9090021252632141,-0.027424434199929237
1732873807845259300,12.24625927734375,0.24872566759586334,0.5521145462989807,0.09890075027942657
1732873807855254300,12.256254150390625,0.42076587677001953,0.17527487874031067,0.24929025769233704
1732873807865249300,12.266249267578125,0.5752009749412537,-0.18160735070705414,0.39039838314056396
1732873807875245300,12.276245361328124,0.6930397152900696,-0.40440633893013,0.5130143165588379
1732873807885240300,12.286240234375,0.7134078741073608,-0.4944595396518707,0.6061016321182251
1732873807895235300,12.2962353515625,0.6822608709335327,-0.5372850298881531,0.6303531527519226
1732873807905230300,12.306230224609376,0.6284913420677185,-0.545293390750885,0.5867713689804077
1732873807915225300,12.316225341796875,0.5577782988548279,-0.5087332725524902,0.5035901665687561
1732873807925221000,12.32622119140625,0.48116394877433777,-0.47289830446243286,0.4050140678882599
1732873807935216000,12.336216064453126,0.41034892201423645,-0.4563955068588257,0.3142327666282654
1732873807945211100,12.346211181640625,0.3281043767929077,-0.43578529357910156,0.24251969158649445
1732873807955206100,12.3562060546875,0.23370303213596344,-0.4083523452281952,0.18768973648548126
1732873807965202400,12.366202392578124,0.1353043019771576,-0.3523649573326111,0.14245781302452087
1732873807975197400,12.376197509765625,0.061756573617458344,-0.3051031827926636,0.0915064811706543
