time,seconds_elapsed,z,y,x
1732873795721051400,0.122051513671875,0.015072166919708252,-0.1190115213394165,-0.018820207566022873
1732873795731046400,0.13204638671875,0.021103426814079285,-0.10422804951667786,0.002154051326215267
1732873795741041400,0.14204150390625,0.03712482005357742,-0.0676744133234024,0.018737640231847763
1732873795751036400,0.152036376953125,0.05232321470975876,-0.020065080374479294,0.0317719504237175
1732873795761032700,0.16203271484375,0.0637427270412445,0.02690446749329567,0.042191095650196075
1732873795771027500,0.17202734375,0.06932231783866882,0.05026491731405258,0.04846790432929993
1732873795781022500,0.1820224609375,0.06787321716547012,0.04997912794351578,0.051156267523765564
1732873795791017500,0.192017578125,0.06206699460744858,0.038349635899066925,0.0469367578625679
1732873795801012500,0.202012451171875,0.052431050688028336,0.017525730654597282,0.0387427881360054
1732873795811008500,0.212008544921875,0.040927525609731674,-0.004845621529966593,0.02117178589105606
1732873795821003500,0.22200341796875,0.02961673215031624,-0.015641428530216217,0.002357799094170332
1732873795830998500,0.23199853515625,0.022307954728603363,-0.016894180327653885,-0.016367951408028603
1732873795840993300,0.2419931640625,0.023766029626131058,-0.010664625093340874,-0.028647396713495255
1732873795850988300,0.25198828125,0.024952201172709465,0.0005177215207368135,-0.03712530434131622
1732873795860984600,0.261984619140625,0.021665038540959358,0.012356830760836601,-0.03482351824641228
1732873795870979600,0.2719794921875,0.018922781571745872,0.012793055735528469,-0.028048168867826462
1732873795880974600,0.281974609375,0.01905529946088791,0.010392245836555958,-0.016979217529296875
1732873795890969600,0.291969482421875,0.01869550719857216,0.006998845376074314,-0.001118496060371399
1732873795900964600,0.301964599609375,0.009950641542673111,0.006231085862964392,0.009877217933535576
1732873795910960400,0.31196044921875,0.005978803150355816,0.005304305348545313,0.017690932378172874
1732873795920955400,0.321955322265625,0.010507269762456417,0.0035075575578957796,0.01846257597208023
1732873795930950400,0.331950439453125,0.018163591623306274,0.007518011145293713,0.010474691167473793
1732873795940945400,0.3419453125,0.022746331989765167,0.016379861161112785,0.0018999858293682337
1732873795950941400,0.35194140625,0.026709914207458496,0.034360188990831375,-0.010999035090208054
1732873795960936400,0.3619365234375,0.0317806676030159,0.053744927048683167,-0.018581368029117584
1732873795970931500,0.371931396484375,0.03220278024673462,0.06694674491882324,-0.01873689703643322
1732873795980926500,0.381926513671875,0.034635696560144424,0.07108725607395172,-0.015933183953166008
1732873795990921500,0.39192138671875,0.036272209137678146,0.06790077686309814,-0.005703182425349951
1732873796000917500,0.40191748046875,0.03522232174873352,0.05576339736580849,0.0012462427839636803
1732873796010912500,0.41191259765625,0.0333021841943264,0.04650038853287697,0.008413874544203281
1732873796020907500,0.421907470703125,0.02684718742966652,0.04031377658247948,0.012258021160960197
1732873796030902300,0.43190234375,0.02149157039821148,0.03511342406272888,0.013279610313475132
1732873796040897300,0.441897216796875,0.018734436482191086,0.04194223880767822,0.012173717841506004
1732873796050893600,0.4518935546875,0.0167224183678627,0.04973038658499718,0.017300568521022797
1732873796060888600,0.461888671875,0.017868326976895332,0.04999147728085518,0.019418329000473022
1732873796070883600,0.471883544921875,0.024862319231033325,0.046963728964328766,0.02500484324991703
1732873796080878600,0.481878662109375,0.025858089327812195,0.038920946419239044,0.028313420712947845
1732873796090873600,0.49187353515625,0.024793356657028198,0.03337251394987106,0.031612277030944824
1732873796100869400,0.501869384765625,0.020423606038093567,0.027652639895677567,0.03178313747048378
1732873796110864400,0.511864501953125,0.010560056194663048,0.022220589220523834,0.027181459590792656
1732873796120859400,0.521859375,0.008149121887981892,0.023399390280246735,0.024245982989668846
1732873796130854400,0.5318544921875,0.012356650084257126,0.027185074985027313,0.022007063031196594
1732873796140849400,0.541849365234375,0.02014501579105854,0.038597993552684784,0.021547291427850723
1732873796150845400,0.551845458984375,0.02567480318248272,0.0516141913831234,0.02044367790222168
1732873796160840400,0.56184033203125,0.03230558708310127,0.06455284357070923,0.024130260571837425
1732873796170835500,0.57183544921875,0.03385261818766594,0.05540941283106804,0.020889991894364357
1732873796180830500,0.58183056640625,0.028578409925103188,0.03873174637556076,0.011525698937475681
1732873796190825500,0.591825439453125,0.02069891430437565,0.029651165008544922,0.006271814927458763
1732873796200821500,0.601821533203125,0.011159922927618027,0.0249827578663826,0.0003531205002218485
1732873796210816300,0.611816162109375,0.0026519224047660828,0.028726894408464432,-0.00459423428401351
1732873796220811300,0.621811279296875,0.0016036871820688248,0.031247613951563835,-0.007189086172729731
1732873796230806300,0.63180615234375,0.004162452649325132,0.032314740121364594,-0.0035432185977697372
1732873796240802600,0.641802490234375,0.013598431833088398,0.03126886114478111,-0.0002377741038799286
1732873796250797600,0.651797607421875,0.01640859991312027,0.03481699153780937,0.010032705962657928
1732873796260792600,0.66179248046875,0.017875371500849724,0.04235761612653732,0.020827610045671463
1732873796270787600,0.67178759765625,0.010440358892083168,0.043218351900577545,0.024340054020285606
1732873796280782300,0.6817822265625,-0.0007312634261325002,0.04746783524751663,0.018543653190135956
1732873796290778400,0.6917783203125,-0.014549873769283295,0.04678446799516678,-0.0015613483265042305
1732873796300773400,0.7017734375,-0.021085815504193306,0.042228635400533676,-0.030119623988866806
1732873796310768400,0.711768310546875,-0.028468629345297813,0.0433783195912838,-0.05277060717344284
1732873796320763400,0.721763427734375,-0.020861638709902763,0.05474317818880081,-0.0693155974149704
1732873796330759400,0.731759521484375,-0.0051729558035731316,0.07751107215881348,-0.07144399732351303
1732873796340754400,0.74175439453125,0.003945368342101574,0.1032869815826416,-0.060677461326122284
1732873796350749400,0.75174951171875,0.011157475411891937,0.11744701117277145,-0.04869936406612396
1732873796360744400,0.761744384765625,0.005348988343030214,0.11010408401489258,-0.03524434566497803
1732873796370739500,0.771739501953125,-0.00529460096731782,0.07631523162126541,-0.02658800780773163
1732873796380735500,0.781735595703125,-0.023517608642578125,0.025692353025078773,-0.024239199236035347
1732873796390730500,0.79173046875,-0.049624308943748474,-0.015172787941992283,-0.01805800199508667
1732873796400725200,0.801725341796875,-0.08204064518213272,-0.03637557476758957,-0.01034584827721119
1732873796410720300,0.81172021484375,-0.09697166085243225,-0.046649251133203506,-0.006079464219510555
1732873796420715500,0.821715576171875,-0.10510985553264618,-0.042673658579587936,-0.006201915442943573
1732873796430711600,0.831711669921875,-0.11104151606559753,-0.031048426404595375,-0.005243176594376564
1732873796440706600,0.84170654296875,-0.12274298071861267,-0.016526883468031883,-0.0031054276041686535
1732873796450701600,0.85170166015625,-0.14157073199748993,0.00035995407961308956,0.008827663958072662
1732873796460696600,0.861696533203125,-0.1633702665567398,0.011696701869368553,0.022977957502007484
1732873796470692400,0.8716923828125,-0.19041545689105988,0.013317501172423363,0.03812415152788162
1732873796480687600,0.8816875,-0.2233814299106598,0.007381765637546778,0.045663703233003616
1732873796490682600,0.8916826171875,-0.26285985112190247,0.011003665626049042,0.043126773089170456
1732873796500677600,0.901677734375,-0.3234853744506836,0.02125093899667263,0.03650202602148056
1732873796510672600,0.911672607421875,-0.37190377712249756,0.015725677832961082,0.027797752991318703
1732873796520668400,0.92166845703125,-0.37805482745170593,0.0035352364648133516,0.02418314665555954
1732873796530663400,0.931663330078125,-0.36965975165367126,-0.009334756061434746,0.050324201583862305
1732873796540658400,0.941658447265625,-0.37395179271698,-0.030396070331335068,0.09941404312849045
1732873796550653400,0.9516533203125,-0.37124258279800415,-0.05069814622402191,0.17091140151023865
1732873796560649500,0.9616494140625,-0.3537372946739197,-0.06393981724977493,0.2491859346628189
1732873796570644700,0.971644775390625,-0.30864787101745605,-0.054095178842544556,0.31120163202285767
1732873796580639500,0.981639404296875,-0.2428252398967743,-0.04962882399559021,0.3364456593990326
1732873796590634500,0.991634521484375,-0.20862145721912384,-0.06652124971151352,0.31341543793678284
1732873796600629500,1.00162939453125,-0.2515972852706909,-0.07300321757793427,0.24010692536830902
1732873796610625500,1.01162548828125,-0.362243115901947,-0.0926661342382431,0.12868984043598175
1732873796620620500,1.02162060546875,-0.506558358669281,-0.13392186164855957,-0.005447246599942446
1732873796630615600,1.031615478515625,-0.6544114947319031,-0.12303672730922699,-0.12436618655920029
1732873796640610600,1.041610595703125,-0.696293294429779,-0.006894994992762804,-0.2215692400932312
1732873796650606300,1.0516064453125,-0.7143401503562927,-0.08345794677734375,-0.3290163278579712
1732873796660601600,1.0616015625,-0.7606548070907593,-0.17045652866363525,-0.4002913534641266
1732873796670596600,1.0715966796875,-0.797957718372345,-0.2451896071434021,-0.4510975480079651
1732873796680591600,1.081591552734375,-0.8925219774246216,-0.3485601842403412,-0.49987778067588806
1732873796690586600,1.091586669921875,-1.0966854095458984,-0.40533798933029175,-0.5136526823043823
1732873796700582400,1.10158251953125,-1.2743586301803589,-0.43659529089927673,-0.5101495385169983
1732873796710577400,1.111577392578125,-1.3657095432281494,-0.4196855425834656,-0.4683075547218323
1732873796720572400,1.121572509765625,-1.3893903493881226,-0.34858959913253784,-0.37207266688346863
1732873796730567400,1.1315673828125,-1.3770685195922852,-0.26128000020980835,-0.21865995228290558
1732873796740563500,1.1415634765625,-1.3164252042770386,-0.19955745339393616,-0.03264686092734337
1732873796750558700,1.151558837890625,-1.2143949270248413,-0.187840074300766,0.15412089228630066
1732873796760553500,1.161553466796875,-1.1041582822799683,-0.228340744972229,0.31339287757873535
1732873796770548500,1.171548583984375,-1.0439265966415405,-0.32396259903907776,0.41921013593673706
1732873796780543500,1.18154345703125,-1.0562368631362915,-0.40913471579551697,0.47453850507736206
1732873796790539500,1.19153955078125,-1.1367384195327759,-0.4874177873134613,0.4832877814769745
1732873796800534500,1.201534423828125,-1.2685658931732178,-0.5389195680618286,0.46413278579711914
1732873796810529500,1.211529541015625,-1.4261912107467651,-0.5601654648780823,0.440537691116333
1732873796820524500,1.221524658203125,-1.5861769914627075,-0.5542083978652954,0.42723938822746277
1732873796830520300,1.231520263671875,-1.7341119050979614,-0.5349537134170532,0.4138453006744385
1732873796840515600,1.241515625,-1.8449382781982422,-0.5150808095932007,0.38730376958847046
1732873796850510600,1.251510498046875,-1.8346467018127441,-0.5257350206375122,0.3327566385269165
1732873796860505600,1.261505615234375,-1.8411517143249512,-0.5192958116531372,0.26091834902763367
1732873796870500600,1.27150048828125,-1.9023396968841553,-0.5172600746154785,0.1706846058368683
1732873796880496400,1.281496337890625,-1.9610180854797363,-0.5275655388832092,0.053350117057561874
1732873796890491400,1.291491455078125,-2.01458477973938,-0.5208953619003296,-0.0985318273305893
1732873796900486400,1.301486328125,-2.061176300048828,-0.48819124698638916,-0.2692306339740753
1732873796910481400,1.3114814453125,-2.101816177368164,-0.4384937286376953,-0.42464444041252136
1732873796920477400,1.3214775390625,-2.1399571895599365,-0.35176339745521545,-0.5325817465782166
1732873796930472700,1.33147265625,-2.175234317779541,-0.24485215544700623,-0.5703200697898865
1732873796940467700,1.3414677734375,-2.202169418334961,-0.13533371686935425,-0.5146092176437378
1732873796950462500,1.35146240234375,-2.218790054321289,-0.05104760080575943,-0.35961347818374634
1732873796960457500,1.36145751953125,-2.236422061920166,-0.026239687576889992,-0.14021927118301392
1732873796970453500,1.37145361328125,-2.2539405822753906,-0.0698833018541336,0.07735247910022736
1732873796980448500,1.381448486328125,-2.2691495418548584,-0.17247208952903748,0.23624011874198914
1732873796990443500,1.391443603515625,-2.285274028778076,-0.2748107314109802,0.3078855276107788
1732873797000438500,1.4014384765625,-2.2995903491973877,-0.3482078015804291,0.29441750049591064
1732873797010434600,1.4114345703125,-2.3036348819732666,-0.37180474400520325,0.21445369720458984
1732873797020429600,1.4214296875,-2.2919318675994873,-0.33966559171676636,0.1015726774930954
1732873797030424600,1.431424560546875,-2.2684454917907715,-0.26553064584732056,-0.003666399046778679
1732873797040419600,1.441419677734375,-2.233637809753418,-0.17894978821277618,-0.07519744336605072
1732873797050414600,1.45141455078125,-2.1972222328186035,-0.12377680093050003,-0.09620073437690735
1732873797060410600,1.46141064453125,-2.1741769313812256,-0.11683771759271622,-0.08221162855625153
1732873797070405400,1.4714052734375,-2.1653506755828857,-0.16155433654785156,-0.04715563729405403
1732873797080400400,1.481400390625,-2.1798980236053467,-0.255769282579422,-0.013497615233063698
1732873797090395400,1.4913955078125,-2.2093119621276855,-0.36080196499824524,0.0051415832713246346
1732873797100391700,1.5013916015625,-2.239936590194702,-0.4490259885787964,-0.0010523824021220207
1732873797110386700,1.51138671875,-2.252622365951538,-0.503298819065094,-0.029262449592351913
1732873797120381700,1.521381591796875,-2.2515902519226074,-0.5233685374259949,-0.07378973066806793
1732873797130376700,1.531376708984375,-2.2425684928894043,-0.5273991823196411,-0.1313326507806778
1732873797140371500,1.541371337890625,-2.2192280292510986,-0.500812292098999,-0.19042643904685974
1732873797150367500,1.551367431640625,-2.171830415725708,-0.4372612535953522,-0.23581735789775848
1732873797160362500,1.561362548828125,-2.1002776622772217,-0.33730998635292053,-0.25659099221229553
1732873797170357500,1.571357421875,-2.006929874420166,-0.20525847375392914,-0.23918752372264862
1732873797180352500,1.5813525390625,-1.914905309677124,-0.09781726449728012,-0.2035946547985077
1732873797190348500,1.5913486328125,-1.827693223953247,-0.03507452458143234,-0.16201046109199524
1732873797200343600,1.601343505859375,-1.7450230121612549,-0.020240500569343567,-0.13291096687316895
1732873797210338600,1.611338623046875,-1.6857157945632935,-0.04498499631881714,-0.11377748847007751
1732873797220333600,1.62133349609375,-1.6521403789520264,-0.09523701667785645,-0.11758354306221008
1732873797230328600,1.63132861328125,-1.6299642324447632,-0.1536201685667038,-0.13599132001399994
1732873797240324600,1.64132470703125,-1.624240756034851,-0.19084864854812622,-0.162666916847229
1732873797250319400,1.6513193359375,-1.6194995641708374,-0.21034778654575348,-0.1996893733739853
1732873797260314400,1.661314453125,-1.6221562623977661,-0.2238588035106659,-0.24440698325634003
1732873797270309400,1.671309326171875,-1.6366581916809082,-0.2463662475347519,-0.2958635091781616
1732873797280305700,1.6813056640625,-1.668412446975708,-0.28957924246788025,-0.34638991951942444
1732873797290300700,1.69130078125,-1.6981269121170044,-0.32021811604499817,-0.3812251389026642
1732873797300295700,1.701295654296875,-1.7187411785125732,-0.3341274559497833,-0.38050827383995056
1732873797310290700,1.711290771484375,-1.720038652420044,-0.33058783411979675,-0.33037346601486206
1732873797320285400,1.721285400390625,-1.6927165985107422,-0.3145974576473236,-0.22858989238739014
1732873797330281500,1.731281494140625,-1.646955132484436,-0.30443376302719116,-0.09142537415027618
1732873797340276500,1.7412763671875,-1.584223747253418,-0.31156644225120544,0.048683710396289825
1732873797350271500,1.751271484375,-1.5229976177215576,-0.3327670693397522,0.15846772491931915
1732873797360266500,1.7612666015625,-1.4652270078659058,-0.3502545654773712,0.20611728727817535
1732873797370262500,1.771262451171875,-1.4003063440322876,-0.3380245268344879,0.1814361810684204
1732873797380257500,1.781257568359375,-1.3304861783981323,-0.2771691083908081,0.10021595656871796
1732873797390252500,1.79125244140625,-1.255354404449463,-0.1943141669034958,-0.005981053691357374
1732873797400247600,1.80124755859375,-1.1814754009246826,-0.12034665048122406,-0.10683819651603699
1732873797410243600,1.81124365234375,-1.1067402362823486,-0.0572931170463562,-0.17815925180912018
1732873797420238600,1.821238525390625,-1.0364571809768677,-0.003881205338984728,-0.208029106259346
1732873797430233600,1.831233642578125,-0.9757823348045349,0.021420156583189964,-0.20413050055503845
1732873797440228400,1.841228271484375,-0.9201480746269226,0.02253599837422371,-0.1704316884279251
1732873797450223400,1.851223388671875,-0.8675671219825745,0.01725601591169834,-0.1189197450876236
1732873797460219600,1.8612197265625,-0.8119208812713623,0.013185471296310425,-0.05432227626442909
1732873797470214700,1.871214599609375,-0.7580621838569641,0.0009359957184642553,0.012754762545228004
1732873797480210000,1.8812099609375,-0.712183952331543,-0.016888702288269997,0.07626211643218994
1732873797490205000,1.891204833984375,-0.6598733067512512,-0.02811073139309883,0.12618227303028107
1732873797500200700,1.90120068359375,-0.6040126085281372,-0.029754340648651123,0.14559371769428253
1732873797510195700,1.91119580078125,-0.5528460741043091,-0.022382177412509918,0.12907972931861877
1732873797520190700,1.921190673828125,-0.5148789882659912,-0.005663860589265823,0.08055038005113602
1732873797530185700,1.931185791015625,-0.4807366728782654,0.021107833832502365,0.012142561376094818
1732873797540180700,1.9411806640625,-0.4400181174278259,0.05586287006735802,-0.051902011036872864
1732873797550176500,1.951176513671875,-0.3945009708404541,0.0792267844080925,-0.10276652127504349
1732873797560171500,1.961171630859375,-0.35053643584251404,0.0929495170712471,-0.12351228296756744
1732873797570166800,1.971166748046875,-0.3020927309989929,0.084392249584198,-0.11799607425928116
1732873797580161800,1.981161865234375,-0.2569037675857544,0.06890091300010681,-0.0956750214099884
1732873797590157800,1.99115771484375,-0.21974068880081177,0.052128590643405914,-0.06686734408140182
1732873797600152800,2.00115283203125,-0.1864417940378189,0.028084687888622284,-0.04136667400598526
1732873797610147800,2.01114794921875,-0.16349147260189056,0.0024610841646790504,-0.029342500492930412
1732873797620142600,2.021142578125,-0.14987744390964508,-0.038310371339321136,-0.03576109558343887
1732873797630138600,2.031138671875,-0.14469093084335327,-0.08529625833034515,-0.06446278095245361
1732873797640133600,2.041133544921875,-0.13623873889446259,-0.10912149399518967,-0.1146923154592514
1732873797650128600,2.051128662109375,-0.11503119021654129,-0.10739497095346451,-0.18116748332977295
1732873797660124000,2.0611240234375,-0.06967376917600632,-0.07027085870504379,-0.25231611728668213
1732873797670119000,2.071118896484375,-0.019124841317534447,-0.001412698533385992,-0.30753329396247864
1732873797680114700,2.08111474609375,0.032625824213027954,0.08107832074165344,-0.33421090245246887
1732873797690109700,2.091109619140625,0.0745871290564537,0.14055070281028748,-0.33218371868133545
1732873797700104700,2.101104736328125,0.11442378908395767,0.18319952487945557,-0.29652905464172363
1732873797710099700,2.111099609375,0.12980273365974426,0.1974106878042221,-0.2506188452243805
1732873797720095700,2.121095703125,0.1207512840628624,0.18004809319972992,-0.20907743275165558
1732873797730090500,2.131090576171875,0.07903899252414703,0.11808326095342636,-0.17844389379024506
1732873797740085500,2.14108544921875,0.008268178440630436,0.021412886679172516,-0.15745580196380615
1732873797750080800,2.151080810546875,-0.08747698366641998,-0.10178414732217789,-0.14517515897750854
1732873797760076800,2.161076904296875,-0.18629661202430725,-0.2235954999923706,-0.12782621383666992
1732873797770071800,2.17107177734375,-0.27938902378082275,-0.3287046253681183,-0.08981651812791824
1732873797780066800,2.18106689453125,-0.3513832092285156,-0.40004661679267883,-0.033060621470212936
1732873797790061800,2.191061767578125,-0.38308441638946533,-0.4150599241256714,0.04140802100300789
1732873797800056600,2.201056640625,-0.3627068102359772,-0.37052738666534424,0.1258007436990738
1732873797810052600,2.211052490234375,-0.2960883677005768,-0.2758248448371887,0.21554741263389587
1732873797820047600,2.221047607421875,-0.199051171541214,-0.1353399008512497,0.3003329336643219
1732873797830042600,2.231042724609375,-0.110687755048275,0.006930163595825434,0.37073013186454773
1732873797840038000,2.241037841796875,-0.05520951747894287,0.11656363308429718,0.40740302205085754
1732873797850033700,2.25103369140625,-0.04898491129279137,0.14371268451213837,0.41556668281555176
1732873797860028700,2.261028564453125,-0.08062580227851868,0.06931951642036438,0.43097299337387085
1732873797870023700,2.271023681640625,-0.12100864201784134,-0.050112076103687286,0.4961983263492584
1732873797880018700,2.281018798828125,-0.13608448207378387,-0.12729495763778687,0.6113889217376709
1732873797890014700,2.2910146484375,-0.11513926088809967,-0.1423788219690323,0.7574348449707031
1732873797900009700,2.301009765625,-0.032724905759096146,-0.09780482202768326,0.8904020190238953
1732873797910004700,2.311004638671875,0.0972975492477417,0.019557490944862366,0.990699827671051
1732873797919999500,2.32099951171875,0.2060346007347107,0.20200835168361664,1.0599448680877686
1732873797929994800,2.330994873046875,0.26259589195251465,0.40641793608665466,1.0944578647613525
1732873797939990800,2.34099072265625,0.2690734565258026,0.6105058193206787,1.0882244110107422
1732873797949985800,2.35098583984375,0.2400093376636505,0.7590857148170471,1.0340828895568848
1732873797959980800,2.360980712890625,0.23443064093589783,0.8378599286079407,0.92502361536026
1732873797969975800,2.370975830078125,0.2455677092075348,0.7696073651313782,0.7596056461334229
1732873797979971600,2.3809716796875,0.228056862950325,0.6221385598182678,0.5609519481658936
1732873797989966600,2.390966552734375,0.1906847208738327,0.4412095546722412,0.35842281579971313
1732873797999961600,2.400961669921875,0.12282432615756989,0.2511862814426422,0.1617000848054886
1732873798009956600,2.41095654296875,0.03458128869533539,0.07271880656480789,-0.026955589652061462
1732873798019953000,2.420952880859375,-0.050606854259967804,-0.07296265661716461,-0.21809130907058716
1732873798029947600,2.43094775390625,-0.09651628136634827,-0.18210752308368683,-0.40408194065093994
1732873798039942700,2.440942626953125,-0.01053826604038477,-0.26848363876342773,-0.5696292519569397
1732873798049937700,2.450937744140625,0.059017639607191086,-0.34258049726486206,-0.6750611066818237
1732873798059932700,2.4609326171875,0.06681390851736069,-0.43680521845817566,-0.69649338722229
1732873798069928700,2.4709287109375,0.06522506475448608,-0.5601367354393005,-0.6096516847610474
1732873798079923700,2.480923828125,0.09731826186180115,-0.6311309933662415,-0.3790687918663025
1732873798089918700,2.490918701171875,0.18130449950695038,-0.588735044002533,-0.007348768413066864
1732873798099913500,2.50091357421875,0.2912478446960449,-0.4518054127693176,0.4536950886249542
1732873798109909800,2.51090966796875,0.38529500365257263,-0.27645570039749146,0.9165471792221069
1732873798119904800,2.52090478515625,0.4512180685997009,-0.12413150072097778,1.282783031463623
1732873798129899800,2.530899658203125,0.5037412047386169,-0.012444118037819862,1.4914982318878174
1732873798139894800,2.540894775390625,0.5244292616844177,0.07682061195373535,1.5314879417419434
1732873798149890600,2.550890625,0.504377007484436,0.17789529263973236,1.430041790008545
1732873798159885600,2.560885498046875,0.4545598030090332,0.2528548836708069,1.2322204113006592
1732873798169880600,2.570880615234375,0.41993871331214905,0.28476274013519287,0.9849240779876709
1732873798179875600,2.58087548828125,0.3944963812828064,0.2709236443042755,0.7239700555801392
1732873798189870800,2.590870849609375,0.38639289140701294,0.24735309183597565,0.48778605461120605
1732873798199867000,2.600866943359375,0.39110347628593445,0.23158617317676544,0.30377480387687683
1732873798209861600,2.610861572265625,0.4088619649410248,0.19531072676181793,0.19312816858291626
1732873798219856600,2.620856689453125,0.41551265120506287,0.16225150227546692,0.13378936052322388
1732873798229851600,2.6308515625,0.38936173915863037,0.11706218123435974,0.08679042756557465
1732873798239847700,2.64084765625,0.3410401940345764,0.04048268124461174,0.013335289433598518
1732873798249842700,2.6508427734375,0.28413352370262146,-0.05098997801542282,-0.0866411104798317
1732873798259837700,2.660837646484375,0.22443805634975433,-0.1449456512928009,-0.20000366866588593
1732873798269832700,2.670832763671875,0.13856175541877747,-0.23696373403072357,-0.31163671612739563
1732873798279828700,2.680828857421875,0.05434523522853851,-0.2650042474269867,-0.4084118902683258
1732873798289823700,2.69082373046875,0.0030357087962329388,-0.22875197231769562,-0.4854307770729065
1732873798299818800,2.70081884765625,-0.03400503471493721,-0.16752928495407104,-0.5537075400352478
1732873798309813800,2.710813720703125,-0.05704217776656151,-0.10123282670974731,-0.6229923367500305
1732873798319808800,2.720808837890625,-0.06756644695997238,-0.064380943775177,-0.6951082944869995
1732873798329804500,2.730804443359375,-0.06850254535675049,-0.07065269351005554,-0.7568312883377075
1732873798339799600,2.740799560546875,-0.06915123760700226,-0.094657301902771,-0.7960023283958435
1732873798349794600,2.750794677734375,-0.060126323252916336,-0.10491126775741577,-0.8039047718048096
1732873798359789600,2.76078955078125,-0.03655887022614479,-0.1019769236445427,-0.7905383706092834
1732873798369785900,2.770785888671875,-0.0010874287690967321,-0.08324318379163742,-0.7650993466377258
1732873798379780900,2.78078076171875,0.03765984997153282,-0.04883718118071556,-0.7400426268577576
1732873798389776000,2.79077587890625,0.07733403146266937,0.010019476525485516,-0.729907214641571
1732873798399770600,2.8007705078125,0.11810654401779175,0.09097392857074738,-0.7329586148262024
1732873798409766700,2.8107666015625,0.15256838500499725,0.16305585205554962,-0.7471761703491211
1732873798419761700,2.82076171875,0.17700111865997314,0.2214588224887848,-0.7537073493003845
1732873798429756700,2.830756591796875,0.1779574602842331,0.2660861909389496,-0.754497766494751
1732873798439751700,2.840751708984375,0.16153597831726074,0.24979540705680847,-0.7273047566413879
1732873798449747700,2.850747802734375,0.13678641617298126,0.17651985585689545,-0.6556710004806519
1732873798459743000,2.860742919921875,0.11094800382852554,0.10181750357151031,-0.5184226632118225
1732873798469738000,2.870738037109375,0.10024315863847733,0.06113506108522415,-0.33529654145240784
1732873798479733000,2.88073291015625,0.11407885700464249,0.0614006333053112,-0.1324378401041031
1732873798489728000,2.89072802734375,0.14303380250930786,0.08582101762294769,0.06083254888653755
1732873798499724000,2.90072412109375,0.175648495554924,0.1217019110918045,0.22492772340774536
1732873798509719000,2.910718994140625,0.21719487011432648,0.1814051866531372,0.33840662240982056
1732873798519714000,2.920714111328125,0.2537688612937927,0.28494778275489807,0.39686688780784607
1732873798529709000,2.930708984375,0.2928265333175659,0.44433343410491943,0.40185922384262085
1732873798539705000,2.940705078125,0.33662575483322144,0.6216371059417725,0.3747587203979492
1732873798549700000,2.9507001953125,0.3746362328529358,0.7430277466773987,0.33978769183158875
1732873798559695000,2.960695068359375,0.3899717330932617,0.7563620805740356,0.29869434237480164
1732873798569690000,2.970690185546875,0.3494493365287781,0.6776361465454102,0.22976429760456085
1732873798579686100,2.98068603515625,0.23477748036384583,0.5106529593467712,0.10680102556943893
1732873798589681200,2.99068115234375,0.039315834641456604,0.2384989708662033,-0.07397887110710144
1732873798599676200,3.00067626953125,-0.18729738891124725,-0.08365049213171005,-0.2778570055961609
1732873798609671200,3.010671142578125,-0.3696533739566803,-0.3966326415538788,-0.4570041000843048
1732873798619666200,3.020666259765625,-0.49264559149742126,-0.6722081303596497,-0.5794278979301453
1732873798629662000,3.030661865234375,-0.5630494356155396,-0.8348183631896973,-0.6532416343688965
1732873798639657000,3.040656982421875,-0.5807276368141174,-0.873762309551239,-0.6733493804931641
1732873798649652000,3.05065185546875,-0.5345436334609985,-0.8115964531898499,-0.6233256459236145
1732873798659647000,3.06064697265625,-0.439981073141098,-0.6687131524085999,-0.4521624743938446
1732873798669643300,3.070643310546875,-0.31024330854415894,-0.467037558555603,-0.12468849122524261
1732873798679638300,3.08063818359375,-0.18383295834064484,-0.2794094681739807,0.33863553404808044
1732873798689633000,3.090633056640625,-0.11944065243005753,-0.16447943449020386,0.8310089707374573
1732873798699628000,3.1006279296875,-0.1294112205505371,-0.18116207420825958,1.2195347547531128
1732873798709624000,3.1106240234375,-0.17449508607387543,-0.32064327597618103,1.3918907642364502
1732873798719619000,3.120619140625,-0.2448282688856125,-0.48981714248657227,1.3235505819320679
1732873798729614000,3.130614013671875,-0.3363581895828247,-0.6588293313980103,1.04752779006958
1732873798739609000,3.140609130859375,-0.39463961124420166,-0.7265461683273315,0.6355820298194885
1732873798749604000,3.15060400390625,-0.3838471472263336,-0.6178293228149414,0.1749957948923111
1732873798759600000,3.16060009765625,-0.33711910247802734,-0.37482529878616333,-0.2762773633003235
1732873798769595100,3.17059521484375,-0.2783766984939575,-0.07391633093357086,-0.6495641469955444
1732873798779590100,3.180590087890625,-0.22660309076309204,0.18568499386310577,-0.906823456287384
1732873798789585200,3.190585205078125,-0.19186748564243317,0.37021249532699585,-1.0352783203125
1732873798799581000,3.200580810546875,-0.17030668258666992,0.4563794732093811,-1.0367273092269897
1732873798809576000,3.210575927734375,-0.1740896999835968,0.4284658133983612,-0.9159457683563232
1732873798819571000,3.220571044921875,-0.2112678438425064,0.30537527799606323,-0.7081395983695984
1732873798829566000,3.23056591796875,-0.2662099301815033,0.13828934729099274,-0.45138904452323914
1732873798839561000,3.24056103515625,-0.3130240738391876,0.015150276944041252,-0.18190482258796692
1732873798849557200,3.25055712890625,-0.3421153724193573,-0.05687704309821129,0.04378875717520714
1732873798859552300,3.26055224609375,-0.3551987409591675,-0.09353217482566833,0.18707337975502014
1732873798869547000,3.270547119140625,-0.343655526638031,-0.07346152514219284,0.2435246706008911
1732873798879542000,3.2805419921875,-0.3134728968143463,-0.03673940151929855,0.2333265095949173
1732873798889538000,3.2905380859375,-0.27428555488586426,0.014056401327252388,0.17973732948303223
1732873798899533000,3.300532958984375,-0.23713164031505585,0.061665575951337814,0.10786996781826019
1732873798909528000,3.310528076171875,-0.21140363812446594,0.1123732253909111,0.02780602127313614
1732873798919523000,3.320523193359375,-0.20100905001163483,0.15037387609481812,-0.0650474801659584
1732873798929519000,3.33051904296875,-0.20122769474983215,0.17380569875240326,-0.16880211234092712
1732873798939514000,3.34051416015625,-0.198805570602417,0.17579180002212524,-0.2542833089828491
1732873798949509000,3.350509033203125,-0.1893039345741272,0.1805545836687088,-0.2964547276496887
1732873798959504100,3.360504150390625,-0.18023020029067993,0.1777401566505432,-0.28222256898880005
1732873798969500200,3.370500244140625,-0.15918616950511932,0.15145929157733917,-0.21246400475502014
1732873798979495200,3.3804951171875,-0.12079185247421265,0.12912672758102417,-0.10416698455810547
1732873798989490000,3.390489990234375,-0.0744219571352005,0.10669519007205963,0.027873871847987175
1732873798999485000,3.40048486328125,-0.033123958855867386,0.09134276211261749,0.1569054275751114
1732873799009480000,3.41047998046875,-0.009767500683665276,0.081881083548069,0.2597718834877014
1732873799019476200,3.420476318359375,-0.010564813390374184,0.06662798672914505,0.3243332803249359
1732873799029471200,3.43047119140625,-0.020303459838032722,0.05584298446774483,0.3422324061393738
1732873799039466200,3.44046630859375,-0.038450177758932114,0.04575617238879204,0.3191530406475067
1732873799049461200,3.450461181640625,-0.0734984427690506,0.01617324724793434,0.2627166509628296
1732873799059457000,3.46045703125,-0.11643137782812119,-0.027483081445097923,0.18595068156719208
1732873799069452000,3.4704521484375,-0.1736576408147812,-0.08698395639657974,0.07648677378892899
1732873799079447000,3.480447021484375,-0.22949917614459991,-0.15539029240608215,-0.057047270238399506
1732873799089442000,3.490442138671875,-0.2729302942752838,-0.19740751385688782,-0.19395852088928223
1732873799099438000,3.50043798828125,-0.2918033003807068,-0.18866822123527527,-0.3102473020553589
1732873799109433000,3.51043310546875,-0.29198306798934937,-0.15344445407390594,-0.38592422008514404
1732873799119428000,3.520427978515625,-0.2546808421611786,-0.09127232432365417,-0.3959502875804901
1732873799129423000,3.530423095703125,-0.17988410592079163,-0.015706460922956467,-0.33623209595680237
1732873799139418000,3.540418212890625,-0.08113481104373932,0.08098439127206802,-0.21594299376010895
1732873799149414100,3.5504140625,0.016667913645505905,0.18561145663261414,-0.06973892450332642
1732873799159409200,3.5604091796875,0.08824872225522995,0.2963290810585022,0.05898291990160942
1732873799169404000,3.57040380859375,0.1292070597410202,0.37112048268318176,0.1264687478542328
1732873799179399000,3.58039892578125,0.13506028056144714,0.3777923882007599,0.11767014861106873
1732873799189395200,3.590395263671875,0.09666948765516281,0.35741257667541504,0.052325762808322906
1732873799199390200,3.60039013671875,0.028627652674913406,0.29918554425239563,-0.021505625918507576
1732873799209385200,3.61038525390625,-0.021752163767814636,0.22191554307937622,-0.0040302281267941
1732873799219380200,3.620380126953125,-0.020194604992866516,0.1634334772825241,0.16942709684371948
1732873799229375200,3.630375244140625,0.05955508351325989,0.13387399911880493,0.4954696595668793
1732873799239371000,3.64037109375,0.1910472959280014,0.15219701826572418,0.8939905762672424
1732873799249366000,3.650365966796875,0.31160539388656616,0.22280007600784302,1.2503666877746582
1732873799259361000,3.660361083984375,0.3855626881122589,0.25003916025161743,1.4463852643966675
1732873799269356000,3.67035595703125,0.4094211459159851,0.2113889902830124,1.4428038597106934
1732873799279352000,3.68035205078125,0.37483036518096924,0.13243937492370605,1.2314199209213257
1732873799289347000,3.69034716796875,0.3014315068721771,0.022684920579195023,0.8537301421165466
1732873799299342000,3.700342041015625,0.20866943895816803,-0.1117791160941124,0.3755556643009186
1732873799309337000,3.710337158203125,0.11890732496976852,-0.22801756858825684,-0.10318829119205475
1732873799319333000,3.7203330078125,0.034299030900001526,-0.27299878001213074,-0.476019948720932
1732873799329328000,3.730328125,-0.04897695034742355,-0.2992759048938751,-0.6691127419471741
1732873799339323100,3.7403232421875,-0.10074078291654587,-0.34822267293930054,-0.6811752319335938
1732873799349318100,3.750318115234375,-0.10624633729457855,-0.3848925530910492,-0.5592269897460938
1732873799359313000,3.76031298828125,-0.09003063291311264,-0.3717310428619385,-0.3678722083568573
1732873799369309200,3.77030908203125,-0.05074367672204971,-0.30848178267478943,-0.17131571471691132
1732873799379304200,3.78030419921875,0.00010665785521268845,-0.2110408991575241,-0.021752960979938507
1732873799389299200,3.79029931640625,0.053308624774217606,-0.10160388797521591,0.05032309889793396
1732873799399294200,3.800294189453125,0.09199553728103638,-0.009997212328016758,0.045420899987220764
1732873799409290000,3.8102900390625,0.10389187186956406,0.03931707143783569,-0.005895552691072226
1732873799419285000,3.820284912109375,0.09917239099740982,0.04935041815042496,-0.07951513677835464
1732873799429280000,3.830280029296875,0.09001724421977997,0.02787948027253151,-0.15838678181171417
1732873799439275000,3.84027490234375,0.07987774908542633,-0.004400752019137144,-0.23626384139060974
1732873799449271300,3.850271240234375,0.0840730220079422,-0.031376175582408905,-0.32417237758636475
1732873799459265300,3.860265380859375,0.10480419546365738,-0.0607549250125885,-0.40774470567703247
1732873799469260500,3.870260498046875,0.14260563254356384,-0.11043938994407654,-0.4803485870361328
1732873799479255600,3.880255615234375,0.18131588399410248,-0.15893816947937012,-0.5333536863327026
1732873799489250300,3.890250244140625,0.2146298885345459,-0.18933150172233582,-0.5579463243484497
1732873799499246300,3.900246337890625,0.2422666996717453,-0.21335044503211975,-0.5544073581695557
1732873799509241300,3.910241455078125,0.2537883222103119,-0.24334855377674103,-0.5291795134544373
1732873799519236400,3.920236328125,0.2399654984474182,-0.25976991653442383,-0.4726194441318512
1732873799529231400,3.9302314453125,0.2064453512430191,-0.24602110683918,-0.3693186044692993
1732873799539227100,3.94022705078125,0.17415907979011536,-0.2109624743461609,-0.215155690908432
1732873799549222100,3.95022216796875,0.14016516506671906,-0.1603000909090042,-0.02951364777982235
1732873799559217400,3.960217529296875,0.10113079100847244,-0.11484742164611816,0.16230179369449615
1732873799569212400,3.97021240234375,0.06731929630041122,-0.09447424113750458,0.3205646574497223
1732873799579207400,3.98020751953125,0.041921216994524,-0.08746996521949768,0.41004398465156555
1732873799589203500,3.990203369140625,0.031156454235315323,-0.06307008117437363,0.40987542271614075
1732873799599198500,4.000198486328125,0.04726750776171684,0.018534870818257332,0.3306582272052765
1732873799609193200,4.010193115234375,0.08311604708433151,0.14592744410037994,0.1919027417898178
1732873799619188200,4.020188232421875,0.1344127357006073,0.3070511817932129,0.04947492107748985
1732873799629184300,4.030184326171875,0.2032834142446518,0.4778825640678406,-0.055150825530290604
1732873799639179300,4.04017919921875,0.2647412121295929,0.6000283360481262,-0.107700876891613
1732873799649174500,4.050174560546875,0.27522075176239014,0.6219607591629028,-0.10616902261972427
1732873799659169500,4.06016943359375,0.21032793819904327,0.5348421335220337,-0.05649116262793541
1732873799669165300,4.070165283203125,0.07355783134698868,0.37448281049728394,0.0429115891456604
1732873799679160300,4.080160400390625,-0.08438272029161453,0.165974423289299,0.1831890344619751
1732873799689155300,4.0901552734375,-0.20898617804050446,-0.03934145346283913,0.33736422657966614
1732873799699150300,4.100150390625,-0.29200392961502075,-0.20892757177352905,0.4353649914264679
1732873799709145300,4.110145263671875,-0.3467412292957306,-0.31431660056114197,0.41001224517822266
1732873799719141000,4.12014111328125,-0.36528709530830383,-0.323808878660202,0.23664693534374237
1732873799729136000,4.13013623046875,-0.35728803277015686,-0.2116466462612152,-0.024533003568649292
1732873799739131400,4.14013134765625,-0.32856255769729614,0.004360479302704334,-0.23437203466892242
1732873799749126400,4.15012646484375,-0.2980744242668152,0.23406371474266052,-0.2286643385887146
1732873799759122400,4.160122314453125,-0.27261632680892944,0.3697986900806427,0.07159674167633057
1732873799769117400,4.170117431640625,-0.26443907618522644,0.3799509108066559,0.5762905478477478
1732873799779112400,4.180112548828125,-0.2983141541481018,0.28900402784347534,1.1158415079116821
1732873799789107200,4.190107177734375,-0.36951324343681335,0.10013795644044876,1.5300847291946411
1732873799799103200,4.200103271484375,-0.4541175365447998,-0.12513919174671173,1.6966750621795654
1732873799809098200,4.21009814453125,-0.5316035747528076,-0.2916661202907562,1.5910099744796753
1732873799819093200,4.22009326171875,-0.5818458795547485,-0.3308420479297638,1.2283648252487183
1732873799829088500,4.230088623046875,-0.5688347220420837,-0.2381102442741394,0.6934151649475098
1732873799839083500,4.24008349609375,-0.5029252171516418,-0.0154969347640872,0.10266388952732086
1732873799849079300,4.250079345703125,-0.4091436266899109,0.27760177850723267,-0.4092870056629181
1732873799859074300,4.26007421875,-0.3306705355644226,0.5916744470596313,-0.7412848472595215
1732873799869069300,4.2700693359375,-0.27549970149993896,0.8505212068557739,-0.869838535785675
1732873799879064300,4.280064208984375,-0.22526481747627258,1.0050184726715088,-0.8484370708465576
1732873799889060400,4.290060302734375,-0.18465374410152435,1.0113178491592407,-0.7125778198242188
1732873799899055400,4.300055419921875,-0.19252823293209076,0.8971758484840393,-0.4872843325138092
1732873799909050000,4.310050048828125,-0.2404147982597351,0.6968517899513245,-0.22217385470867157
1732873799919045400,4.32004541015625,-0.30799776315689087,0.4333377778530121,0.030991405248641968
1732873799929040400,4.330040283203125,-0.37547802925109863,0.14208675920963287,0.23405183851718903
1732873799939036400,4.340036376953125,-0.4259386956691742,-0.0997309461236,0.3451154828071594
1732873799949031400,4.350031494140625,-0.4423520267009735,-0.23396731913089752,0.34465181827545166
1732873799959026400,4.3600263671875,-0.4213443100452423,-0.26441165804862976,0.24921655654907227
1732873799969021400,4.370021484375,-0.36724644899368286,-0.23062387108802795,0.09012171626091003
1732873799979017200,4.380017333984375,-0.294329971075058,-0.15464897453784943,-0.08672361075878143
1732873799989012200,4.39001220703125,-0.21710628271102905,-0.07255276292562485,-0.24093928933143616
1732873799999007200,4.40000732421875,-0.1609954982995987,-0.027000917121767998,-0.35540318489074707
1732873800009002500,4.41000244140625,-0.13374817371368408,-0.033373329788446426,-0.42107194662094116
1732873800018998300,4.419998291015625,-0.1255486160516739,-0.08060743659734726,-0.4273436665534973
1732873800028993300,4.4299931640625,-0.13103339076042175,-0.16331642866134644,-0.38660475611686707
1732873800038988300,4.43998828125,-0.14187034964561462,-0.24311333894729614,-0.33040204644203186
1732873800048983300,4.4499833984375,-0.14494575560092926,-0.287803053855896,-0.27544960379600525
1732873800058978300,4.459978271484375,-0.12617236375808716,-0.2872380316257477,-0.22619256377220154
1732873800068974300,4.469974365234375,-0.08643719553947449,-0.2621934115886688,-0.1793680638074875
1732873800078969300,4.47996923828125,-0.031638991087675095,-0.22024133801460266,-0.13916029036045074
1732873800088964000,4.489964111328125,0.02224874123930931,-0.16437967121601105,-0.09923045337200165
1732873800098959400,4.49995947265625,0.06951706111431122,-0.1097402349114418,-0.04833365976810455
1732873800108955400,4.509955322265625,0.09791887551546097,-0.08617711812257767,0.002337241545319557
1732873800118950400,4.519950439453125,0.09363202750682831,-0.0869661495089531,0.046107467263936996
1732873800128945400,4.5299453125,0.05597466975450516,-0.09284374862909317,0.07603074610233307
1732873800138940400,4.5399404296875,-0.006181193049997091,-0.1193709596991539,0.09038762003183365
1732873800148935400,4.549935302734375,-0.0636247768998146,-0.1478007286787033,0.08916229754686356
1732873800158931200,4.55993115234375,-0.10450218617916107,-0.15802766382694244,0.08403731882572174
1732873800168926200,4.56992626953125,-0.1339985579252243,-0.1446455419063568,0.07378308475017548
1732873800178921200,4.579921142578125,-0.14659060537815094,-0.11428162455558777,0.05780602991580963
1732873800188916500,4.58991650390625,-0.14728569984436035,-0.07596459984779358,0.04731184244155884
1732873800198912300,4.599912353515625,-0.1295262575149536,-0.02812167815864086,0.05084351450204849
1732873800208907300,4.6099072265625,-0.10197531431913376,0.015520872548222542,0.07207264006137848
1732873800218902300,4.61990234375,-0.0686991959810257,0.06461194902658463,0.10551252961158752
1732873800228897300,4.629897216796875,-0.02912009321153164,0.1362009197473526,0.13850776851177216
1732873800238893300,4.639893310546875,0.020946836099028587,0.19884000718593597,0.1581505537033081
1732873800248888300,4.649888427734375,0.06302931159734726,0.24494624137878418,0.16935713589191437
1732873800258883300,4.65988330078125,0.08843883872032166,0.25454726815223694,0.17661835253238678
1732873800268878300,4.66987841796875,0.09997565299272537,0.2299678772687912,0.20041023194789886
1732873800278873300,4.679873291015625,0.08656638860702515,0.20700569450855255,0.24617132544517517
1732873800288869400,4.689869384765625,0.0368286557495594,0.1754685491323471,0.30710309743881226
1732873800298864400,4.699864501953125,-0.02800675481557846,0.13308337330818176,0.3591495156288147
1732873800308859400,4.709859375,-0.10852929204702377,0.0787399634718895,0.3613623380661011
1732873800318854400,4.7198544921875,-0.21956197917461395,0.021867891773581505,0.27321112155914307
1732873800328850200,4.72985009765625,-0.3429054915904999,-0.07283225655555725,0.09262990951538086
1732873800338845200,4.73984521484375,-0.4617435038089752,-0.16962465643882751,-0.18484283983707428
1732873800348840200,4.749840087890625,-0.5326828956604004,-0.2500220239162445,-0.5201563835144043
1732873800358835500,4.75983544921875,-0.5516285300254822,-0.2727442681789398,-0.8166496157646179
1732873800368831500,4.76983154296875,-0.5102217197418213,-0.24587216973304749,-0.9639797210693359
1732873800378826500,4.779826416015625,-0.392442911863327,-0.19010905921459198,-0.8626270890235901
1732873800388821200,4.7898212890625,-0.17507383227348328,-0.14967775344848633,-0.4791784882545471
1732873800398816300,4.799816162109375,0.08349623531103134,-0.045667484402656555,0.13204039633274078
1732873800408811300,4.809811279296875,0.2907884418964386,0.10522269457578659,0.8337526917457581
1732873800418807300,4.819807373046875,0.4914270341396332,0.18442067503929138,1.480042576789856
1732873800428802300,4.82980224609375,0.6325750946998596,0.2242908626794815,1.9127990007400513
1732873800438797300,4.83979736328125,0.6735897064208984,0.26179057359695435,2.067126750946045
1732873800448792600,4.84979248046875,0.6515632271766663,0.2643810212612152,1.9545607566833496
1732873800458788400,4.859788330078125,0.6039144396781921,0.2194586992263794,1.6201215982437134
1732873800468783600,4.86978369140625,0.5234749913215637,0.13907171785831451,1.1124660968780518
1732873800478778600,4.879778564453125,0.4256570339202881,0.02794153243303299,0.4858774244785309
1732873800488773600,4.889773681640625,0.33059629797935486,-0.09163519740104675,-0.18958278000354767
1732873800498768600,4.8997685546875,0.25571295619010925,-0.16299483180046082,-0.8246403932571411
1732873800508764400,4.909764404296875,0.18692083656787872,-0.19940556585788727,-1.308955430984497
1732873800518759400,4.919759521484375,0.11085852235555649,-0.25800997018814087,-1.572493076324463
1732873800528754400,4.92975439453125,0.04189782589673996,-0.314301997423172,-1.5807456970214844
1732873800538749700,4.939749755859375,-0.0052717383950948715,-0.3036690056324005,-1.3527945280075073
1732873800548745700,4.949745849609375,-0.030620504170656204,-0.2512367069721222,-0.9503368139266968
1732873800558740700,4.95974072265625,-0.05377451330423355,-0.19548869132995605,-0.46177852153778076
1732873800568735500,4.969735595703125,-0.10080727189779282,-0.16229425370693207,0.0027284598909318447
1732873800578730500,4.97973046875,-0.18035566806793213,-0.14497405290603638,0.32806089520454407
1732873800588726500,4.9897265625,-0.2692849934101105,-0.13464604318141937,0.4497942626476288
1732873800598721500,4.999721435546875,-0.35582900047302246,-0.13249456882476807,0.3977137506008148
1732873800608716500,5.009716552734375,-0.4432179629802704,-0.1442931741476059,0.22687837481498718
1732873800618711800,5.0197119140625,-0.5077661275863647,-0.18139885365962982,0.001734522171318531
1732873800628706800,5.029706787109375,-0.5403712391853333,-0.23212409019470215,-0.20846185088157654
1732873800638702600,5.03970263671875,-0.5412662029266357,-0.2606487274169922,-0.34863153100013733
1732873800648697600,5.049697509765625,-0.5206389427185059,-0.26522934436798096,-0.4093707799911499
1732873800658692600,5.059692626953125,-0.4915815591812134,-0.24365638196468353,-0.39445626735687256
1732873800668687600,5.0696875,-0.46513131260871887,-0.22326456010341644,-0.3252050280570984
1732873800678683400,5.079683349609375,-0.45053616166114807,-0.19475141167640686,-0.22208791971206665
1732873800688678400,5.089678466796875,-0.46233129501342773,-0.1659780889749527,-0.12673209607601166
1732873800698673400,5.09967333984375,-0.500988245010376,-0.15133002400398254,-0.06722479313611984
1732873800708668700,5.109668701171875,-0.5632811188697815,-0.14239218831062317,-0.05418701842427254
1732873800718663700,5.11966357421875,-0.6489274501800537,-0.13781645894050598,-0.0645434707403183
1732873800728659700,5.12965966796875,-0.7532855272293091,-0.15200844407081604,-0.07901722192764282
1732873800738654700,5.13965478515625,-0.8703349232673645,-0.19924770295619965,-0.07085278630256653
1732873800748649500,5.1496494140625,-0.9865440726280212,-0.2558172345161438,-0.04588111862540245
1732873800758644500,5.15964453125,-1.0954883098602295,-0.3061274290084839,-0.011511437594890594
1732873800768640500,5.169640625,-1.178900122642517,-0.3334439992904663,0.02667190134525299
1732873800778635500,5.179635498046875,-1.2252912521362305,-0.31898805499076843,0.05004814267158508
1732873800788630500,5.189630615234375,-1.2470277547836304,-0.27165305614471436,0.04883613809943199
1732873800798625800,5.199625732421875,-1.2419449090957642,-0.19840426743030548,0.02965126559138298
1732873800808620800,5.209620849609375,-1.221785545349121,-0.09911655634641647,-0.007444438990205526
1732873800818616600,5.219616455078125,-1.2068755626678467,0.0025715879164636135,-0.03491794317960739
1732873800828611600,5.229611572265625,-1.2059333324432373,0.08720098435878754,-0.024400586262345314
1732873800838606600,5.239606689453125,-1.2280083894729614,0.1457199603319168,0.049633465707302094
1732873800848601600,5.2496015625,-1.2672232389450073,0.1708439588546753,0.18025778234004974
1732873800858597600,5.25959765625,-1.3132859468460083,0.15414778888225555,0.3315090835094452
1732873800868592400,5.26959228515625,-1.3633718490600586,0.10511073470115662,0.45690828561782837
1732873800878587400,5.27958740234375,-1.4297382831573486,0.004992886912077665,0.5308143496513367
1732873800888582700,5.289582763671875,-1.5198255777359009,-0.16022935509681702,0.5268129706382751
1732873800898578700,5.29957861328125,-1.6191695928573608,-0.337215781211853,0.43517422676086426
1732873800908573700,5.30957373046875,-1.702842354774475,-0.48316872119903564,0.2716686725616455
1732873800918568700,5.319568603515625,-1.7404648065567017,-0.5706253051757812,0.07835095375776291
1732873800928563700,5.329563720703125,-1.7216469049453735,-0.5940952301025391,-0.07597097009420395
1732873800938558500,5.339558349609375,-1.6527771949768066,-0.5694073438644409,-0.15175066888332367
1732873800948554500,5.349554443359375,-1.547827124595642,-0.5078641176223755,-0.13305608928203583
1732873800958549500,5.359549560546875,-1.4284111261367798,-0.41550368070602417,-0.037980515509843826
1732873800968544500,5.36954443359375,-1.3302544355392456,-0.3217220604419708,0.09103631973266602
1732873800978539800,5.379539794921875,-1.2778432369232178,-0.26280486583709717,0.20165567100048065
1732873800988535600,5.38953564453125,-1.269830346107483,-0.2557741105556488,0.2565380930900574
1732873800998530600,5.399530517578125,-1.299209713935852,-0.2990665137767792,0.2555902600288391
1732873801008525600,5.409525634765625,-1.3581355810165405,-0.35279205441474915,0.21475255489349365
1732873801018520600,5.4195205078125,-1.4253127574920654,-0.39759910106658936,0.15651682019233704
1732873801028516600,5.4295166015625,-1.474057912826538,-0.4149312376976013,0.11166971176862717
1732873801038511600,5.43951171875,-1.4905146360397339,-0.4037680923938751,0.09347093105316162
1732873801048506600,5.449506591796875,-1.4748059511184692,-0.35737207531929016,0.10866799205541611
1732873801058501400,5.45950146484375,-1.4400529861450195,-0.2952311336994171,0.13548564910888672
1732873801068496600,5.46949658203125,-1.4014092683792114,-0.23603598773479462,0.15543511509895325
1732873801078492700,5.47949267578125,-1.3744391202926636,-0.20072387158870697,0.14703549444675446
1732873801088487700,5.48948779296875,-1.357825756072998,-0.21265456080436707,0.11266180872917175
1732873801098482700,5.499482666015625,-1.3503819704055786,-0.24486425518989563,0.06176904961466789
1732873801108477700,5.509477783203125,-1.3613619804382324,-0.28508254885673523,0.0008572298102080822
1732873801118473500,5.519473388671875,-1.3721152544021606,-0.32077082991600037,-0.059678129851818085
1732873801128468500,5.529468505859375,-1.3654898405075073,-0.31500107049942017,-0.10888508707284927
1732873801138463500,5.53946337890625,-1.3468133211135864,-0.2665136456489563,-0.13551047444343567
1732873801148458500,5.54945849609375,-1.320767879486084,-0.19510522484779358,-0.14336173236370087
1732873801158454800,5.559454833984375,-1.2816866636276245,-0.1409108191728592,-0.1506512463092804
1732873801168449500,5.569449462890625,-1.2354249954223633,-0.0940607488155365,-0.17880378663539886
1732873801178444500,5.579444580078125,-1.1824662685394287,-0.06537998467683792,-0.24463851749897003
1732873801188439600,5.589439453125,-1.1178513765335083,-0.04521080106496811,-0.33720117807388306
1732873801198434600,5.5994345703125,-1.043174147605896,-0.020872164517641068,-0.4378422796726227
1732873801208430600,5.6094306640625,-0.9550832509994507,0.0028496752493083477,-0.5195163488388062
1732873801218425600,5.619425537109375,-0.8575020432472229,0.026703810319304466,-0.5467635989189148
1732873801228420600,5.629420654296875,-0.7575075626373291,0.0278010331094265,-0.5032361149787903
1732873801238415400,5.639415283203125,-0.6685544848442078,0.0013401310425251722,-0.39268481731414795
1732873801248411600,5.64941162109375,-0.6098695993423462,-0.029267312958836555,-0.2615121304988861
1732873801258406700,5.65940673828125,-0.5732253193855286,-0.09809397161006927,-0.1366630345582962
1732873801268401700,5.669401611328125,-0.5450555086135864,-0.1876281052827835,-0.023144187405705452
1732873801278396700,5.679396728515625,-0.5333710312843323,-0.26828309893608093,0.06041204184293747
1732873801288391700,5.6893916015625,-0.5294548273086548,-0.3291536569595337,0.08966074883937836
1732873801298387500,5.699387451171875,-0.5241760015487671,-0.3439280688762665,0.06686756014823914
1732873801308382500,5.709382568359375,-0.5054539442062378,-0.3194141983985901,0.006487309001386166
1732873801318377500,5.71937744140625,-0.47584888339042664,-0.2854093015193939,-0.058796241879463196
1732873801328372500,5.72937255859375,-0.4569753110408783,-0.2533120810985565,-0.09755749255418777
1732873801338368800,5.73936865234375,-0.44896334409713745,-0.2493716925382614,-0.09657962620258331
1732873801348363500,5.749363525390625,-0.45050665736198425,-0.2765226364135742,-0.06864386796951294
1732873801358358500,5.759358642578125,-0.45648276805877686,-0.3278581202030182,-0.03472346439957619
1732873801368353500,5.769353515625,-0.46130919456481934,-0.3877909481525421,-0.019291777163743973
1732873801378348500,5.7793486328125,-0.45329150557518005,-0.43017545342445374,-0.027256343513727188
1732873801388344600,5.789344482421875,-0.4172211289405823,-0.4240152835845947,-0.05421898514032364
1732873801398339600,5.799339599609375,-0.34163400530815125,-0.3650636076927185,-0.08349084854125977
1732873801408334600,5.80933447265625,-0.23942826688289642,-0.27190303802490234,-0.11400002241134644
1732873801418329600,5.81932958984375,-0.1218094453215599,-0.16720347106456757,-0.144769549369812
1732873801428325600,5.82932568359375,0.005987935233861208,-0.05421645939350128,-0.17392423748970032
1732873801438320600,5.839320556640625,0.11714868992567062,0.05512937903404236,-0.20022502541542053
1732873801448315600,5.849315673828125,0.17929993569850922,0.12976206839084625,-0.2208477407693863
1732873801458310700,5.859310546875,0.19820694625377655,0.1607876718044281,-0.22951734066009521
1732873801468306400,5.869306396484375,0.17564810812473297,0.15659424662590027,-0.21622656285762787
1732873801478301400,5.879301513671875,0.12002500891685486,0.1281762421131134,-0.1763443499803543
1732873801488296400,5.88929638671875,0.048695698380470276,0.09488139301538467,-0.12828415632247925
1732873801498291500,5.89929150390625,-0.002380690537393093,0.04975324124097824,-0.08568216860294342
1732873801508286500,5.909286376953125,-0.03617061302065849,0.01795775815844536,-0.033663973212242126
1732873801518282500,5.919282470703125,-0.04650253802537918,0.0029951517935842276,0.030454128980636597
1732873801528277500,5.929277587890625,-0.021962841972708702,-0.007662019692361355,0.10643810778856277
1732873801538272300,5.939272216796875,0.02824942208826542,-0.004127633757889271,0.18126043677330017
1732873801548267300,5.949267333984375,0.09198259562253952,0.0013771199155598879,0.23820200562477112
1732873801558263600,5.959263671875,0.1530928760766983,0.016330108046531677,0.2473648637533188
1732873801568258600,5.969258544921875,0.21145419776439667,0.04077579453587532,0.20513510704040527
1732873801578253600,5.979253662109375,0.26272502541542053,0.07905501127243042,0.10800833255052567
1732873801588248600,5.98924853515625,0.2836654484272003,0.1297924965620041,-0.03639784827828407
1732873801598244400,5.999244384765625,0.2738324701786041,0.1681048572063446,-0.19825862348079681
1732873801608239400,6.0092392578125,0.24100394546985626,0.17747332155704498,-0.34840869903564453
1732873801618234400,6.019234375,0.206865131855011,0.16793230175971985,-0.45297425985336304
1732873801628229400,6.0292294921875,0.18044444918632507,0.15676221251487732,-0.48645922541618347
1732873801638224400,6.039224365234375,0.16931350529193878,0.13858027756214142,-0.4421253204345703
1732873801648220400,6.049220458984375,0.17610029876232147,0.11062534153461456,-0.3286469578742981
1732873801658215400,6.05921533203125,0.18413597345352173,0.07665757089853287,-0.18126437067985535
1732873801668210400,6.06921044921875,0.18198040127754211,0.01509114820510149,-0.0342421680688858
1732873801678205400,6.079205322265625,0.1757175326347351,-0.09072313457727432,0.07120658457279205
1732873801688201500,6.089201416015625,0.16029277443885803,-0.1651795208454132,0.13371896743774414
1732873801698196500,6.099196533203125,0.10245145857334137,-0.2045629769563675,0.15219923853874207
1732873801708191500,6.10919140625,0.05050090327858925,-0.24103575944900513,0.13055120408535004
1732873801718186500,6.1191865234375,0.009092524647712708,-0.24027536809444427,0.07950303703546524
1732873801728181200,6.12918115234375,-0.022864077240228653,-0.19961822032928467,0.013630016706883907
1732873801738177500,6.139177490234375,-0.04828357324004173,-0.13232550024986267,-0.0586295910179615
1732873801748172500,6.149172607421875,-0.07492157071828842,-0.09189152717590332,-0.11794989556074142
1732873801758167600,6.15916748046875,-0.1023508831858635,-0.08014222234487534,-0.16725310683250427
1732873801768162600,6.16916259765625,-0.12189981341362,-0.08052384853363037,-0.2038678377866745
1732873801778158300,6.179158447265625,-0.13716870546340942,-0.0837765634059906,-0.24218223989009857
1732873801788153300,6.1891533203125,-0.1493007391691208,-0.0964105948805809,-0.2969839572906494
1732873801798148400,6.1991484375,-0.16575896739959717,-0.1270838975906372,-0.36734193563461304
1732873801808143400,6.209143310546875,-0.1979943960905075,-0.18300148844718933,-0.44429343938827515
1732873801818139600,6.2191396484375,-0.22666409611701965,-0.24134577810764313,-0.5106328129768372
1732873801828134700,6.229134765625,-0.2536744177341461,-0.2849651575088501,-0.5531802773475647
1732873801838129400,6.23912939453125,-0.27207741141319275,-0.3052436411380768,-0.5685416460037231
1732873801848124400,6.24912451171875,-0.26398566365242004,-0.2833905518054962,-0.5553728342056274
1732873801858119400,6.259119384765625,-0.23797479271888733,-0.21927021443843842,-0.5144466161727905
1732873801868115500,6.269115478515625,-0.20147058367729187,-0.13652926683425903,-0.44682708382606506
1732873801878110500,6.2791103515625,-0.1561746448278427,-0.06062342971563339,-0.35512876510620117
1732873801888105500,6.28910546875,-0.11593054234981537,0.008973225951194763,-0.24179553985595703
1732873801898100500,6.2991005859375,-0.08217145502567291,0.05259758234024048,-0.11576027423143387
1732873801908096500,6.309096435546875,-0.0676063597202301,0.07072385400533676,0.01227651908993721
1732873801918091500,6.319091552734375,-0.05934261903166771,0.07378984987735748,0.13112090528011322
1732873801928086500,6.32908642578125,-0.06297490000724792,0.06268499791622162,0.21935436129570007
1732873801938081500,6.33908154296875,-0.06363697350025177,0.055219244211912155,0.2714468836784363
1732873801948076500,6.34907666015625,-0.057845935225486755,0.06055408716201782,0.29464486241340637
1732873801958072300,6.359072265625,-0.04988501965999603,0.07565151154994965,0.29444101452827454
1732873801968067300,6.3690673828125,-0.02772778645157814,0.0963517278432846,0.2702459394931793
1732873801978062300,6.379062255859375,-0.005225864704698324,0.12704655528068542,0.2365754246711731
1732873801988057300,6.389057373046875,0.01466901320964098,0.16701820492744446,0.19404953718185425
1732873801998053600,6.3990537109375,0.030089939013123512,0.201395645737648,0.1438562124967575
1732873802008048600,6.409048583984375,0.0388469435274601,0.2167208045721054,0.0867825374007225
1732873802018043400,6.41904345703125,0.04451242461800575,0.22212831676006317,0.02272677980363369
1732873802028038400,6.429038330078125,0.04594094306230545,0.2131718397140503,-0.046265605837106705
1732873802038034400,6.439034423828125,0.04914463683962822,0.19594953954219818,-0.11253711581230164
1732873802048029400,6.449029541015625,0.06351105868816376,0.18303614854812622,-0.1727386862039566
1732873802058024400,6.4590244140625,0.07645942270755768,0.18377362191677094,-0.23151321709156036
1732873802068019500,6.46901953125,0.09530288726091385,0.1861739158630371,-0.28326377272605896
1732873802078014500,6.479014404296875,0.12611748278141022,0.17167983949184418,-0.3211871385574341
1732873802088010500,6.489010498046875,0.15056264400482178,0.1468338668346405,-0.33172234892845154
1732873802098005500,6.499005615234375,0.1649545133113861,0.11856421828269958,-0.3074474334716797
1732873802108000500,6.50900048828125,0.16689595580101013,0.09696172177791595,-0.23967425525188446
1732873802117995500,6.51899560546875,0.15933695435523987,0.06807104498147964,-0.1326591968536377
1732873802127991600,6.528991455078125,0.17917831242084503,0.06323979794979095,-0.0012423130683600903
1732873802137986300,6.538986328125,0.2440219223499298,0.10798147320747375,0.14317697286605835
1732873802147981300,6.548981201171875,0.3370778262615204,0.15395908057689667,0.2796053886413574
1732873802157976300,6.558976318359375,0.43231865763664246,0.1683485358953476,0.3594248294830322
1732873802167971300,6.568971435546875,0.4852857291698456,0.1152440533041954,0.34854286909103394
1732873802177967600,6.578967529296875,0.461460143327713,-0.055867988616228104,0.24682804942131042
1732873802187962600,6.588962646484375,0.3238527476787567,-0.30383944511413574,0.08441250026226044
1732873802197957600,6.59895751953125,0.12790581583976746,-0.6044023036956787,-0.10688965767621994
1732873802207952400,6.608952392578125,-0.040223002433776855,-0.8121874928474426,-0.24324002861976624
1732873802217948400,6.618948486328125,-0.15705348551273346,-0.876943826675415,-0.2556799352169037
1732873802227943400,6.628943359375,-0.1919342428445816,-0.8167721033096313,-0.1058342456817627
1732873802237938400,6.6389384765625,-0.12621641159057617,-0.6520463228225708,0.2020443081855774
1732873802247933400,6.648933349609375,0.016069626435637474,-0.40783581137657166,0.6315581202507019
1732873802257929500,6.658929443359375,0.1933002918958664,-0.17496110498905182,1.0924248695373535
1732873802267924500,6.668924560546875,0.31736764311790466,-0.03705890104174614,1.4681739807128906
1732873802277919500,6.67891943359375,0.332785427570343,-0.011931704357266426,1.6589181423187256
1732873802287914500,6.68891455078125,0.24721670150756836,-0.06776300817728043,1.6099103689193726
1732873802297909500,6.698909423828125,0.11078162491321564,-0.14418230950832367,1.3066116571426392
1732873802307905500,6.708905517578125,-0.042005524039268494,-0.16866181790828705,0.773227334022522
1732873802317900500,6.718900634765625,-0.18236202001571655,-0.08859581500291824,0.11579374223947525
1732873802327895300,6.728895263671875,-0.26047199964523315,0.0852619931101799,-0.5128981471061707
1732873802337890300,6.738890380859375,-0.2676689326763153,0.2643267512321472,-0.9638345837593079
1732873802347886600,6.748886474609375,-0.1941978931427002,0.4490841031074524,-1.1749143600463867
1732873802357881600,6.758881591796875,-0.056756310164928436,0.588910698890686,-1.1644089221954346
1732873802367876600,6.768876708984375,0.10393883287906647,0.6322347521781921,-0.9928063750267029
1732873802377871600,6.77887158203125,0.2326803207397461,0.5940662026405334,-0.7174934148788452
1732873802387866600,6.78886669921875,0.3160998821258545,0.48749426007270813,-0.4047142565250397
1732873802397862400,6.7988623046875,0.35977911949157715,0.3153612017631531,-0.12800832092761993
1732873802407857400,6.808857421875,0.3852445185184479,0.11881859600543976,0.07555998861789703
1732873802417852400,6.818852294921875,0.38280659914016724,-0.04715036228299141,0.19071882963180542
1732873802427847400,6.828847412109375,0.35481971502304077,-0.14907751977443695,0.21512776613235474
1732873802437843500,6.838843505859375,0.3203140199184418,-0.21241335570812225,0.1641889065504074
1732873802447838500,6.84883837890625,0.3001645505428314,-0.22047874331474304,0.07203315943479538
1732873802457833500,6.85883349609375,0.29311901330947876,-0.18097944557666779,-0.027434639632701874
1732873802467828200,6.868828125,0.2911970019340515,-0.12336381524801254,-0.10362608730792999
1732873802477824500,6.878824462890625,0.29506397247314453,-0.0637839287519455,-0.13251462578773499
1732873802487819500,6.888819580078125,0.30512166023254395,-0.016383126378059387,-0.11774872243404388
1732873802497814500,6.898814453125,0.31961092352867126,0.009175022132694721,-0.07124263048171997
1732873802507809300,6.908809326171875,0.33149421215057373,0.00528840534389019,-0.004578383639454842
1732873802517804300,6.91880419921875,0.34133028984069824,-0.003854695474728942,0.06508446484804153
1732873802527800300,6.92880029296875,0.3490217626094818,-0.02946391887962818,0.13154764473438263
1732873802537795300,6.93879541015625,0.34417596459388733,-0.06933585554361343,0.18309654295444489
1732873802547790300,6.948790283203125,0.32356709241867065,-0.09279537200927734,0.21406137943267822
1732873802557785300,6.958785400390625,0.299722820520401,-0.09900195151567459,0.2199862152338028
1732873802567781400,6.968781494140625,0.2773413360118866,-0.08723238110542297,0.21181030571460724
1732873802577776400,6.9787763671875,0.25012677907943726,-0.06703884154558182,0.20073741674423218
1732873802587771400,6.988771484375,0.22064585983753204,-0.03279032185673714,0.17434576153755188
1732873802597766400,6.998766357421875,0.17525623738765717,-0.0000419404823333025,0.12541870772838593
1732873802607761400,7.008761474609375,0.1119675561785698,0.0008587406482547522,0.04337550327181816
1732873802617757400,7.01875732421875,0.05161873996257782,-0.015294540673494339,-0.06992043554782867
1732873802627752200,7.028752197265625,0.01642187125980854,-0.01801282912492752,-0.19988243281841278
1732873802637747200,7.038747314453125,-0.030772224068641663,0.027546724304556847,-0.3264186978340149
1732873802647742200,7.0487421875,-0.07979649305343628,0.13069655001163483,-0.41684260964393616
1732873802657738500,7.058738525390625,-0.09243577718734741,0.24019484221935272,-0.48246490955352783
1732873802667733500,7.0687333984375,-0.08618800342082977,0.3382686972618103,-0.5228144526481628
1732873802677728500,7.078728515625,-0.10434338450431824,0.39079341292381287,-0.5393776893615723
1732873802687723500,7.0887236328125,-0.1526949405670166,0.3693307340145111,-0.529013991355896
1732873802697718300,7.09871826171875,-0.21953794360160828,0.2774865925312042,-0.48151275515556335
1732873802707714300,7.10871435546875,-0.2759135961532593,0.12248476594686508,-0.3837593197822571
1732873802717709300,7.118709228515625,-0.30072739720344543,-0.04789033532142639,-0.23673135042190552
1732873802727704300,7.128704345703125,-0.29993775486946106,-0.2344791293144226,-0.09917428344488144
1732873802737699300,7.13869921875,-0.27612951397895813,-0.4012053608894348,-0.02736741304397583
1732873802747695400,7.1486953125,-0.24308660626411438,-0.47713419795036316,-0.03219066187739372
1732873802757690400,7.1586904296875,-0.2050331085920334,-0.39711886644363403,-0.05481026694178581
1732873802767685400,7.168685302734375,-0.15217682719230652,-0.200461745262146,-0.003189684823155403
1732873802777680400,7.178680419921875,-0.10283888876438141,0.04235206916928291,0.201328843832016
1732873802787676400,7.188676513671875,-0.08715393394231796,0.24461941421031952,0.5417447686195374
1732873802797671400,7.19867138671875,-0.1403496265411377,0.3326185643672943,0.9278701543807983
1732873802807666200,7.208666259765625,-0.24751494824886322,0.22997206449508667,1.2510607242584229
1732873802817661200,7.2186611328125,-0.3604774475097656,-0.0372796356678009,1.4285683631896973
1732873802827656200,7.22865625,-0.4597398340702057,-0.3967757523059845,1.4049005508422852
1732873802837652500,7.238652587890625,-0.5283793807029724,-0.7342171669006348,1.1634812355041504
1732873802847647500,7.2486474609375,-0.5741881132125854,-0.8799442648887634,0.7421444654464722
1732873802857642500,7.258642578125,-0.5808147192001343,-0.8052504658699036,0.20536646246910095
1732873802867637500,7.268637451171875,-0.5127310156822205,-0.5082629919052124,-0.33422085642814636
1732873802877633300,7.27863330078125,-0.3876785337924957,-0.10580312460660934,-0.7879208922386169
1732873802887628300,7.288628173828125,-0.23475344479084015,0.3003723621368408,-1.0490862131118774
1732873802897623300,7.298623291015625,-0.099010169506073,0.6015216708183289,-1.085301399230957
1732873802907618300,7.308618408203125,0.002667458727955818,0.7470762133598328,-0.9331489205360413
1732873802917614300,7.3186142578125,0.052037499845027924,0.7011498212814331,-0.6533317565917969
1732873802927609300,7.328609375,0.0525999590754509,0.5232245922088623,-0.3124937117099762
1732873802937604400,7.338604248046875,0.015023945830762386,0.279384583234787,0.012696828693151474
1732873802947599400,7.348599365234375,-0.036943383514881134,0.05329470336437225,0.2557710111141205
1732873802957594400,7.358594482421875,-0.08483095467090607,-0.08479045331478119,0.3780002295970917
1732873802967590400,7.36859033203125,-0.11164925247430801,-0.13399209082126617,0.382867693901062
1732873802977585400,7.37858544921875,-0.11286073923110962,-0.08469799906015396,0.30333516001701355
1732873802987580400,7.388580322265625,-0.0996575802564621,0.004295793361961842,0.17792131006717682
1732873802997575200,7.3985751953125,-0.07782424986362457,0.09048056602478027,0.04245792701840401
1732873803007571500,7.408571533203125,-0.05402624234557152,0.15532641112804413,-0.07720029354095459
1732873803017566500,7.41856640625,-0.042997416108846664,0.18922783434391022,-0.16219022870063782
1732873803027561500,7.4285615234375,-0.04057500511407852,0.18721048533916473,-0.19932614266872406
1732873803037556500,7.438556396484375,-0.04310184717178345,0.15262539684772491,-0.19779041409492493
1732873803047551500,7.448551513671875,-0.04925348237156868,0.11238210648298264,-0.16932974755764008
1732873803057547300,7.45854736328125,-0.054225776344537735,0.07335066795349121,-0.1175725907087326
1732873803067542300,7.468542236328125,-0.05424255505204201,0.02460017241537571,-0.05622374266386032
1732873803077537300,7.478537353515625,-0.043167948722839355,-0.01762058585882187,0.011894937604665756
1732873803087532300,7.4885322265625,-0.03572707623243332,-0.041777320206165314,0.07623610645532608
1732873803097528600,7.498528564453125,-0.023183245211839676,-0.05189304053783417,0.14042584598064423
1732873803107523300,7.5085234375,-0.0023472062312066555,-0.045850593596696854,0.19123630225658417
1732873803117518300,7.518518310546875,0.021322792395949364,-0.017980188131332397,0.23065969347953796
1732873803127513300,7.528513427734375,0.042815834283828735,0.017229730263352394,0.24711695313453674
1732873803137508400,7.53850830078125,0.06350306421518326,0.05173271894454956,0.2359609305858612
1732873803147504400,7.54850439453125,0.08178433775901794,0.06323065608739853,0.19319696724414825
1732873803157499400,7.55849951171875,0.08021734654903412,0.05019410699605942,0.11909782886505127
1732873803167494400,7.568494384765625,0.0597139336168766,-0.019078707322478294,0.024889037013053894
1732873803177489400,7.578489501953125,0.008807963691651821,-0.14060784876346588,-0.07575917989015579
1732873803187485400,7.5884853515625,-0.06069068983197212,-0.2888849377632141,-0.1771387904882431
1732873803197480400,7.59848046875,-0.12540826201438904,-0.4113055169582367,-0.27273106575012207
1732873803207475500,7.608475341796875,-0.16470080614089966,-0.4737696945667267,-0.3652021288871765
1732873803217470500,7.618470458984375,-0.15982049703598022,-0.4323839843273163,-0.4492354094982147
1732873803227466200,7.62846630859375,-0.1167883425951004,-0.31622567772865295,-0.5098380446434021
1732873803237461200,7.638461181640625,-0.05976581200957298,-0.18822826445102692,-0.5172351002693176
1732873803247456300,7.648456298828125,0.011576812714338303,-0.0936700627207756,-0.47085776925086975
1732873803257451300,7.658451171875,0.07239028066396713,-0.059401873499155045,-0.3903163969516754
1732873803267446300,7.6684462890625,0.10254685580730438,-0.09552551805973053,-0.30323395133018494
1732873803277442600,7.678442626953125,0.11560926586389542,-0.1938883513212204,-0.2198275625705719
1732873803287437300,7.688437255859375,0.10244473069906235,-0.3040556013584137,-0.13203006982803345
1732873803297432300,7.698432373046875,0.08544199913740158,-0.33081328868865967,-0.003846233244985342
1732873803307427300,7.70842724609375,0.09509303420782089,-0.2187490612268448,0.20252612233161926
1732873803317423400,7.71842333984375,0.17591255903244019,0.013339083641767502,0.5072888135910034
1732873803327418400,7.72841845703125,0.3180009722709656,0.250162810087204,0.8988922238349915
1732873803337413400,7.738413330078125,0.46300554275512695,0.40377357602119446,1.3044568300247192
1732873803347408400,7.748408447265625,0.5849756598472595,0.4669554829597473,1.6678746938705444
1732873803357403400,7.7584033203125,0.6593486070632935,0.43509843945503235,1.9032920598983765
1732873803367399400,7.7683994140625,0.67043137550354,0.30837565660476685,1.9378920793533325
1732873803377394400,7.77839453125,0.6011621952056885,0.13610796630382538,1.7187025547027588
1732873803387389400,7.788389404296875,0.47720807790756226,0.011174026876688004,1.2602444887161255
1732873803397384400,7.798384521484375,0.3474845588207245,-0.03728228434920311,0.6300868988037109
1732873803407380200,7.808380126953125,0.22792889177799225,0.010662074200809002,-0.057162873446941376
1732873803417375200,7.818375244140625,0.1369212567806244,0.11526382714509964,-0.6522680521011353
1732873803427370200,7.828370361328125,0.0710010826587677,0.2113722413778305,-1.0291507244110107
1732873803437365200,7.838365234375,0.03068707324564457,0.229218989610672,-1.14144766330719
1732873803447361500,7.848361572265625,0.025366878136992455,0.15970063209533691,-1.0210586786270142
1732873803457356500,7.8583564453125,0.04145907983183861,0.05926698073744774,-0.7350855469703674
1732873803467352000,7.86835205078125,0.06116993725299835,-0.024472389370203018,-0.37424904108047485
1732873803477347000,7.87834716796875,0.0867447555065155,-0.07780730724334717,-0.02028602734208107
1732873803487342000,7.888342041015625,0.10064619034528732,-0.10863979160785675,0.24994386732578278
1732873803497338000,7.898338134765625,0.10726159065961838,-0.11535844206809998,0.39871224761009216
1732873803507333000,7.9083330078125,0.09475699067115784,-0.11329156160354614,0.4343370795249939
1732873803517328100,7.918328125,0.06866455078125,-0.11105390638113022,0.3805004060268402
1732873803527323000,7.928322998046875,0.03749411553144455,-0.1258336454629898,0.26926684379577637
1732873803537319200,7.938319091796875,0.01754610240459442,-0.16413916647434235,0.12854306399822235
1732873803547314200,7.948314208984375,0.014927681535482407,-0.21512165665626526,-0.01370834931731224
1732873803557309200,7.95830908203125,0.02283501625061035,-0.26390740275382996,-0.14115466177463531
1732873803567304200,7.96830419921875,0.043686769902706146,-0.2813476622104645,-0.2366982251405716
1732873803577299200,7.97829931640625,0.06826935708522797,-0.2592789828777313,-0.30194833874702454
1732873803587295000,7.988294921875,0.09445729106664658,-0.22095821797847748,-0.3364090919494629
1732873803597290000,7.9982900390625,0.11655764281749725,-0.1857035905122757,-0.34356772899627686
1732873803607285000,8.008284912109374,0.11378075182437897,-0.1519365757703781,-0.3328402638435364
1732873803617280000,8.018280029296875,0.09441377967596054,-0.12082747370004654,-0.2977786064147949
1732873803627276300,8.0282763671875,0.05715616047382355,-0.08331125974655151,-0.24191318452358246
1732873803637271000,8.03827099609375,0.012672217562794685,-0.05820469185709953,-0.17660391330718994
1732873803647266000,8.04826611328125,-0.03194371983408928,-0.06537258625030518,-0.09973256289958954
1732873803657261000,8.058260986328126,-0.07548727840185165,-0.09996947646141052,-0.012106403708457947
1732873803667256000,8.068256103515624,-0.11522909253835678,-0.1499367654323578,0.07015597820281982
1732873803677252000,8.078252197265625,-0.15502315759658813,-0.2292589694261551,0.12389472126960754
1732873803687247000,8.0882470703125,-0.18639518320560455,-0.28186675906181335,0.14007210731506348
1732873803697242000,8.0982421875,-0.19850574433803558,-0.2509004473686218,0.11737561970949173
1732873803707237000,8.108237060546875,-0.17041631042957306,-0.12701712548732758,0.055416908115148544
1732873803717233200,8.118233154296876,-0.09934868663549423,0.026360945776104927,-0.03842122480273247
1732873803727228200,8.128228271484375,-0.015374424867331982,0.14711293578147888,-0.13848045468330383
1732873803737223200,8.13822314453125,0.046272896230220795,0.21893499791622162,-0.22319863736629486
1732873803747218200,8.14821826171875,0.060544513165950775,0.25769704580307007,-0.27420270442962646
1732873803757214000,8.1582138671875,0.028539475053548813,0.2648099958896637,-0.2744225561618805
1732873803767209000,8.168208984375,-0.02785935252904892,0.2388378083705902,-0.1999371349811554
1732873803777204000,8.178203857421876,-0.08916115015745163,0.16265234351158142,-0.057837069034576416
1732873803787199000,8.188198974609374,-0.15133103728294373,0.036668043583631516,0.10207350552082062
1732873803797194000,8.198194091796875,-0.21038223803043365,-0.11064795404672623,0.20218244194984436
1732873803807190300,8.208190185546876,-0.25606080889701843,-0.1664275974035263,0.2057870328426361
1732873803817185300,8.218185302734375,-0.24793899059295654,-0.08157961070537567,0.15475784242153168
1732873803827180000,8.228179931640625,-0.20630046725273132,0.11299146711826324,0.13701586425304413
1732873803837175000,8.238175048828126,-0.17416709661483765,0.28659528493881226,0.2328123301267624
1732873803847171000,8.248171142578125,-0.1793552041053772,0.3295203745365143,0.43729251623153687
1732873803857166000,8.258166015625,-0.23339025676250458,0.21972768008708954,0.6929188370704651
1732873803867161000,8.2681611328125,-0.3394741117954254,-0.0014526459854096174,0.926488995552063
1732873803877156000,8.278156005859374,-0.4785057604312897,-0.25337332487106323,1.0598816871643066
1732873803887151000,8.288151123046875,-0.5755140781402588,-0.5470384955406189,1.0444278717041016
1732873803897147100,8.298147216796876,-0.6244145035743713,-0.7582314014434814,0.8741357326507568
1732873803907142100,8.30814208984375,-0.6101878881454468,-0.8570213913917542,0.5671135187149048
1732873803917137200,8.31813720703125,-0.5484266877174377,-0.7431273460388184,0.14701004326343536
1732873803927132200,8.328132080078126,-0.4471815228462219,-0.4317111372947693,-0.33743199706077576
1732873803937128200,8.338128173828125,-0.3313292860984802,-0.05384936183691025,-0.8069382309913635
1732873803947123000,8.348123046875,-0.2167009711265564,0.2982921600341797,-1.185377597808838
1732873803957118000,8.358117919921876,-0.12204405665397644,0.5421891212463379,-1.4014077186584473
1732873803967113000,8.368113037109374,-0.07170472294092178,0.6354833841323853,-1.4383772611618042
1732873803977109200,8.378109130859375,-0.05127297341823578,0.5536270141601562,-1.3110556602478027
1732873803987104300,8.388104248046876,-0.07572531700134277,0.42049694061279297,-1.0547118186950684
1732873803997099300,8.398099365234375,-0.14014029502868652,0.29821503162384033,-0.7241014242172241
1732873804007094300,8.40809423828125,-0.20293523371219635,0.17217107117176056,-0.38667309284210205
1732873804017089000,8.418089111328126,-0.2338075488805771,0.06501343846321106,-0.10670620948076248
1732873804027085000,8.4280849609375,-0.2362094521522522,0.014556391164660454,0.051956404000520706
1732873804037080000,8.438080078125,-0.21687456965446472,0.02228168211877346,0.08842223137617111
1732873804047075000,8.448074951171876,-0.16153673827648163,0.07209157943725586,0.02721000835299492
1732873804057070000,8.458070068359374,-0.09392369538545609,0.16628584265708923,-0.09087756276130676
1732873804067066000,8.468066162109375,-0.022484397515654564,0.261901319026947,-0.22603300213813782
1732873804077061000,8.47806103515625,0.03801240026950836,0.3424818515777588,-0.3398917615413666
1732873804087056100,8.48805615234375,0.07987728714942932,0.3804459869861603,-0.41022637486457825
1732873804097051100,8.498051025390625,0.08886723220348358,0.3777323365211487,-0.4311482608318329
1732873804107046100,8.508046142578126,0.07057531177997589,0.3265562355518341,-0.4058642089366913
1732873804117042200,8.518042236328125,0.0396931916475296,0.23809003829956055,-0.33408716320991516
1732873804127037000,8.528036865234375,0.0027522144373506308,0.1550675928592682,-0.2321903258562088
1732873804137032000,8.538031982421876,-0.033247727900743484,0.09149176627397537,-0.10189259052276611
1732873804147027000,8.54802685546875,-0.05204085633158684,0.05610741302371025,0.04140571132302284
1732873804157023200,8.558023193359375,-0.04882798343896866,0.04289300739765167,0.18166227638721466
1732873804167018200,8.568018310546876,-0.024391883984208107,0.039113450795412064,0.29808130860328674
1732873804177013200,8.57801318359375,0.01191891822963953,0.037337251007556915,0.37530526518821716
1732873804187008300,8.58800830078125,0.03807409107685089,0.002962233265861869,0.4043603539466858
1732873804197003000,8.5980029296875,0.039775408804416656,-0.0342412106692791,0.375559002161026
1732873804206999000,8.6079990234375,0.01664825528860092,-0.07086207717657089,0.2770252525806427
1732873804216994000,8.617994140625,-0.02324584871530533,-0.11195778846740723,0.12004241347312927
1732873804226989000,8.627989013671876,-0.07316920161247253,-0.15587091445922852,-0.05900510028004646
1732873804236984000,8.637984130859374,-0.12005382776260376,-0.226167693734169,-0.21623548865318298
1732873804246980000,8.64797998046875,-0.13938066363334656,-0.29498910903930664,-0.30277544260025024
1732873804256975000,8.65797509765625,-0.12152133882045746,-0.33351579308509827,-0.3242049217224121
1732873804266970000,8.66797021484375,-0.06315603107213974,-0.3279135525226593,-0.3085804283618927
1732873804276965000,8.677965087890625,0.03856438025832176,-0.2566768527030945,-0.28614097833633423
1732873804286960000,8.687960205078125,0.15458153188228607,-0.1491365283727646,-0.2784907817840576
1732873804296956200,8.6979560546875,0.24892783164978027,-0.07008630037307739,-0.286327064037323
1732873804306951200,8.707951171875,0.3190035820007324,-0.08853055536746979,-0.325555682182312
1732873804316946000,8.71794580078125,0.33791372179985046,-0.16569338738918304,-0.40622445940971375
1732873804326941000,8.72794091796875,0.2659532427787781,-0.2373175173997879,-0.518388032913208
1732873804336937200,8.737937255859375,0.13439689576625824,-0.2414773404598236,-0.6185768246650696
1732873804346932200,8.74793212890625,0.015408990904688835,-0.13755866885185242,-0.6075894236564636
1732873804356927200,8.75792724609375,-0.008263343945145607,-0.0016356917330995202,-0.3632550537586212
1732873804366922200,8.767922119140625,0.06769347190856934,0.05968625470995903,0.15727469325065613
1732873804376918000,8.77791796875,0.20582132041454315,0.12119156867265701,0.8524726033210754
1732873804386913000,8.7879130859375,0.3509156405925751,0.20696452260017395,1.5505348443984985
1732873804396908000,8.797907958984375,0.4589904546737671,0.2702787518501282,2.0888915061950684
1732873804406903000,8.807903076171876,0.5137903094291687,0.27541837096214294,2.3593461513519287
1732873804416898000,8.81789794921875,0.5418905019760132,0.20541292428970337,2.3180789947509766
1732873804426894000,8.82789404296875,0.5141515731811523,0.14214979112148285,1.98357355594635
1732873804436889000,8.83788916015625,0.4462692141532898,0.0997590720653534,1.4138051271438599
1732873804446884000,8.847884033203124,0.3626827001571655,0.08793916553258896,0.7059473395347595
1732873804456879000,8.857879150390625,0.29392877221107483,0.08896403759717941,-0.017587024718523026
1732873804466874600,8.86787451171875,0.24134546518325806,0.10265535116195679,-0.6342382431030273
1732873804476869600,8.87786962890625,0.19581398367881775,0.13907520473003387,-1.0731306076049805
1732873804486864600,8.88786474609375,0.15509876608848572,0.12303710728883743,-1.3099393844604492
1732873804496859600,8.897859619140625,0.14202795922756195,0.019312605261802673,-1.345362901687622
1732873804506854700,8.907854736328124,0.13967931270599365,-0.10936813801527023,-1.1951954364776611
1732873804516850700,8.9178505859375,0.14122267067432404,-0.18368369340896606,-0.9046206474304199
1732873804526845700,8.927845703125,0.14871200919151306,-0.20242516696453094,-0.5443886518478394
1732873804536840700,8.9378408203125,0.15809562802314758,-0.180390402674675,-0.17201057076454163
1732873804546835700,8.947835693359375,0.16472876071929932,-0.14349736273288727,0.15271584689617157
1732873804556831500,8.95783154296875,0.15835076570510864,-0.09369519352912903,0.39124560356140137
1732873804566826500,8.967826416015624,0.1418953537940979,-0.0691259354352951,0.5273538827896118
1732873804576821500,8.977821533203125,0.12342655658721924,-0.06052154675126076,0.5563120245933533
1732873804586816500,8.98781640625,0.1036059781908989,-0.0630885660648346,0.49291738867759705
1732873804596811500,8.9978115234375,0.09419470280408859,-0.06741765886545181,0.3503439724445343
1732873804606807800,9.007807861328125,0.10528090596199036,-0.07457384467124939,0.14823026955127716
1732873804616802800,9.017802734375,0.1333467662334442,-0.06548362225294113,-0.07790078967809677
1732873804626797600,9.027797607421874,0.1608276516199112,-0.04795203357934952,-0.29517877101898193
1732873804636792600,9.03779248046875,0.18535088002681732,-0.017389006912708282,-0.45867863297462463
1732873804646788600,9.04778857421875,0.20887112617492676,0.03601269796490669,-0.5439078211784363
1732873804656783600,9.05778369140625,0.2207152247428894,0.0995173528790474,-0.5532423853874207
1732873804666778600,9.067778564453125,0.22124065458774567,0.14740924537181854,-0.49044615030288696
1732873804676773600,9.077773681640625,0.21265432238578796,0.16987623274326324,-0.37138044834136963
1732873804686768600,9.0877685546875,0.17967002093791962,0.1712975651025772,-0.2105817198753357
1732873804696764700,9.0977646484375,0.11837458610534668,0.13251908123493195,-0.04529111459851265
1732873804706759700,9.107759765625,0.03943369537591934,0.042218469083309174,0.07990594953298569
1732873804716754700,9.117754638671874,-0.05108948051929474,-0.06739923357963562,0.13148602843284607
1732873804726749700,9.127749755859375,-0.1344514787197113,-0.1384427696466446,0.1015465036034584
1732873804736745500,9.137745361328125,-0.18174642324447632,-0.15108086168766022,0.012887135148048401
1732873804746740500,9.147740478515624,-0.1961946040391922,-0.09608844667673111,-0.09925910830497742
1732873804756735500,9.157735595703125,-0.1793946623802185,-0.009986091405153275,-0.21707424521446228
1732873804766730500,9.16773046875,-0.1519172340631485,0.05520676076412201,-0.31580641865730286
1732873804776726500,9.1777265625,-0.14362774789333344,0.10408332198858261,-0.3961859941482544
1732873804786721800,9.1877216796875,-0.17124126851558685,0.12406661361455917,-0.44416019320487976
1732873804796716800,9.197716796875,-0.22824761271476746,0.09256158769130707,-0.4484792947769165
1732873804806711600,9.207711669921874,-0.29563117027282715,-0.013388818129897118,-0.4089457392692566
1732873804816706600,9.21770654296875,-0.35046854615211487,-0.18027974665164948,-0.368971586227417
1732873804826702600,9.22770263671875,-0.37666499614715576,-0.32630008459091187,-0.38571780920028687
1732873804836697600,9.237697509765624,-0.3687781095504761,-0.3430304527282715,-0.4628049433231354
1732873804846692600,9.247692626953125,-0.31707656383514404,-0.17317192256450653,-0.5137951374053955
1732873804856687600,9.2576875,-0.21123552322387695,0.14506611227989197,-0.40623772144317627
1732873804866682600,9.2676826171875,-0.07856082916259766,0.46794694662094116,-0.057469356805086136
1732873804876678700,9.2776787109375,0.025845563039183617,0.6246192455291748,0.4886229634284973
1732873804886673700,9.287673583984375,0.055991217494010925,0.5993778109550476,1.099533200263977
1732873804896668700,9.297668701171874,0.00007892015855759382,0.38499656319618225,1.6396676301956177
1732873804906663700,9.30766357421875,-0.1361479014158249,0.03666972741484642,1.9825570583343506
1732873804916659700,9.31765966796875,-0.29731202125549316,-0.3538503050804138,2.048340320587158
1732873804926654500,9.327654541015624,-0.412280410528183,-0.6967911124229431,1.8221533298492432
1732873804936649500,9.3376494140625,-0.46408528089523315,-0.8660823106765747,1.3623485565185547
1732873804946644500,9.34764453125,-0.47914570569992065,-0.7890783548355103,0.7395069003105164
1732873804956640500,9.357640625,-0.42584696412086487,-0.4819543957710266,0.05427771806716919
1732873804966635800,9.3676357421875,-0.319627583026886,-0.10959280282258987,-0.5915707945823669
1732873804976630800,9.377630859375,-0.20852407813072205,0.24368725717067719,-1.0780400037765503
1732873804986625800,9.387625732421874,-0.12825080752372742,0.5110981464385986,-1.3492558002471924
1732873804996620500,9.39762060546875,-0.10179708153009415,0.665250301361084,-1.4153063297271729
1732873805006616600,9.407616455078125,-0.11113359034061432,0.7173451781272888,-1.3173494338989258
1732873805016611600,9.417611572265624,-0.15042240917682648,0.656282365322113,-1.0759146213531494
1732873805026606600,9.427606689453125,-0.2113286405801773,0.5247285962104797,-0.7293559312820435
1732873805036601600,9.4376015625,-0.2845297157764435,0.39275845885276794,-0.3284100294113159
1732873805046597400,9.447597412109374,-0.34668123722076416,0.26638907194137573,0.05662073194980621
1732873805056592600,9.457592529296875,-0.38828131556510925,0.14505131542682648,0.35403770208358765
1732873805066587600,9.467587646484375,-0.40045568346977234,0.0640784278512001,0.5215926170349121
1732873805076582700,9.477582763671874,-0.3780539631843567,0.0486934669315815,0.5513235926628113
1732873805086577700,9.48757763671875,-0.3208000063896179,0.07408537715673447,0.46300652623176575
1732873805096573700,9.49757373046875,-0.24883627891540527,0.1367092728614807,0.29251641035079956
1732873805106568400,9.507568359375,-0.16733184456825256,0.19874787330627441,0.08640265464782715
1732873805116563500,9.5175634765625,-0.09621332585811615,0.25066763162612915,-0.10740388929843903
1732873805126558500,9.527558349609375,-0.03954712301492691,0.25147056579589844,-0.24996210634708405
1732873805136554500,9.537554443359374,-0.009530550800263882,0.20173417031764984,-0.31905627250671387
1732873805146549800,9.5475498046875,0.0015588521491736174,0.12647269666194916,-0.3220352828502655
1732873805156544800,9.557544677734375,0.0006868108175694942,0.04680202156305313,-0.2647402286529541
1732873805166539800,9.567539794921874,-0.009509900584816933,-0.0296205822378397,-0.16042101383209229
1732873805176534500,9.577534423828125,-0.02704470604658127,-0.09216633439064026,-0.03269699960947037
1732873805186530600,9.587530517578125,-0.04129314795136452,-0.15085308253765106,0.09475070238113403
1732873805196525600,9.597525634765624,-0.06113456189632416,-0.18097388744354248,0.20219263434410095
1732873805206520600,9.6075205078125,-0.08619171380996704,-0.1980609893798828,0.2668320834636688
1732873805216515600,9.617515625,-0.12326386570930481,-0.23359237611293793,0.2850129008293152
1732873805226511400,9.627511474609374,-0.1684958040714264,-0.26978954672813416,0.267991840839386
1732873805236506600,9.637506591796875,-0.21000780165195465,-0.2950191795825958,0.22292780876159668
1732873805246501600,9.647501708984375,-0.24649390578269958,-0.29201966524124146,0.14831429719924927
1732873805256496600,9.65749658203125,-0.25387901067733765,-0.26246628165245056,0.03561712056398392
1732873805266491600,9.66749169921875,-0.22334294021129608,-0.21041399240493774,-0.11116380244493484
1732873805276487700,9.67748779296875,-0.17301061749458313,-0.12517622113227844,-0.27630436420440674
1732873805286482700,9.687482666015624,-0.11696571856737137,-0.009068788029253483,-0.43300768733024597
1732873805296477400,9.6974775390625,-0.03976455703377724,0.14609986543655396,-0.5484408736228943
1732873805306472400,9.707472412109375,0.05769888311624527,0.30230408906936646,-0.5892130732536316
1732873805316468500,9.717468505859374,0.1678398996591568,0.43671393394470215,-0.536034345626831
1732873805326463700,9.727463623046875,0.2840120196342468,0.5302761197090149,-0.39974573254585266
1732873805336458800,9.737458740234375,0.38404354453086853,0.6007879972457886,-0.2168414294719696
1732873805346453800,9.747453857421876,0.45662054419517517,0.6726123690605164,-0.03288277983665466
1732873805356448800,9.75744873046875,0.5176567435264587,0.7069563865661621,0.11062511801719666
1732873805366444500,9.767444580078125,0.5958183407783508,0.6707437634468079,0.1982431262731552
1732873805376439600,9.777439453125,0.6580207347869873,0.5187257528305054,0.20049937069416046
1732873805386434600,9.7874345703125,0.6678965091705322,0.21836593747138977,0.11136842519044876
1732873805396429600,9.7974296875,0.582419216632843,-0.09768109768629074,-0.03741331771016121
1732873805406425600,9.807425537109374,0.4223674535751343,-0.39502808451652527,-0.1947837620973587
1732873805416420600,9.817420654296875,0.2582971751689911,-0.6184882521629333,-0.266336053609848
1732873805426415600,9.82741552734375,0.2083842009305954,-0.5659416913986206,-0.17452649772167206
1732873805436410600,9.83741064453125,0.2885265648365021,-0.3604370653629303,0.05896688252687454
1732873805446405600,9.847405517578125,0.4180848300457001,-0.16372080147266388,0.40690380334854126
1732873805456401700,9.857401611328125,0.5582326054573059,-0.00820097979158163,0.799479067325592
1732873805466396700,9.867396728515626,0.6828621625900269,0.02846408821642399,1.1330211162567139
1732873805476391700,9.8773916015625,0.7519432306289673,-0.10017117857933044,1.318749189376831
1732873805486386400,9.887386474609375,0.7145881056785583,-0.26776817440986633,1.2916947603225708
1732873805496382700,9.8973828125,0.5873701572418213,-0.47851428389549255,1.0587646961212158
1732873805506377700,9.907377685546875,0.427091509103775,-0.6474388837814331,0.680077075958252
1732873805516372700,9.917372802734375,0.254634290933609,-0.6391591429710388,0.2288621962070465
1732873805526367700,9.92736767578125,0.09424728155136108,-0.5329538583755493,-0.20733454823493958
1732873805536362800,9.93736279296875,-0.023535478860139847,-0.32869985699653625,-0.5451159477233887
1732873805546358500,9.947358642578125,-0.08256310969591141,-0.09832017868757248,-0.7456749081611633
1732873805556353500,9.957353515625,-0.09326393157243729,0.09196873754262924,-0.8017784953117371
1732873805566348500,9.9673486328125,-0.08686275780200958,0.21329917013645172,-0.7257649302482605
1732873805576343600,9.977343505859375,-0.08316729217767715,0.2698463499546051,-0.581360399723053
1732873805586339800,9.98733984375,-0.0751115009188652,0.25622454285621643,-0.39442354440689087
1732873805596334600,9.99733447265625,-0.07082768529653549,0.1970611810684204,-0.2190038561820984
1732873805606329600,10.00732958984375,-0.07575906068086624,0.10882319509983063,-0.07644963264465332
1732873805616324600,10.01732470703125,-0.09771431982517242,0.012205855920910835,0.018483610823750496
1732873805626320600,10.027320556640625,-0.1325378119945526,-0.08834578096866608,0.07563824206590652
1732873805636315600,10.037315673828125,-0.16956210136413574,-0.15873494744300842,0.10081880539655685
1732873805646310700,10.047310546875,-0.19493243098258972,-0.18334680795669556,0.09295502305030823
1732873805656305700,10.0573056640625,-0.20579580962657928,-0.17978033423423767,0.0538615919649601
1732873805666300400,10.067300537109375,-0.19927532970905304,-0.17149870097637177,-0.02381189912557602
1732873805676296700,10.077296630859376,-0.17077933251857758,-0.15488792955875397,-0.13103537261486053
1732873805686291700,10.087291748046875,-0.11946234107017517,-0.11443397402763367,-0.24368415772914886
1732873805696286700,10.09728662109375,-0.057580020278692245,-0.061998672783374786,-0.3385713994503021
1732873805706281700,10.10728173828125,0.013255272060632706,0.001364053227007389,-0.3834688365459442
1732873805716277500,10.117277587890625,0.0794237032532692,0.05504344031214714,-0.36555978655815125
1732873805726272500,10.1272724609375,0.13778501749038696,0.09040568768978119,-0.2778480648994446
1732873805736267500,10.137267578125,0.17661620676517487,0.10044599324464798,-0.13025468587875366
1732873805746262500,10.147262451171875,0.20037585496902466,0.07769274711608887,0.05061257258057594
1732873805756257500,10.157257568359375,0.20901739597320557,0.04235013574361801,0.22543932497501373
1732873805766253800,10.16725390625,0.20926372706890106,0.001222140621393919,0.34067830443382263
1732873805776248600,10.17724853515625,0.19915440678596497,-0.01577181927859783,0.3822578191757202
1732873805786243600,10.18724365234375,0.1799120008945465,0.0028117182664573193,0.35149192810058594
1732873805796238600,10.197238525390626,0.15226484835147858,0.05686537176370621,0.2620973587036133
1732873805806234600,10.207234619140625,0.12155088037252426,0.1455259919166565,0.14461681246757507
1732873805816229600,10.217229736328125,0.09101300686597824,0.22417466342449188,0.02231815829873085
1732873805826224600,10.227224609375,0.06503413617610931,0.27030885219573975,-0.06767511367797852
1732873805836219600,10.2372197265625,0.03647405281662941,0.291486918926239,-0.11217515170574188
1732873805846214700,10.247214599609375,0.013316003605723381,0.2829113006591797,-0.10520512610673904
1732873805856210700,10.257210693359376,0.004804879426956177,0.24318012595176697,-0.057631924748420715
1732873805866205700,10.267205810546875,0.0037790294736623764,0.16740041971206665,0.004883116576820612
1732873805876200700,10.27720068359375,-0.00997229851782322,0.0636395514011383,0.04350432753562927
1732873805886195700,10.28719580078125,-0.04086283594369888,-0.05089714378118515,0.04077645018696785
1732873805896191500,10.29719140625,-0.0906987190246582,-0.14993463456630707,-0.018366163596510887
1732873805906186500,10.3071865234375,-0.13463714718818665,-0.2353600561618805,-0.12236339598894119
1732873805916181500,10.317181396484376,-0.16505537927150726,-0.30157598853111267,-0.2409694790840149
1732873805926176500,10.327176513671875,-0.18258243799209595,-0.31444600224494934,-0.35226669907569885
1732873805936171500,10.337171630859375,-0.17183184623718262,-0.24897490441799164,-0.42393621802330017
1732873805946167800,10.347167724609376,-0.14667348563671112,-0.1292935162782669,-0.39328160881996155
1732873805956162800,10.357162841796875,-0.12580034136772156,0.022799158468842506,-0.1855272799730301
1732873805966157600,10.367157470703125,-0.10700507462024689,0.16819043457508087,0.18336446583271027
1732873805976152600,10.377152587890626,-0.0922175794839859,0.2269512116909027,0.6485750079154968
1732873805986148600,10.387148681640625,-0.1093803271651268,0.17594341933727264,1.105219841003418
1732873805996143600,10.3971435546875,-0.16694487631320953,0.018746277317404747,1.4709985256195068
1732873806006138600,10.407138671875,-0.2583328187465668,-0.19788296520709991,1.6766067743301392
1732873806016133600,10.417133544921874,-0.33247408270835876,-0.39337432384490967,1.6525287628173828
1732873806026128600,10.427128662109375,-0.36715108156204224,-0.5362829566001892,1.365846872329712
1732873806036124700,10.437124755859376,-0.3562074899673462,-0.6154387593269348,0.8623500466346741
1732873806046119700,10.44711962890625,-0.3118932843208313,-0.5569791793823242,0.21393585205078125
1732873806056114700,10.45711474609375,-0.24245482683181763,-0.3663577139377594,-0.48410770297050476
1732873806066109700,10.467109619140626,-0.1515187919139862,-0.10833202302455902,-1.0903934240341187
1732873806076105500,10.47710546875,-0.04654858633875847,0.1472276747226715,-1.4779598712921143
1732873806086100500,10.4871005859375,0.03167085349559784,0.3114672005176544,-1.5820499658584595
1732873806096095500,10.497095458984376,0.08022291958332062,0.36213040351867676,-1.4271184206008911
1732873806106090500,10.507090576171874,0.10877493023872375,0.38102421164512634,-1.0784586668014526
1732873806116085500,10.51708544921875,0.12908552587032318,0.37046316266059875,-0.637654721736908
1732873806126081800,10.527081787109376,0.14628662168979645,0.3278028070926666,-0.20594827830791473
1732873806136076800,10.537076904296875,0.1407122164964676,0.27373629808425903,0.1278926134109497
1732873806146071600,10.547071533203125,0.12309220433235168,0.23333747684955597,0.30614492297172546
1732873806156066600,10.557066650390626,0.11019673198461533,0.2265034317970276,0.3417048454284668
1732873806166062600,10.5670625,0.10342670977115631,0.27579134702682495,0.2608339786529541
1732873806176057600,10.5770576171875,0.11048426479101181,0.3525092899799347,0.12007316201925278
1732873806186052600,10.587052490234376,0.1266414076089859,0.4526241719722748,-0.012412439100444317
1732873806196047600,10.597047607421874,0.1453157365322113,0.5142669081687927,-0.10750006139278412
1732873806206042600,10.607042724609375,0.17174175381660461,0.5042188167572021,-0.15166273713111877
1732873806216038700,10.61703857421875,0.19454456865787506,0.4370570182800293,-0.1501278281211853
1732873806226033700,10.62703369140625,0.2159784883260727,0.36018356680870056,-0.1236773133277893
1732873806236028700,10.637028564453125,0.22711250185966492,0.27569496631622314,-0.09311547875404358
1732873806246023700,10.647023681640626,0.21655786037445068,0.1755601167678833,-0.0605895034968853
1732873806256019700,10.657019775390625,0.2140154391527176,0.04417398199439049,-0.013085944578051567
1732873806266014500,10.667014404296875,0.20019789040088654,-0.07708906382322311,0.046073514968156815
1732873806276009500,10.677009521484376,0.19254833459854126,-0.2193020135164261,0.11813008040189743
1732873806286004500,10.68700439453125,0.19426660239696503,-0.30641135573387146,0.19841134548187256
1732873806295999500,10.69699951171875,0.21364811062812805,-0.3492462933063507,0.2737373411655426
1732873806305995800,10.706995849609376,0.25566402077674866,-0.3583124876022339,0.3369530737400055
1732873806315990800,10.71699072265625,0.31458035111427307,-0.3072701394557953,0.3862179219722748
1732873806325985800,10.72698583984375,0.38731396198272705,-0.21281686425209045,0.4273219704627991
1732873806335980500,10.73698046875,0.4628455638885498,-0.10251952707767487,0.4753682613372803
1732873806345976600,10.7469765625,0.530674159526825,-0.01072249561548233,0.5177007913589478
1732873806355971600,10.7569716796875,0.5899429321289062,0.04302595928311348,0.527827262878418
1732873806365966600,10.766966552734376,0.650555431842804,0.06318449229001999,0.47650283575057983
1732873806375961600,10.776961669921874,0.7054563760757446,0.04138317331671715,0.33234134316444397
1732873806385956600,10.78695654296875,0.7302107214927673,0.04318613186478615,0.10881343483924866
1732873806395952600,10.79695263671875,0.712338387966156,0.08552820980548859,-0.13627631962299347
1732873806405947600,10.80694775390625,0.6716035008430481,0.14345674216747284,-0.3255741000175476
1732873806415942700,10.816942626953125,0.6329382061958313,0.20344741642475128,-0.3964438736438751
1732873806425937700,10.826937744140626,0.6094179749488831,0.21883569657802582,-0.32264983654022217
1732873806435933700,10.83693359375,0.5886160731315613,0.202850803732872,-0.14160509407520294
1732873806445928400,10.846928466796875,0.5675858855247498,0.17373579740524292,0.06014985963702202
1732873806455923500,10.85692333984375,0.5253502726554871,0.14972318708896637,0.20139330625534058
1732873806465918700,10.866918701171874,0.49768584966659546,0.11722543090581894,0.23779764771461487
1732873806475913700,10.876913818359375,0.4650801420211792,0.09983458369970322,0.16627874970436096
1732873806485910000,10.886909912109376,0.4323698878288269,0.10701712965965271,0.01183911319822073
1732873806495905000,10.896905029296875,0.3992224931716919,0.11092813313007355,-0.16931039094924927
1732873806505900000,10.906900146484375,0.38931286334991455,0.08797168731689453,-0.33486074209213257
1732873806515894800,10.916894775390626,0.39624279737472534,0.047894272953271866,-0.4518792927265167
1732873806525889800,10.926889892578124,0.4203164279460907,-0.005719684064388275,-0.5179024934768677
1732873806535885800,10.9368857421875,0.4737101197242737,-0.06567419320344925,-0.5328505635261536
1732873806545880800,10.946880859375,0.5267546772956848,-0.12399981915950775,-0.5151160359382629
1732873806555875800,10.956875732421874,0.5774894952774048,-0.18683333694934845,-0.47194844484329224
1732873806565870800,10.966870849609375,0.6205578446388245,-0.23335982859134674,-0.4103196859359741
1732873806575867000,10.976866943359376,0.6477805972099304,-0.23784781992435455,-0.3300635814666748
1732873806585862000,10.98686181640625,0.653717041015625,-0.2258060723543167,-0.24726669490337372
1732873806595857000,10.99685693359375,0.6470829248428345,-0.20519019663333893,-0.17244772613048553
1732873806605852000,11.006851806640626,0.6303734183311462,-0.16003364324569702,-0.10744155943393707
1732873806615847000,11.016846923828124,0.6071524620056152,-0.09407772123813629,-0.05797452852129936
1732873806625842700,11.0268427734375,0.5917026400566101,-0.013366099447011948,-0.01913818158209324
1732873806635837700,11.036837646484376,0.5853009223937988,0.07993943244218826,0.0111160259693861
1732873806645832700,11.046832763671874,0.593663215637207,0.1669667512178421,0.043042801320552826
1732873806655827700,11.05682763671875,0.6262423396110535,0.2507596015930176,0.08489084243774414
1732873806665824000,11.066823974609376,0.6771276593208313,0.32687699794769287,0.13868243992328644
1732873806675819000,11.076819091796875,0.7346413731575012,0.3870118260383606,0.1912286877632141
1732873806685814000,11.08681396484375,0.7945271134376526,0.43136438727378845,0.22136713564395905
1732873806695808800,11.096808837890626,0.8501750826835632,0.4620160758495331,0.22233669459819794
1732873806705803800,11.1068037109375,0.8878276944160461,0.4792507290840149,0.18809376657009125
1732873806715799800,11.1167998046875,0.9075942039489746,0.4597707986831665,0.1197458803653717
1732873806725794800,11.126794921875,0.9199826717376709,0.4201384484767914,0.04089261218905449
1732873806735789800,11.136789794921874,0.9328962564468384,0.37483805418014526,-0.028373638167977333
1732873806745784800,11.146784912109375,0.9433587789535522,0.32537755370140076,-0.07003932446241379
1732873806755780900,11.15678076171875,0.9550873637199402,0.25994569063186646,-0.0723034217953682
1732873806765776000,11.16677587890625,0.97176194190979,0.20134150981903076,-0.042592667043209076
1732873806775771000,11.17677099609375,0.9866353273391724,0.13301801681518555,0.0022129137068986893
1732873806785766000,11.186765869140626,1.000251293182373,0.06690077483654022,0.044179271906614304
1732873806795761000,11.196760986328124,1.018406629562378,0.024749385192990303,0.08300507813692093
1732873806805757000,11.2067568359375,1.0386754274368286,0.020797254517674446,0.11114349961280823
1732873806815751700,11.216751708984376,1.057313323020935,0.044675249606370926,0.13692443072795868
1732873806825746700,11.22674658203125,1.0817681550979614,0.07798074185848236,0.15930163860321045
1732873806835741700,11.23674169921875,1.1109763383865356,0.0943845808506012,0.17729948461055756
1732873806845736700,11.24673681640625,1.1412678956985474,0.09411320090293884,0.18149369955062866
1732873806855733000,11.25673291015625,1.1801458597183228,0.09004119783639908,0.1695866584777832
1732873806865728000,11.26672802734375,1.2174668312072754,0.1061546579003334,0.14721478521823883
1732873806875723000,11.276722900390626,1.258753776550293,0.15620581805706024,0.12890705466270447
1732873806885717800,11.2867177734375,1.3149943351745605,0.2358359396457672,0.11610924452543259
1732873806895713800,11.2967138671875,1.3735063076019287,0.3305460214614868,0.11558134108781815
1732873806905708800,11.306708740234376,1.4320857524871826,0.4145575761795044,0.11942854523658752
1732873806915703800,11.316703857421874,1.4820902347564697,0.46500417590141296,0.12527300417423248
1732873806925698800,11.32669873046875,1.5167208909988403,0.4882301390171051,0.11479826271533966
1732873806935693800,11.33669384765625,1.535910725593567,0.4792732298374176,0.09085314720869064
1732873806945689900,11.34668994140625,1.550171971321106,0.42901164293289185,0.044395897537469864
1732873806955684900,11.356684814453125,1.5682194232940674,0.3710208535194397,-0.00839446485042572
1732873806965679900,11.366679931640626,1.5938643217086792,0.3550693094730377,-0.05232703313231468
1732873806975675000,11.3766748046875,1.6289420127868652,0.37742888927459717,-0.08903508633375168
1732873806985671000,11.3866708984375,1.6767703294754028,0.41114237904548645,-0.10058947652578354
1732873806995665700,11.396665771484376,1.7355059385299683,0.4468836784362793,-0.08867114037275314
1732873807005660700,11.40666064453125,1.794463872909546,0.474067360162735,-0.07326342165470123
1732873807015655700,11.41665576171875,1.8417456150054932,0.4708459973335266,-0.0799761489033699
1732873807025650700,11.426650634765625,1.8819926977157593,0.4414689242839813,-0.1290813833475113
1732873807035647000,11.43664697265625,1.9273043870925903,0.4312143623828888,-0.22648489475250244
1732873807045642000,11.44664208984375,1.975221872329712,0.44039133191108704,-0.3719664514064789
1732873807055637000,11.456636962890625,2.029017448425293,0.469093382358551,-0.5511480569839478
1732873807065631700,11.4666318359375,2.0835156440734863,0.5268868803977966,-0.7348731160163879
1732873807075626800,11.476626708984375,2.130788564682007,0.5580534338951111,-0.8929145932197571
1732873807085622800,11.486622802734376,2.1767656803131104,0.5527191758155823,-0.9989209175109863
1732873807095617800,11.49661767578125,2.2306995391845703,0.5193161368370056,-1.030863642692566
1732873807105612800,11.50661279296875,2.2842390537261963,0.4273957908153534,-0.9833256602287292
1732873807115607800,11.51660791015625,2.33168363571167,0.28548750281333923,-0.8776788711547852
1732873807125603800,11.526603759765624,2.3701393604278564,0.1341848075389862,-0.735647976398468
1732873807135598800,11.536598876953125,2.3964662551879883,0.02781948447227478,-0.5818453431129456
1732873807145593900,11.54659375,2.4143643379211426,-0.005570431239902973,-0.4356473684310913
1732873807155588900,11.5565888671875,2.4352571964263916,0.017087824642658234,-0.3060604929924011
1732873807165584000,11.566583984375,2.4485604763031006,0.07859885692596436,-0.2004736065864563
1732873807175580000,11.576579833984376,2.441390037536621,0.12080097198486328,-0.12377656251192093
1732873807185574700,11.58657470703125,2.4208171367645264,0.13179582357406616,-0.06758705526590347
1732873807195569700,11.596569580078125,2.4003453254699707,0.12574955821037292,-0.03144500032067299
1732873807205564700,11.606564697265625,2.3942692279815674,0.12365657091140747,-0.005437102168798447
1732873807215560000,11.616559814453124,2.411754608154297,0.13385239243507385,0.003096893895417452
1732873807225556000,11.626555908203125,2.446465492248535,0.15881261229515076,-0.00040063541382551193
1732873807235551000,11.636551025390625,2.4956135749816895,0.21368686854839325,-0.011750124394893646
1732873807245546000,11.6465458984375,2.541945219039917,0.27990877628326416,-0.03745495527982712
1732873807255540700,11.656540771484375,2.574065923690796,0.3209823966026306,-0.07631050795316696
1732873807265536800,11.666536865234375,2.6025328636169434,0.3205152750015259,-0.11257663369178772
1732873807275531800,11.67653173828125,2.626538038253784,0.3002415597438812,-0.1315058469772339
1732873807285526800,11.68652685546875,2.6268374919891357,0.26320818066596985,-0.1349189430475235
1732873807295521800,11.696521728515625,2.6077029705047607,0.22166141867637634,-0.13876983523368835
1732873807305517000,11.70651708984375,2.5914394855499268,0.16671107709407806,-0.14757370948791504
1732873807315512800,11.716512939453125,2.578579902648926,0.14968934655189514,-0.1598794311285019
1732873807325507800,11.7265078125,2.568138360977173,0.15299032628536224,-0.17030996084213257
1732873807335502800,11.7365029296875,2.571798324584961,0.18346698582172394,-0.1768195927143097
1732873807345497900,11.746497802734375,2.587251901626587,0.2316475659608841,-0.1745433807373047
1732873807355492900,11.756492919921875,2.6048614978790283,0.27839332818984985,-0.1640373170375824
1732873807365488600,11.766488525390624,2.6094305515289307,0.2982868552207947,-0.147275909781456
1732873807375483600,11.776483642578125,2.597313642501831,0.31180647015571594,-0.12968192994594574
1732873807385478700,11.786478759765625,2.564420461654663,0.3156033456325531,-0.11570406705141068
1732873807395474000,11.796473876953126,2.535325527191162,0.27109843492507935,-0.10309351980686188
1732873807405470000,11.806469970703125,2.5084645748138428,0.19735361635684967,-0.08724983781576157
1732873807415465000,11.81646484375,2.477980375289917,0.10941266268491745,-0.061387717723846436
1732873807425460000,11.8264599609375,2.450094699859619,0.04316147044301033,-0.015520095825195312
1732873807435454700,11.836454833984375,2.436676025390625,0.04335144907236099,0.04303719848394394
1732873807445449700,11.84644970703125,2.4334819316864014,0.1146131157875061,0.1047852486371994
1732873807455445800,11.85644580078125,2.425633192062378,0.23660308122634888,0.15346677601337433
1732873807465440800,11.866440673828125,2.4199440479278564,0.36790385842323303,0.17736172676086426
1732873807475436300,11.876436279296875,2.4071295261383057,0.4495600163936615,0.16504523158073425
1732873807485431300,11.886431396484374,2.375753164291382,0.4650052785873413,0.11681832373142242
1732873807495427000,11.896427001953125,2.332653045654297,0.42299777269363403,0.05986613407731056
1732873807505422000,11.906422119140625,2.2933216094970703,0.365090548992157,0.007440212648361921
1732873807515417000,11.9164169921875,2.268385410308838,0.32473745942115784,-0.028277454897761345
1732873807525412400,11.926412353515625,2.247267723083496,0.30405935645103455,-0.045180801302194595
1732873807535407400,11.936407470703125,2.2291605472564697,0.2896527647972107,-0.05143280699849129
1732873807545403100,11.946403076171874,2.2096498012542725,0.27020156383514404,-0.05438359081745148
1732873807555398100,11.956398193359375,2.1829001903533936,0.25731056928634644,-0.07168415188789368
1732873807565393200,11.96639306640625,2.148845911026001,0.2295694798231125,-0.10406366735696793
1732873807575388200,11.97638818359375,2.102971315383911,0.18302784860134125,-0.1467282474040985
1732873807585383200,11.986383056640625,2.045173406600952,0.12941256165504456,-0.1874370574951172
1732873807595379200,11.996379150390625,1.9790866374969482,0.07855536043643951,-0.21334512531757355
1732873807605374200,12.006374267578124,1.9102871417999268,0.04318378493189812,-0.2146117240190506
1732873807615369200,12.016369140625,1.8462730646133423,0.033191192895174026,-0.19144703447818756
1732873807625364200,12.0263642578125,1.7907634973526,0.03799819573760033,-0.14291492104530334
1732873807635359200,12.036359130859376,1.7453320026397705,0.060517530888319016,-0.07534433156251907
1732873807645355300,12.046355224609375,1.7046798467636108,0.09263098984956741,-0.0020557413809001446
1732873807655350300,12.056350341796875,1.661824345588684,0.11101914197206497,0.055777933448553085
1732873807665345300,12.06634521484375,1.617123007774353,0.12064700573682785,0.07256809622049332
1732873807675340300,12.07634033203125,1.5725364685058594,0.1177351102232933,0.024467721581459045
1732873807685336000,12.086336181640625,1.5211129188537598,0.10672959685325623,-0.08122941106557846
1732873807695331300,12.096331298828124,1.4428504705429077,0.09468577057123184,-0.228057399392128
1732873807705326300,12.106326416015625,1.3451087474822998,0.11067832261323929,-0.38938185572624207
1732873807715321300,12.1163212890625,1.2414112091064453,0.15336531400680542,-0.5378522276878357
1732873807725316400,12.12631640625,1.1495885848999023,0.2391345500946045,-0.6385242342948914
1732873807735312100,12.13631201171875,1.076555609703064,0.31950896978378296,-0.675408124923706
1732873807745307100,12.14630712890625,1.0251235961914062,0.35042110085487366,-0.6447567343711853
1732873807755302100,12.15630224609375,0.9812939167022705,0.34122928977012634,-0.5635297894477844
1732873807765297200,12.166297119140625,0.9377754926681519,0.3583313226699829,-0.46609240770339966
1732873807775293200,12.176293212890625,0.8852047324180603,0.44253817200660706,-0.3921240568161011
1732873807785288400,12.186288330078124,0.8253328800201416,0.6370823383331299,-0.358806312084198
1732873807795283200,12.196283203125,0.6843358874320984,0.957618236541748,-0.31652015447616577
1732873807805278200,12.2062783203125,0.4514938294887543,1.248416543006897,-0.2430669665336609
1732873807815273200,12.216273193359376,0.2415003478527069,1.329737901687622,-0.17854109406471252
1732873807825269200,12.226269287109375,0.11937551200389862,1.1966780424118042,-0.11575201153755188
1732873807835264300,12.23626416015625,0.1268181949853897,0.9059584140777588,-0.02326718531548977
1732873807845259300,12.24625927734375,0.24721917510032654,0.5490708351135254,0.10305799543857574
1732873807855254300,12.256254150390625,0.4192587435245514,0.17223107814788818,0.2534472942352295
1732873807865249300,12.266249267578125,0.5736938714981079,-0.18465115129947662,0.3945554196834564
1732873807875245300,12.276245361328124,0.6915327310562134,-0.4074501097202301,0.5171713829040527
1732873807885240300,12.286240234375,0.7119008898735046,-0.4975033104419708,0.6102586984634399
1732873807895235300,12.2962353515625,0.6807542443275452,-0.5403287410736084,0.634510338306427
1732873807905230300,12.306230224609376,0.626984715461731,-0.5483371019363403,0.5909285545349121
1732873807915225300,12.316225341796875,0.5562708377838135,-0.5117771625518799,0.5077471137046814
1732873807925221000,12.32622119140625,0.47965651750564575,-0.4759421646595001,0.4091709852218628
1732873807935216000,12.336216064453126,0.40884101390838623,-0.4594394564628601,0.31838953495025635
1732873807945211100,12.346211181640625,0.3265964686870575,-0.438829243183136,0.24667644500732422
1732873807955206100,12.3562060546875,0.232198104262352,-0.41139575839042664,0.1918475329875946
1732873807965202400,12.366202392578124,0.13379937410354614,-0.35540837049484253,0.14661560952663422
1732873807975197400,12.376197509765625,0.060254015028476715,-0.3081461489200592,0.0956651046872139
