time,seconds_elapsed,z,y,x
1733231770249464600,0.242464599609375,0.04948008432984352,-0.17043140530586243,-0.00366519158706069
1733231770259495700,0.25249560546875,0.048258353024721146,-0.12461651116609573,0.009162978269159794
1733231770269453600,0.26245361328125,0.05009094998240471,-0.0910189226269722,0.03298672288656235
1733231770279484700,0.272484619140625,0.04581489413976669,-0.0507018156349659,0.05925392732024193
1733231770289473000,0.28247314453125,0.030543262138962746,-0.03481931984424591,0.06902777403593063
1733231770299475700,0.292475830078125,0.02687807008624077,-0.048258353024721146,0.05314527451992035
1733231770309462000,0.3024619140625,0.025656340643763542,-0.07208210229873657,0.036041051149368286
1733231770319495200,0.3124951171875,0.01466076634824276,-0.12461651116609573,0.018325956538319588
1733231770329451300,0.322451171875,0.01038470957428217,-0.16310101747512817,-0.005497787147760391
1733231770339484400,0.332484375,0.015271631069481373,-0.1618792861700058,-0.03481931984424591
1733231770349470700,0.342470703125,0.021380282938480377,-0.10934487730264664,-0.06719517707824707
1733231770359473400,0.352473388671875,0.025045474991202354,-0.025045474991202354,-0.10262536257505417
1733231770369459700,0.362459716796875,0.031154127791523933,0.06291911751031876,-0.13744467496871948
1733231770379493000,0.3724931640625,0.045204028487205505,0.1111774742603302,-0.1612684279680252
1733231770389448700,0.38244873046875,0.05742133408784866,0.13072516024112701,-0.14844025671482086
1733231770399481900,0.39248193359375,0.06536258012056351,0.08429940044879913,-0.11239920556545258
1733231770409468200,0.40246826171875,0.07696902006864548,0.03176499158143997,-0.0910189226269722
1733231770419470800,0.412470947265625,0.08918632566928864,-0.022602014243602753,-0.08307767659425735
1733231770429457400,0.42245751953125,0.09040805697441101,-0.08002334833145142,-0.07513642311096191
1733231770439488800,0.43248876953125,0.07635815441608429,-0.11728613078594208,-0.07208210229873657
1733231770449477000,0.44247705078125,0.03237585723400116,-0.16310101747512817,-0.04764748737215996
1733231770459479600,0.4524794921875,0.05314527451992035,-0.19120082259178162,-0.02076941914856434
1733231770469465900,0.4624658203125,-0.006108652334660292,-0.2076941877603531,0
1733231770479498800,0.472498779296875,-0.04703662544488907,-0.22113321721553802,0.042760565876960754
1733231770489454800,0.482454833984375,-0.04764748737215996,-0.2638937830924988,0.059864792972803116
1733231770499487700,0.49248779296875,-0.04764748737215996,-0.3188716471195221,0.04459316283464432
1733231770509474600,0.502474609375,-0.03176499158143997,-0.39156460762023926,0.012217304669320583
1733231770519477000,0.51247705078125,-0.033597588539123535,-0.475253164768219,-0.0024434609804302454
1733231770529463300,0.52246337890625,-0.04948008432984352,-0.5577199459075928,0.006108652334660292
1733231770539496700,0.53249658203125,-0.0861319974064827,-0.6114761233329773,0.033597588539123535
1733231770549452300,0.542452392578125,0.027488935738801956,-0.5656611919403076,0.13255776464939117
1733231770559485700,0.552485595703125,0.048258353024721146,-0.45265114307403564,0.16493362188339233
1733231770569471700,0.5624716796875,0.02015855349600315,-0.30970868468284607,0.16432274878025055
1733231770579474700,0.572474609375,-0.0354301854968071,-0.17776179313659668,0.12217304855585098
1733231770589461000,0.5824609375,-0.04092797264456749,-0.07757988572120667,0.08735372871160507
1733231770599494100,0.592494140625,0.018325956538319588,-0.042760565876960754,0.07208210229873657
1733231770609450000,0.602449951171875,0.06475171446800232,-0.04337143152952194,0.10384709388017654
1733231770619483100,0.612483154296875,0.1111774742603302,-0.10690141469240189,0.19914206862449646
1733231770629469400,0.622469482421875,0.13927727937698364,-0.13316862285137177,0.24984388053417206
1733231770639472000,0.63247216796875,0.16798794269561768,-0.09957103431224823,0.26450464129447937
1733231770649458400,0.64245849609375,0.18509216606616974,-0.02076941914856434,0.24862214922904968
1733231770659491800,0.652491943359375,0.19058994948863983,0.06169738993048668,0.21624629199504852
1733231770669447400,0.662447509765625,0.1765400618314743,0.1569923609495163,0.19486601650714874
1733231770679478500,0.672478515625,0.15027284622192383,0.24129177629947662,0.20463985204696655
1733231770689467100,0.682467041015625,0.12217304855585098,0.28588494658470154,0.22540926933288574
1733231770699498200,0.692498291015625,0.1111774742603302,0.31031954288482666,0.20891591906547546
1733231770709456100,0.7024560546875,0.1160643994808197,0.32620203495025635,0.13744467496871948
1733231770719487200,0.7124873046875,0.12217304855585098,0.35735616087913513,0.00855211354792118
1733231770729475600,0.7224755859375,0.13255776464939117,0.3897320330142975,-0.15454891324043274
1733231770739476000,0.73247607421875,0.15271630883216858,0.4031710624694824,-0.3084869384765625
1733231770749464600,0.742464599609375,0.17898350954055786,0.3787364661693573,-0.41722095012664795
1733231770759495400,0.752495361328125,0.20036379992961884,0.3286454975605011,-0.43615779280662537
1733231770769453600,0.76245361328125,0.21074850857257843,0.28099802136421204,-0.2480112910270691
1733231770779484700,0.772484619140625,0.20525072515010834,0.24984388053417206,-0.003054326167330146
1733231770789473000,0.78247314453125,0.1869247704744339,0.1918116807937622,0.28649580478668213
1733231770799502000,0.792502197265625,0.152105450630188,0.0910189226269722,0.5662720799446106
1733231770809462300,0.802462158203125,0.11545353382825851,-0.05925392732024193,0.8002334833145142
1733231770819492400,0.812492431640625,0.09468411654233932,-0.16493362188339233,0.9566149711608887
1733231770829451000,0.822450927734375,0.06230825558304787,-0.2278527319431305,1.0018190145492554
1733231770839484000,0.83248388671875,0.01710422709584236,-0.33108896017074585,0.8246681094169617
1733231770849470700,0.842470703125,-0.004886921960860491,-0.4001167416572571,0.5943718552589417
1733231770859472400,0.852472412109375,-0.027488935738801956,-0.4538728892803192,0.3194825351238251
1733231770869459700,0.862459716796875,-0.06352998316287994,-0.5094616413116455,0.039095375686883926
1733231770879490000,0.872489990234375,-0.08185594528913498,-0.5595525503158569,-0.20402899384498596
1733231770889448700,0.88244873046875,-0.10995574295520782,-0.5571091175079346,-0.3781255781650543
1733231770899479000,0.89247900390625,-0.14233160018920898,-0.4966334402561188,-0.4789183437824249
1733231770909468400,0.902468505859375,-0.1716531366109848,-0.27000242471694946,-0.49357911944389343
1733231770919468800,0.91246875,-0.19058994948863983,-0.0757472887635231,-0.4086688458919525
1733231770929457400,0.92245751953125,-0.20341812074184418,0.08918632566928864,-0.26083946228027344
1733231770939488500,0.932488525390625,-0.21380282938480377,0.1869247704744339,-0.09224065393209457
1733231770949477000,0.94247705078125,-0.2168571650981903,0.21563543379306793,0.039706241339445114
1733231770959477500,0.9524775390625,-0.21319197118282318,0.20952677726745605,0.1111774742603302
1733231770969465900,0.9624658203125,-0.21624629199504852,0.14233160018920898,0.10690141469240189
1733231770979499500,0.97249951171875,-0.21563543379306793,0.07391469180583954,0.04398229718208313
1733231770989454800,0.982454833984375,-0.20586158335208893,0.06108652427792549,-0.09346238523721695
1733231770999486000,0.99248583984375,-0.20830504596233368,0.06536258012056351,-0.1612684279680252
1733231771009474300,1.002474365234375,-0.22113321721553802,0.0708603709936142,-0.16737708449363708
1733231771019475200,1.01247509765625,-0.24923302233219147,0.08429940044879913,-0.12828169763088226
1733231771029463600,1.022463623046875,-0.2889392673969269,0.09773843735456467,-0.08185594528913498
1733231771039496400,1.032496337890625,-0.3378084897994995,0.10384709388017654,-0.04948008432984352
1733231771049452500,1.04245263671875,-0.3952298164367676,0.08307767659425735,-0.05375614017248154
1733231771059486000,1.05248583984375,-0.4703662395477295,-0.018936822190880775,-0.10323622822761536
1733231771069472000,1.062471923828125,-0.4960225820541382,-0.09346238523721695,-0.1264491081237793
1733231771079473000,1.072472900390625,-0.5064072608947754,-0.16310101747512817,-0.13255776464939117
1733231771089461000,1.0824609375,-0.504574716091156,-0.21563543379306793,-0.1160643994808197
1733231771099492400,1.092492431640625,-0.4899139404296875,-0.2223549485206604,-0.07696902006864548
1733231771109448200,1.1024482421875,-0.46792277693748474,-0.18081611394882202,-0.02932153269648552
1733231771119480000,1.11247998046875,-0.44104471802711487,-0.07696902006864548,0.02871066704392433
1733231771129468400,1.122468505859375,-0.40072759985923767,0.13377949595451355,0.1270599663257599
1733231771139471400,1.132471435546875,-0.3732386529445648,0.25106561183929443,0.19120082259178162
1733231771149457400,1.14245751953125,-0.3396410644054413,0.3286454975605011,0.2528982162475586
1733231771159490800,1.15249072265625,-0.30604347586631775,0.3604104816913605,0.2932153046131134
1733231771169446700,1.16244677734375,-0.2626720666885376,0.3543018400669098,0.3090978264808655
1733231771179479800,1.172479736328125,-0.21074850857257843,0.3219259977340698,0.28955012559890747
1733231771189466000,1.182466064453125,-0.15882496535778046,0.3023782968521118,0.24190263450145721
1733231771199499500,1.19249951171875,-0.10506882518529892,0.32986724376678467,0.17104226350784302
1733231771209456000,1.2024560546875,-0.033597588539123535,0.38728857040405273,0.05253441259264946
1733231771219487200,1.2124873046875,0.00366519158706069,0.40194934606552124,-0.018936822190880775
1733231771229475600,1.2224755859375,0.039706241339445114,0.413555771112442,-0.07391469180583954
1733231771239476200,1.232476318359375,0.06536258012056351,0.4398229718208313,-0.1062905490398407
1733231771249464600,1.242464599609375,0.08429940044879913,0.46853363513946533,-0.10323622822761536
1733231771259496000,1.252495849609375,0.10812314599752426,0.4447098970413208,-0.06291911751031876
1733231771269453300,1.262453369140625,0.14233160018920898,0.34025195240974426,0.0024434609804302454
1733231771279484400,1.272484375,0.21441370248794556,0.06658431142568588,0.09162978827953339
1733231771289473000,1.28247314453125,0.26083946228027344,-0.11667526513338089,0.1160643994808197
1733231771299473700,1.2924736328125,0.3084869384765625,-0.21380282938480377,0.11178833991289139
1733231771309462300,1.302462158203125,0.3433062732219696,-0.18936823308467865,0.12339477986097336
1733231771319493400,1.312493408203125,0.375071257352829,-0.0659734457731247,0.16493362188339233
1733231771329451300,1.322451171875,0.41111230850219727,0.09651670604944229,0.2217440903186798
1733231771339481600,1.332481689453125,0.4147774875164032,0.23945917189121246,0.2736676335334778
1733231771349470700,1.342470703125,0.4050036668777466,0.32681289315223694,0.3182607889175415
1733231771359470600,1.352470703125,0.3854559659957886,0.3017674386501312,0.2993239760398865
1733231771369459700,1.362459716796875,0.36224308609962463,0.2125810980796814,0.22602014243602753
1733231771379490300,1.372490234375,0.33719760179519653,0.056810468435287476,0.09162978827953339
1733231771389448700,1.38244873046875,0.3127630054950714,-0.0910189226269722,-0.0757472887635231
1733231771399479800,1.392479736328125,0.29016098380088806,-0.17348572611808777,-0.23029619455337524
1733231771409468200,1.40246826171875,0.2626720666885376,-0.1814269721508026,-0.3439171314239502
1733231771419468800,1.41246875,0.2376265823841095,-0.11911872029304504,-0.3897320330142975
1733231771429457400,1.42245751953125,0.2125810980796814,0.04581489413976669,-0.2987131178379059
1733231771439488500,1.432488525390625,0.19547687470912933,0.12400564551353455,-0.1472185254096985
1733231771449476900,1.442476806640625,0.17043140530586243,0.1417207419872284,0.031154127791523933
1733231771459477500,1.4524775390625,0.15393804013729095,0.09285151958465576,0.18814650177955627
1733231771469465600,1.462465576171875,0.15943582355976105,0.021991148591041565,0.3066543638706207
1733231771479497000,1.4724970703125,0.16493362188339233,-0.033597588539123535,0.36163222789764404
1733231771489454800,1.482454833984375,0.16493362188339233,-0.09407325088977814,0.33475416898727417
1733231771499487700,1.49248779296875,0.17043140530586243,-0.15515977144241333,0.19058994948863983
1733231771509474300,1.502474365234375,0.1765400618314743,-0.12889257073402405,0.07147123664617538
1733231771519477200,1.512477294921875,0.18020524084568024,-0.07635815441608429,-0.03237585723400116
1733231771529463300,1.52246337890625,0.182648703455925,-0.004886921960860491,-0.1007927656173706
1733231771539494400,1.532494384765625,0.1875356286764145,0.0806342139840126,-0.12095131725072861
1733231771549452300,1.542452392578125,0.19364428520202637,0.12095131725072861,-0.08368854224681854
1733231771559483600,1.552483642578125,0.1973094791173935,0.11056660860776901,-0.0024434609804302454
1733231771569472000,1.562471923828125,0.18814650177955627,0.01771509274840355,0.13561208546161652
1733231771579472600,1.57247265625,0.17959438264369965,-0.051312681287527084,0.19364428520202637
1733231771589461000,1.5824609375,0.16737708449363708,-0.08124507963657379,0.21991148591041565
1733231771599494000,1.592493896484375,0.14782938361167908,-0.11545353382825851,0.19914206862449646
1733231771609450000,1.602449951171875,0.13866640627384186,-0.14966198801994324,0.1270599663257599
1733231771619483000,1.61248291015625,0.13988813757896423,-0.13805554807186127,0.031154127791523933
1733231771629469400,1.622469482421875,0.14844025671482086,-0.06169738993048668,-0.06658431142568588
1733231771639472400,1.632472412109375,0.1563815027475357,0.07513642311096191,-0.14477506279945374
1733231771649458400,1.64245849609375,0.17348572611808777,0.2773328125476837,-0.16737708449363708
1733231771659489800,1.65248974609375,0.18387043476104736,0.3591887652873993,-0.10751228034496307
1733231771669447400,1.662447509765625,0.1771509200334549,0.304210901260376,-0.0012217304902151227
1733231771679478300,1.672478271484375,0.16798794269561768,0.1313360333442688,0.11850785464048386
1733231771689467100,1.682467041015625,0.16432274878025055,-0.060475658625364304,0.20830504596233368
1733231771699500300,1.692500244140625,0.14782938361167908,-0.24434609711170197,0.23273965716362
1733231771709456100,1.7024560546875,0.12034045159816742,-0.40133845806121826,0.19608774781227112
1733231771719489000,1.712489013671875,0.07330382615327835,-0.5088507533073425,0.06291911751031876
1733231771729475600,1.7224755859375,0.05253441259264946,-0.4612032473087311,-0.05864306539297104
1733231771739476200,1.732476318359375,0.04764748737215996,-0.33292156457901,-0.17104226350784302
1733231771749464600,1.742464599609375,0.042760565876960754,-0.21013765037059784,-0.22968533635139465
1733231771759495400,1.752495361328125,0.02382374368607998,-0.11056660860776901,-0.2076941877603531
1733231771769453600,1.76245361328125,-0.016493361443281174,-0.036041051149368286,-0.09773843735456467
1733231771779484700,1.772484619140625,-0.07941248267889023,0.027488935738801956,0.09407325088977814
1733231771789473000,1.78247314453125,-0.15393804013729095,0.00733038317412138,0.33108896017074585
1733231771799473000,1.792472900390625,-0.28099802136421204,-0.23273965716362,0.5662720799446106
1733231771809462300,1.802462158203125,-0.37140607833862305,-0.43737950921058655,0.5461135506629944
1733231771819492400,1.812492431640625,-0.46242499351501465,-0.5919284224510193,0.3897320330142975
1733231771829451300,1.822451171875,-0.5296201705932617,-0.6524040699005127,0.13255776464939117
1733231771839481600,1.832481689453125,-0.5742133259773254,-0.5668829679489136,-0.13011430203914642
1733231771849470700,1.842470703125,-0.6157521605491638,-0.35246923565864563,-0.30115658044815063
1733231771859471400,1.852471435546875,-0.6346889734268188,-0.06475171446800232,-0.34086281061172485
1733231771869459700,1.862459716796875,-0.6328563690185547,0.304210901260376,-0.17776179313659668
1733231771879490800,1.87249072265625,-0.637132465839386,0.43127086758613586,0.0006108652451075613
1733231771889448700,1.88244873046875,-0.6236934065818787,0.42638394236564636,0.15027284622192383
1733231771899479800,1.892479736328125,-0.5992587804794312,0.31581732630729675,0.2168571650981903
1733231771909468400,1.902468505859375,-0.5705481171607971,0.12217304855585098,0.17837265133857727
1733231771919469000,1.912468994140625,-0.5296201705932617,-0.07696902006864548,0.05497787147760391
1733231771929457400,1.92245751953125,-0.4807509481906891,-0.2076941877603531,-0.09224065393209457
1733231771939488800,1.93248876953125,-0.4086688458919525,-0.303600013256073,-0.26572638750076294
1733231771949476900,1.942476806640625,-0.36713001132011414,-0.3225368559360504,-0.32009339332580566
1733231771959477500,1.9524775390625,-0.33719760179519653,-0.323147714138031,-0.3139847218990326
1733231771969465900,1.9624658203125,-0.32070425152778625,-0.30054569244384766,-0.2480112910270691
1733231771979497200,1.972497314453125,-0.32559117674827576,-0.27611109614372253,-0.13377949595451355
1733231771989454800,1.982454833984375,-0.34758231043815613,-0.27122417092323303,-0.00366519158706069
1733231771999486200,1.992486328125,-0.384845107793808,-0.28649580478668213,0.09773843735456467
1733231772009474600,2.002474609375,-0.42760565876960754,-0.31459560990333557,0.13866640627384186
1733231772019475200,2.01247509765625,-0.4996877610683441,-0.3830125033855438,0.11850785464048386
1733231772029463600,2.022463623046875,-0.5479460954666138,-0.4080579876899719,0.08857546001672745
1733231772039495000,2.032494873046875,-0.5876523852348328,-0.3952298164367676,0.07024950534105301
1733231772049452500,2.04245263671875,-0.6157521605491638,-0.3732386529445648,0.07269296050071716
1733231772059484000,2.05248388671875,-0.6352998614311218,-0.35552358627319336,0.08918632566928864
1733231772069472000,2.062471923828125,-0.6383541822433472,-0.32131510972976685,0.10995574295520782
1733231772079473000,2.072472900390625,-0.6255260109901428,-0.294437050819397,0.15027284622192383
1733231772089461000,2.0824609375,-0.6065891981124878,-0.2681698501110077,0.2376265823841095
1733231772099494700,2.09249462890625,-0.5864306092262268,-0.21930062770843506,0.27977627515792847
1733231772109448200,2.1024482421875,-0.5656611919403076,-0.17348572611808777,0.29016098380088806
1733231772119482400,2.112482421875,-0.5442809462547302,-0.1875356286764145,0.26633724570274353
1733231772129468400,2.122468505859375,-0.5143485069274902,-0.2626720666885376,0.21624629199504852
1733231772139471400,2.132471435546875,-0.48319441080093384,-0.3604104816913605,0.14905111491680145
1733231772149457400,2.14245751953125,-0.4715879559516907,-0.475253164768219,0.0757472887635231
1733231772159490600,2.152490478515625,-0.42149701714515686,-0.5528330206871033,0.08307767659425735
1733231772169446400,2.1624462890625,-0.3683517575263977,-0.53328537940979,0.1264491081237793
1733231772179477500,2.1724775390625,-0.3225368559360504,-0.41661009192466736,0.19914206862449646
1733231772189466400,2.18246630859375,-0.2528982162475586,-0.28955012559890747,0.2632829248905182
1733231772199499300,2.192499267578125,-0.22113321721553802,-0.14416420459747314,0.26939156651496887
1733231772209455900,2.202455810546875,-0.14782938361167908,0.00366519158706069,0.2687807083129883
1733231772219487200,2.2124873046875,-0.10506882518529892,0.0959058403968811,0.18509216606616974
1733231772229475600,2.2224755859375,-0.054367005825042725,0.14355333149433136,0.06352998316287994
1733231772239476000,2.23247607421875,0.045204028487205505,0.15882496535778046,-0.10812314599752426
1733231772249464300,2.24246435546875,0.08429940044879913,0.27488934993743896,-0.13011430203914642
1733231772259495400,2.252495361328125,0.12828169763088226,0.50335294008255,-0.05009094998240471
1733231772269453300,2.262453369140625,0.1411098688840866,0.846659243106842,0.10995574295520782
1733231772279484200,2.272484130859375,0.1869247704744339,1.149037480354309,0.31093040108680725
1733231772289473000,2.28247314453125,0.23396138846874237,1.2858713865280151,0.4966334402561188
1733231772299473200,2.29247314453125,0.27977627515792847,1.2455542087554932,0.627358615398407
1733231772309462000,2.3024619140625,0.37262779474258423,0.9731083512306213,0.6646214127540588
1733231772319492400,2.312492431640625,0.40256020426750183,0.6548475623130798,0.5070181488990784
1733231772329451300,2.322451171875,0.4337143301963806,0.3023782968521118,0.24495697021484375
1733231772339481600,2.332481689453125,0.50335294008255,0.06352998316287994,-0.033597588539123535
1733231772349470500,2.342470458984375,0.5894849896430969,0.03787364438176155,-0.23335053026676178
1733231772359470600,2.352470703125,0.6524040699005127,0.1569923609495163,-0.3390302062034607
1733231772369459700,2.362459716796875,0.6817256212234497,0.32009339332580566,-0.3891211748123169
1733231772379490300,2.372490234375,0.6499606370925903,0.46670106053352356,-0.41722095012664795
1733231772389448700,2.38244873046875,0.6126978397369385,0.4343251883983612,-0.4129449129104614
1733231772399479800,2.392479736328125,0.5809328556060791,0.25534167885780334,-0.3878994286060333
1733231772409468200,2.40246826171875,0.5436700582504272,-0.059864792972803116,-0.33597588539123535
1733231772419468800,2.41246875,0.5112941861152649,-0.4386012554168701,-0.24556782841682434
1733231772429457200,2.42245703125,0.49235737323760986,-0.7641924023628235,-0.11056660860776901
1733231772439488300,2.43248828125,0.46731191873550415,-1.0073168277740479,0.04214970022439957
1733231772449476900,2.442476806640625,0.44104471802711487,-1.141707181930542,0.19120082259178162
1733231772459477500,2.4524775390625,0.39645153284072876,-1.0751228332519531,0.3579670190811157
1733231772469465600,2.462465576171875,0.36529740691185,-0.8949176073074341,0.4098905920982361
1733231772479496200,2.47249609375,0.32986724376678467,-0.6517932415008545,0.41722095012664795
1733231772489454800,2.482454833984375,0.2883284091949463,-0.4043927788734436,0.3854559659957886
1733231772499487700,2.49248779296875,0.2528982162475586,-0.1869247704744339,0.32559117674827576
1733231772509474300,2.502474365234375,0.2217440903186798,0.01038470957428217,0.26572638750076294
1733231772519477000,2.51247705078125,0.1771509200334549,0.15821409225463867,0.21013765037059784
1733231772529463300,2.52246337890625,0.11789698898792267,0.24862214922904968,0.12461651116609573
1733231772539496700,2.53249658203125,0.09040805697441101,0.3066543638706207,0.09529497474431992
1733231772549452300,2.542452392578125,0.06536258012056351,0.35552358627319336,0.08918632566928864
1733231772559485400,2.5524853515625,0.05192354694008827,0.3897320330142975,0.08918632566928864
1733231772569471700,2.5624716796875,0.05009094998240471,0.4001167416572571,0.08735372871160507
1733231772579474400,2.572474365234375,0.051312681287527084,0.3885102868080139,0.08918632566928864
1733231772589460700,2.582460693359375,0.05009094998240471,0.37262779474258423,0.08735372871160507
1733231772599494000,2.592493896484375,0.03787364438176155,0.37629300355911255,0.06658431142568588
1733231772609450000,2.602449951171875,0.028099801391363144,0.3439171314239502,0.04398229718208313
1733231772619483000,2.61248291015625,0.027488935738801956,0.2877175211906433,0.03481931984424591
1733231772629469400,2.622469482421875,0.02687807008624077,0.23335053026676178,0.0354301854968071
1733231772639472000,2.63247216796875,0.02382374368607998,0.17287486791610718,0.031154127791523933
1733231772649458400,2.64245849609375,0.012217304669320583,0.13072516024112701,0.03787364438176155
1733231772659491800,2.652491943359375,-0.005497787147760391,0.13011430203914642,0.060475658625364304
1733231772669447400,2.662447509765625,-0.021380282938480377,0.08735372871160507,0.05497787147760391
1733231772679480800,2.672480712890625,-0.039706241339445114,-0.0708603709936142,-0.033597588539123535
1733231772689467000,2.682466796875,-0.04581489413976669,-0.23457226157188416,-0.13805554807186127
1733231772699498000,2.692498046875,-0.03481931984424591,-0.40256020426750183,-0.25045475363731384
1733231772709456100,2.7024560546875,-0.001832595793530345,-0.4917465150356293,-0.31581732630729675
1733231772719487200,2.7124873046875,0.031154127791523933,-0.5204572081565857,-0.294437050819397
1733231772729475600,2.7224755859375,0.06475171446800232,-0.4966334402561188,-0.18081611394882202
1733231772739476000,2.73247607421875,0.09957103431224823,-0.44226643443107605,-0.004886921960860491
1733231772749464600,2.742464599609375,0.09957103431224823,-0.32498031854629517,0.2932153046131134
1733231772759495700,2.75249560546875,0.06902777403593063,-0.23945917189121246,0.5064072608947754
1733231772769453300,2.762453369140625,0.013439035043120384,-0.20463985204696655,0.6377432942390442
1733231772779484000,2.77248388671875,-0.05619960278272629,-0.30482175946235657,0.5791002511978149
1733231772789473000,2.78247314453125,-0.1563815027475357,-0.5644394755363464,0.342695415019989
1733231772799504000,2.79250390625,-0.22663100063800812,-0.8038986921310425,0.014049900695681572
1733231772809462300,2.802462158203125,-0.26022860407829285,-0.8631525635719299,-0.32559117674827576
1733231772819493000,2.8124931640625,-0.3023782968521118,-0.5772676467895508,-0.6145304441452026
1733231772829451300,2.822451171875,-0.33108896017074585,-0.27061331272125244,-0.5772676467895508
1733231772839482000,2.832482177734375,-0.34147366881370544,-0.025656340643763542,-0.37262779474258423
1733231772849470500,2.842470458984375,-0.34208452701568604,0.13011430203914642,-0.05925392732024193
1733231772859471400,2.852471435546875,-0.3481931984424591,0.18448130786418915,0.24190263450145721
1733231772869459500,2.86245947265625,-0.3500257730484009,0.13988813757896423,0.42699480056762695
1733231772879490600,2.872490478515625,-0.34513887763023376,0.04886921867728233,0.4392121136188507
1733231772889448700,2.88244873046875,-0.3378084897994995,-0.05253441259264946,0.2681698501110077
1733231772899480000,2.89247998046875,-0.28038713335990906,-0.10934487730264664,-0.1771509200334549
1733231772909468400,2.902468505859375,-0.21502456068992615,-0.0959058403968811,-0.45265114307403564
1733231772919468800,2.91246875,-0.14905111491680145,-0.08674286305904388,-0.618195652961731
1733231772929457400,2.92245751953125,-0.09346238523721695,-0.09896016865968704,-0.646906316280365
1733231772939488300,2.93248828125,-0.04337143152952194,-0.1111774742603302,-0.5528330206871033
1733231772949476900,2.942476806640625,-0.00366519158706069,-0.12400564551353455,-0.36529740691185
1733231772959477500,2.9524775390625,0.021380282938480377,-0.14049901068210602,-0.13072516024112701
1733231772969465900,2.9624658203125,0.01160643994808197,-0.15271630883216858,0.19608774781227112
1733231772979496200,2.97249609375,-0.02321287989616394,-0.1771509200334549,0.3237585723400116
1733231772989454800,2.982454833984375,-0.0708603709936142,-0.192422553896904,0.36224308609962463
1733231772999485200,2.992485107421875,-0.12522737681865692,-0.16798794269561768,0.3488040566444397
1733231773009474300,3.002474365234375,-0.18570303916931152,-0.10995574295520782,0.303600013256073
1733231773019476500,3.0124765625,-0.24556782841682434,-0.033597588539123535,0.24373523890972137
1733231773029463600,3.022463623046875,-0.29016098380088806,0.03787364438176155,0.1875356286764145
1733231773039497000,3.0324970703125,-0.30604347586631775,0.07513642311096191,0.11911872029304504
1733231773049452500,3.04245263671875,-0.294437050819397,0.08124507963657379,0.1062905490398407
1733231773059486000,3.05248583984375,-0.2840523421764374,0.06902777403593063,0.11239920556545258
1733231773069472000,3.062471923828125,-0.2742784917354584,0.06658431142568588,0.14477506279945374
1733231773079475000,3.072474853515625,-0.27550023794174194,0.08552113175392151,0.2064724564552307
1733231773089461000,3.0824609375,-0.294437050819397,0.12217304855585098,0.2565633952617645
1733231773099494400,3.092494384765625,-0.3188716471195221,0.18814650177955627,0.26022860407829285
1733231773109448200,3.1024482421875,-0.35124751925468445,0.27550023794174194,0.20952677726745605
1733231773119482400,3.112482421875,-0.40622538328170776,0.394618958234787,0.06414084881544113
1733231773129468400,3.122468505859375,-0.4282165467739105,0.44837507605552673,-0.025656340643763542
1733231773139471000,3.13247119140625,-0.42271876335144043,0.46853363513946533,-0.06475171446800232
1733231773149457400,3.14245751953125,-0.39156460762023926,0.4648684561252594,-0.036651913076639175
1733231773159490600,3.152490478515625,-0.36163222789764404,0.44287729263305664,0.03176499158143997
1733231773169446400,3.1624462890625,-0.3274237811565399,0.3988949954509735,0.1014036312699318
1733231773179479800,3.172479736328125,-0.27977627515792847,0.3634648323059082,0.14416420459747314
1733231773189466000,3.182466064453125,-0.21991148591041565,0.294437050819397,0.13744467496871948
1733231773199499300,3.192499267578125,-0.1966986060142517,0.19058994948863983,0.07880161702632904
1733231773209455900,3.202455810546875,-0.18325957655906677,0.036041051149368286,0.012217304669320583
1733231773219487200,3.2124873046875,-0.16004669666290283,-0.11667526513338089,-0.03237585723400116
1733231773229475300,3.222475341796875,-0.13744467496871948,-0.182648703455925,-0.05864306539297104
1733231773239476000,3.23247607421875,-0.14355333149433136,-0.17348572611808777,-0.0708603709936142
1733231773249464800,3.24246484375,-0.15577064454555511,-0.10751228034496307,-0.04642575979232788
1733231773259495700,3.25249560546875,-0.16798794269561768,0.11728613078594208,0.0757472887635231
1733231773269453300,3.262453369140625,-0.16920967400074005,0.31093040108680725,0.20341812074184418
1733231773279484400,3.272484375,-0.1569923609495163,0.32620203495025635,0.29016098380088806
1733231773289473000,3.28247314453125,-0.1264491081237793,0.17409659922122955,0.21930062770843506
1733231773299473700,3.2924736328125,-0.11911872029304504,-0.0659734457731247,-0.02932153269648552
1733231773309462000,3.3024619140625,-0.14538592100143433,-0.37690386176109314,-0.40744712948799133
1733231773319493000,3.3124931640625,-0.20097467303276062,-0.6004805564880371,-0.7916813492774963
1733231773329451300,3.322451171875,-0.2828305959701538,-0.5076290369033813,-1.0482447147369385
1733231773339483000,3.33248291015625,-0.38606682419776917,0.10201449692249298,-0.9932668805122375
1733231773349470500,3.342470458984375,-0.4392121136188507,0.5406157374382019,-0.6969972252845764
1733231773359471600,3.3524716796875,-0.49235737323760986,0.7941248416900635,-0.3170390725135803
1733231773369459700,3.362459716796875,-0.504574716091156,0.7953465580940247,0.06169738993048668
1733231773379491300,3.3724912109375,-0.47769662737846375,0.6340781450271606,0.37201693654060364
1733231773389448700,3.38244873046875,-0.4648684561252594,0.3543018400669098,0.5271766781806946
1733231773399479300,3.392479248046875,-0.4251621961593628,0.05742133408784866,0.4807509481906891
1733231773409468200,3.40246826171875,-0.32681289315223694,-0.22968533635139465,0.22479841113090515
1733231773419468300,3.41246826171875,-0.294437050819397,-0.33658674359321594,0.042760565876960754
1733231773429457400,3.42245751953125,-0.2730567753314972,-0.33536502718925476,-0.11056660860776901
1733231773439487500,3.432487548828125,-0.22907446324825287,-0.2321287989616394,-0.23518311977386475
1733231773449476900,3.442476806640625,-0.1875356286764145,-0.13500121235847473,-0.3176499307155609
1733231773459477200,3.452477294921875,-0.16920967400074005,-0.08552113175392151,-0.3433062732219696
1733231773469465600,3.462465576171875,-0.15271630883216858,-0.11911872029304504,-0.31093040108680725
1733231773479497200,3.472497314453125,-0.13561208546161652,-0.22479841113090515,-0.18325957655906677
1733231773489454600,3.48245458984375,-0.1667662113904953,-0.44837507605552673,0.13255776464939117
1733231773499486200,3.492486328125,-0.20952677726745605,-0.5558874011039734,0.31642818450927734
1733231773509474600,3.502474609375,-0.2535090744495392,-0.6139195561408997,0.4178318381309509
1733231773519474700,3.512474609375,-0.30604347586631775,-0.6322455406188965,0.44165557622909546
1733231773529463300,3.52246337890625,-0.37140607833862305,-0.607200026512146,0.41661009192466736
1733231773539494100,3.532494140625,-0.4282165467739105,-0.5595525503158569,0.3732386529445648
1733231773549452300,3.542452392578125,-0.4801400899887085,-0.523511528968811,0.33597588539123535
1733231773559483400,3.5524833984375,-0.5546656250953674,-0.4245513379573822,0.3182607889175415
1733231773569471700,3.5624716796875,-0.5913175344467163,-0.3335324227809906,0.3072652220726013
1733231773579472400,3.572472412109375,-0.6224716901779175,-0.294437050819397,0.28099802136421204
1733231773589460700,3.582460693359375,-0.6481280326843262,-0.30543261766433716,0.2583959996700287
1733231773599492400,3.592492431640625,-0.6817256212234497,-0.33047810196876526,0.26083946228027344
1733231773609450000,3.602449951171875,-0.7275404930114746,-0.3781255781650543,0.251676470041275
1733231773619481000,3.612481201171875,-0.7507534027099609,-0.43676865100860596,0.20463985204696655
1733231773629469400,3.622469482421875,-0.7745771408081055,-0.5167919993400574,0.18631389737129211
1733231773639470300,3.63247021484375,-0.8289441466331482,-0.5436700582504272,0.21319197118282318
1733231773649458400,3.64245849609375,-0.8741481900215149,-0.5241223573684692,0.21319197118282318
1733231773659489500,3.652489501953125,-0.8961393237113953,-0.5277875661849976,0.1765400618314743
1733231773669447400,3.662447509765625,-0.912021815776825,-0.5412266254425049,0.12889257073402405
1733231773679478500,3.672478515625,-0.9150761365890503,-0.5705481171607971,0.1014036312699318
1733231773689467100,3.682467041015625,-0.9224064946174622,-0.5998696684837341,0.07269296050071716
1733231773699498000,3.692498046875,-0.9101892113685608,-0.6133087277412415,0.01038470957428217
1733231773709456000,3.702455810546875,-0.8381071090698242,-0.6053674817085266,-0.027488935738801956
1733231773719487200,3.7124873046875,-0.8423831462860107,-0.5766568183898926,-0.015882495790719986
1733231773729475600,3.7224755859375,-0.9285151958465576,-0.6023131608963013,0.13377949595451355
1733231773739476200,3.732476318359375,-0.9468411207199097,-0.7764097452163696,0.1111774742603302
1733231773749464600,3.742464599609375,-0.8827002644538879,-0.7220427393913269,0.05253441259264946
1733231773759496000,3.752495849609375,-0.8955284357070923,-0.7422012686729431,-0.028099801391363144
1733231773769453300,3.762453369140625,-0.9340129494667053,-0.7189884185791016,-0.0006108652451075613
1733231773779484700,3.772484619140625,-0.9871582388877869,-0.6707300543785095,0.11667526513338089
1733231773789473000,3.78247314453125,-1.037249207496643,-0.6860016584396362,0.18509216606616974
1733231773799473700,3.7924736328125,-1.0995573997497559,-0.6896668672561646,0.251676470041275
1733231773809462300,3.802462158203125,-1.1612548828125,-0.6511823534965515,0.33597588539123535
1733231773819495400,3.812495361328125,-1.2101240158081055,-0.6841690540313721,0.303600013256073
1733231773829451300,3.822451171875,-1.2046263217926025,-0.7354817390441895,0.1417207419872284
