time,seconds_elapsed,z,y,x
1733461182364786700,0.47078662109375,-0.2230062484741211,-0.03519010543823242,0.01003408432006836
1733461182374552300,0.48055224609375,-0.14803218841552734,-0.12167584896087646,0.16314320266246796
1733461182384977200,0.49097705078125,-0.17531681060791016,-0.17439770698547363,0.22290721535682678
1733461182394956300,0.500956298828125,-0.23678016662597656,-0.21460986137390137,0.26197946071624756
1733461182404966000,0.5109658203125,-0.2642068862915039,-0.22306692600250244,0.206900954246521
1733461182414975700,0.520975830078125,-0.28563404083251953,-0.19174396991729736,0.16208197176456451
1733461182424985600,0.530985595703125,-0.15844345092773438,-0.18501651287078857,0.08635115623474121
1733461182434964700,0.54096484375,-0.03634834289550781,-0.19277799129486084,0.020340338349342346
1733461182444974600,0.550974609375,0.12917613983154297,-0.15828585624694824,-0.01361982524394989
1733461182454984400,0.560984375,0.24258708953857422,-0.14546871185302734,-0.050146281719207764
1733461182464963600,0.570963623046875,0.31993961334228516,-0.13579189777374268,-0.034880295395851135
1733461182474973400,0.580973388671875,0.33901119232177734,-0.17527854442596436,0.03832520544528961
1733461182484983000,0.590983154296875,0.29166507720947266,-0.15675246715545654,0.04972246289253235
1733461182494962200,0.600962158203125,0.26818370819091797,-0.17000406980514526,0.05941125005483627
1733461182504972000,0.610971923828125,0.24059486389160156,-0.14951056241989136,0.04550255835056305
1733461182514982000,0.62098193359375,0.2600393295288086,-0.08883589506149292,-0.0042261481285095215
1733461182524961000,0.6309609375,0.2993640899658203,-0.04321253299713135,-0.05503299832344055
1733461182534971000,0.640970947265625,0.3776416778564453,-0.014943301677703857,-0.08242985606193542
1733461182544980700,0.650980712890625,0.3897876739501953,0.026599645614624023,-0.1590886265039444
1733461182554960000,0.6609599609375,0.3084230422973633,0.09846723079681396,-0.30965596437454224
1733461182564969700,0.6709697265625,0.2461690902709961,0.20689737796783447,-0.2746836245059967
1733461182574979600,0.6809794921875,0.15848541259765625,0.22441554069519043,-0.27739349007606506
1733461182584958500,0.69095849609375,0.02328777313232422,0.22514557838439941,-0.23287227749824524
1733461182594968300,0.70096826171875,-0.14144039154052734,0.27094602584838867,-0.19377905130386353
1733461182604978200,0.710978271484375,-0.29781627655029297,0.2742908000946045,-0.2122533917427063
1733461182614957600,0.72095751953125,-0.47189807891845703,0.1920686960220337,-0.18755432963371277
1733461182624967200,0.73096728515625,-0.5356998443603516,0.10827934741973877,-0.09080064296722412
1733461182634977000,0.74097705078125,-0.4928131103515625,-0.0022323131561279297,-0.02139347791671753
1733461182644956400,0.750956298828125,-0.3421010971069336,-0.10151755809783936,0.11705663800239563
1733461182654966000,0.760966064453125,-0.1998920440673828,-0.19087529182434082,0.24117080867290497
1733461182664976000,0.770975830078125,-0.09439849853515625,-0.28586411476135254,0.32773691415786743
1733461182674985500,0.7809853515625,-0.027462005615234375,-0.2885392904281616,0.33852559328079224
1733461182684964600,0.790964599609375,-0.011178016662597656,-0.2705361843109131,0.3672424554824829
1733461182694974500,0.800974365234375,-0.023990631103515625,-0.258542537689209,0.37725555896759033
1733461182704984300,0.810984375,0.0012483596801757812,-0.1833343505859375,0.32456690073013306
1733461182714963500,0.82096337890625,0.028733253479003906,-0.16237115859985352,0.34500953555107117
1733461182724973300,0.830973388671875,0.10654163360595703,-0.14848875999450684,0.30901461839675903
1733461182734983200,0.840983154296875,0.23470592498779297,-0.13199496269226074,0.29427728056907654
1733461182744962300,0.85096240234375,0.36307334899902344,-0.09696757793426514,0.25813019275665283
1733461182754972200,0.86097216796875,0.5179204940795898,-0.11976206302642822,0.22885045409202576
1733461182764982000,0.87098193359375,0.6512947082519531,-0.13576281070709229,0.2718655467033386
1733461182774961200,0.880961181640625,0.7080144882202148,-0.20198893547058105,0.34042608737945557
1733461182784970800,0.890970703125,0.6689310073852539,-0.2379775047302246,0.36257225275039673
1733461182794980600,0.900980712890625,0.4933490753173828,-0.21301674842834473,0.38755741715431213
1733461182804959700,0.910959716796875,0.34418582916259766,-0.1467573642730713,0.32044288516044617
1733461182814969600,0.920969482421875,0.21909046173095703,-0.08693468570709229,0.32290542125701904
1733461182824979500,0.9309794921875,0.1756458282470703,-0.03090846538543701,0.24533002078533173
1733461182834958600,0.94095849609375,0.09902763366699219,-0.021677732467651367,0.12169396877288818
1733461182844968400,0.950968505859375,0.03694438934326172,-0.09202098846435547,0.16089096665382385
1733461182854978300,0.960978271484375,0.058600425720214844,-0.14316272735595703,0.23682549595832825
1733461182864957700,0.970957763671875,0.056221961975097656,-0.13432908058166504,0.2697913348674774
1733461182874967300,0.98096728515625,0.0011491775512695312,-0.14218711853027344,0.12483802437782288
1733461182884977200,0.99097705078125,-0.08999252319335938,-0.163871169090271,0.14691168069839478
1733461182894956300,1.000956298828125,-0.20766925811767578,-0.1394944190979004,0.09266674518585205
1733461182904966000,1.0109658203125,-0.3805389404296875,-0.12685143947601318,0.11781857907772064
1733461182914975700,1.020975830078125,-0.5509147644042969,-0.08409202098846436,0.15199008584022522
1733461182924985600,1.030985595703125,-0.6732063293457031,-0.07096195220947266,0.14377696812152863
1733461182934964700,1.04096484375,-0.6371479034423828,-0.008310198783874512,0.11922804266214371
1733461182944974600,1.050974609375,-0.5505599975585938,0.013516783714294434,0.209415465593338
1733461182954984400,1.060984375,-0.41120243072509766,-0.04051792621612549,0.23153965175151825
1733461182964963600,1.070963623046875,-0.30057525634765625,-0.00022745132446289062,0.15131115913391113
1733461182974973400,1.080973388671875,-0.14947223663330078,0.08748042583465576,0.002478554844856262
1733461182984983000,1.090983154296875,-0.01058197021484375,0.14605951309204102,-0.08853268623352051
1733461182994962200,1.100962158203125,0.16641521453857422,0.17516565322875977,-0.18408037722110748
1733461183004972000,1.110971923828125,0.37676048278808594,0.14836764335632324,-0.2572307288646698
1733461183014982000,1.12098193359375,0.5422496795654297,0.1029583215713501,-0.22905907034873962
1733461183024961000,1.1309609375,0.5833854675292969,0.026264309883117676,-0.2975500822067261
1733461183034971000,1.140970947265625,0.49063777923583984,-0.0011737346649169922,-0.2522813081741333
1733461183044980700,1.150980712890625,0.41243839263916016,0.008304238319396973,-0.2316983938217163
1733461183054959900,1.1609599609375,0.36792564392089844,0.06671142578125,-0.21445003151893616
1733461183064969700,1.1709697265625,0.4409761428833008,0.13061094284057617,-0.21863245964050293
1733461183074979600,1.1809794921875,0.48320770263671875,0.18524980545043945,-0.18663853406906128
1733461183084958500,1.19095849609375,0.4063148498535156,0.26013731956481934,-0.2700418531894684
1733461183094968300,1.20096826171875,0.2011098861694336,0.2740575075149536,-0.33306175470352173
1733461183104978200,1.210978271484375,-0.13978195190429688,0.24138188362121582,-0.33323779702186584
1733461183114957600,1.22095751953125,-0.3822784423828125,0.1946340799331665,-0.31107810139656067
1733461183124967200,1.23096728515625,-0.4930086135864258,0.09038543701171875,-0.16289931535720825
1733461183134977000,1.24097705078125,-0.39560413360595703,-0.04016566276550293,-0.027600914239883423
1733461183144956400,1.250956298828125,-0.1093149185180664,-0.10494303703308105,-0.001914381980895996
1733461183154966000,1.260966064453125,0.1169281005859375,-0.1067882776260376,0.09124889969825745
1733461183164975900,1.270975830078125,0.25689220428466797,-0.12517523765563965,0.15392258763313293
1733461183174985500,1.2809853515625,0.1933279037475586,-0.05847322940826416,0.07341432571411133
1733461183184964600,1.290964599609375,0.045945167541503906,0.05682086944580078,0.05649420619010925
1733461183194974500,1.300974365234375,-0.2356548309326172,0.1255359649658203,0.0017520487308502197
1733461183204984300,1.310984375,-0.48868846893310547,0.1747448444366455,-0.06521835923194885
1733461183214963500,1.32096337890625,-0.6413059234619141,0.19795775413513184,0.018491685390472412
1733461183224973300,1.330973388671875,-0.5787343978881836,0.15681135654449463,0.15672650933265686
1733461183234983200,1.340983154296875,-0.3680076599121094,-0.0392988920211792,0.4947769343852997
1733461183244962300,1.35096240234375,-0.08096981048583984,-0.2350630760192871,0.806269109249115
1733461183254972200,1.36097216796875,0.22468948364257812,-0.3511800765991211,0.9596391320228577
1733461183264982000,1.37098193359375,0.3814516067504883,-0.35489416122436523,0.9754049181938171
1733461183274961200,1.380961181640625,0.3035125732421875,-0.24625325202941895,0.7560038566589355
1733461183284970800,1.390970703125,0.06790447235107422,-0.0540463924407959,0.30786579847335815
1733461183294980600,1.400980712890625,-0.19098567962646484,0.17402958869934082,0.011427849531173706
1733461183304959700,1.410959716796875,-0.38221168518066406,0.3248922824859619,-0.2054959237575531
1733461183314969600,1.420969482421875,-0.4392852783203125,0.3275492191314697,-0.16567140817642212
1733461183324979500,1.4309794921875,-0.26905345916748047,0.2911416292190552,-0.046599894762039185
1733461183334958600,1.44095849609375,-0.0630483627319336,0.1914757490158081,0.14377567172050476
1733461183344968400,1.450968505859375,0.19311046600341797,0.0496901273727417,0.3537035286426544
1733461183354978300,1.460978271484375,0.34386539459228516,-0.04172372817993164,0.4735838770866394
1733461183364957700,1.470957763671875,0.38199806213378906,-0.09719836711883545,0.5112593173980713
1733461183374967300,1.48096728515625,0.3076658248901367,-0.06073474884033203,0.45265302062034607
1733461183384977200,1.49097705078125,0.1902914047241211,0.015480518341064453,0.3734779953956604
1733461183394956300,1.500956298828125,0.09215354919433594,0.0839684009552002,0.20467688143253326
1733461183404966000,1.5109658203125,0.058734893798828125,0.22409546375274658,0.16098785400390625
1733461183414975700,1.520975830078125,0.1474447250366211,0.27108681201934814,0.14963319897651672
1733461183424985600,1.530985595703125,0.25059986114501953,0.3418543338775635,0.20912747085094452
1733461183434964700,1.54096484375,0.25815582275390625,0.3781968355178833,0.28857284784317017
1733461183444974600,1.550974609375,0.10576152801513672,0.3346974849700928,0.34185102581977844
1733461183454984400,1.560984375,-0.1489877700805664,0.4160829782485962,0.41304337978363037
1733461183464963600,1.570963623046875,-0.4103813171386719,0.3572707176208496,0.512542724609375
1733461183474973400,1.580973388671875,-0.6380424499511719,0.2544904947280884,0.6026824116706848
1733461183484983000,1.590983154296875,-0.715052604675293,0.170709490776062,0.6041220426559448
1733461183494962400,1.60096240234375,-0.691960334777832,0.047644972801208496,0.53926020860672
1733461183504972000,1.610971923828125,-0.5855636596679688,-0.047800421714782715,0.42546162009239197
1733461183514982000,1.62098193359375,-0.4486112594604492,-0.1537463665008545,0.3727928102016449
1733461183524961000,1.6309609375,-0.3145275115966797,-0.23499035835266113,0.3390803337097168
1733461183534971000,1.640970947265625,-0.18561267852783203,-0.2418661117553711,0.35583817958831787
1733461183544980700,1.650980712890625,-0.020978927612304688,-0.11091029644012451,0.27875077724456787
1733461183554960000,1.6609599609375,0.09584617614746094,0.13935542106628418,0.07555675506591797
1733461183564969700,1.6709697265625,0.21063899993896484,0.4926331043243408,-0.1739935725927353
1733461183574979600,1.6809794921875,0.22311782836914062,0.7149157524108887,-0.3964013159275055
1733461183584958500,1.69095849609375,0.1099863052368164,0.8451429605484009,-0.5699595808982849
1733461183594968300,1.70096826171875,-0.1573953628540039,0.8303749561309814,-0.6392274498939514
1733461183604978200,1.710978271484375,-0.5367717742919922,0.7120496034622192,-0.5580930709838867
1733461183614957600,1.72095751953125,-0.8922348022460938,0.5369729995727539,-0.4210609197616577
1733461183624967200,1.73096728515625,-1.0615978240966797,0.3159078359603882,-0.26456111669540405
1733461183634977000,1.74097705078125,-0.9111318588256836,0.1582198143005371,-0.05626249313354492
1733461183644956400,1.750956298828125,-0.5103616714477539,0.13563847541809082,0.05086652934551239
1733461183654966000,1.760966064453125,-0.026615142822265625,0.14114391803741455,0.17230620980262756
1733461183664976000,1.770975830078125,0.20373058319091797,0.2327709197998047,0.2354971468448639
1733461183674985500,1.7809853515625,0.1757030487060547,0.5916659832000732,-0.1459895372390747
1733461183684964600,1.790964599609375,0.09061717987060547,0.9341901540756226,-0.32186126708984375
1733461183694974500,1.800974365234375,-0.08749771118164062,1.2222312688827515,-0.6741070747375488
1733461183704984300,1.810984375,-0.13609790802001953,1.4704736471176147,-0.9596596360206604
1733461183714963500,1.82096337890625,-0.14876556396484375,1.5268644094467163,-1.1466501951217651
1733461183724973300,1.830973388671875,-0.05371284484863281,1.537800669670105,-1.137402892112732
1733461183734983200,1.840983154296875,0.08678340911865234,0.9537055492401123,-0.8457587361335754
1733461183744962300,1.85096240234375,0.20224571228027344,0.5372188091278076,-0.5169417858123779
1733461183754972200,1.86097216796875,0.3034954071044922,0.18360424041748047,-0.12928110361099243
1733461183764982000,1.87098193359375,0.43047332763671875,-0.11274361610412598,0.2888047993183136
1733461183774961200,1.880961181640625,0.3887615203857422,-0.25730395317077637,0.45562517642974854
1733461183784970800,1.890970703125,-0.010480880737304688,-0.26226139068603516,0.3761393129825592
1733461183794980600,1.900980712890625,-0.5070676803588867,-0.06062793731689453,0.11266088485717773
1733461183804959700,1.910959716796875,-1.0666627883911133,0.3028533458709717,-0.2383284866809845
1733461183814969600,1.920969482421875,-1.4497261047363281,0.5067358016967773,-0.5551595091819763
1733461183824979500,1.9309794921875,-1.4473609924316406,0.7601008415222168,-0.826155960559845
1733461183834958600,1.94095849609375,-1.2422218322753906,0.6828610897064209,-0.6359512805938721
1733461183844968400,1.950968505859375,-0.8855762481689453,0.47743940353393555,-0.4011867046356201
1733461183854978300,1.960978271484375,-0.6104393005371094,0.26368141174316406,-0.09862035512924194
1733461183864957700,1.970957763671875,-0.38134193420410156,0.10933995246887207,0.0708433985710144
1733461183874967300,1.98096728515625,-0.012772560119628906,0.11104512214660645,0.05170530080795288
1733461183884977200,1.99097705078125,0.2470684051513672,0.04124903678894043,-0.008764863014221191
1733461183894956300,2.000956298828125,0.6485137939453125,0.0715785026550293,0.1265384554862976
1733461183904966000,2.0109658203125,0.7781887054443359,-0.08295559883117676,0.05479699373245239
1733461183914975700,2.020975830078125,0.8309869766235352,-0.18919754028320312,0.10503113269805908
1733461183924985600,2.030985595703125,0.7958288192749023,-0.2524864673614502,0.15607863664627075
1733461183934964700,2.04096484375,0.6850881576538086,-0.42272162437438965,0.3356747031211853
1733461183944974600,2.050974609375,0.5720672607421875,-0.569648265838623,0.5394645929336548
1733461183954984400,2.060984375,0.5252304077148438,-0.7133797407150269,0.6766420006752014
1733461183964963600,2.070963623046875,0.5089826583862305,-0.7530871629714966,0.8383804559707642
1733461183974973400,2.080973388671875,0.33774662017822266,-0.5975562334060669,0.8908448219299316
1733461183984983000,2.090983154296875,0.2251596450805664,-0.2838461399078369,0.6116712093353271
1733461183994962200,2.100962158203125,0.32357215881347656,0.03147411346435547,0.4609047770500183
1733461184004972000,2.110971923828125,0.5117826461791992,0.25975704193115234,0.3636583983898163
1733461184014982000,2.12098193359375,0.7128047943115234,0.49140191078186035,-0.03874649852514267
1733461184024961000,2.1309609375,0.980595588684082,0.7490975856781006,-0.38773083686828613
1733461184034971000,2.140970947265625,1.1934442520141602,0.8317117691040039,-0.6389028429985046
1733461184044980700,2.150980712890625,1.4377613067626953,0.8051881790161133,-0.6967714428901672
1733461184054959900,2.1609599609375,1.609506607055664,0.699876070022583,-0.5217787623405457
1733461184064969700,2.1709697265625,1.6470956802368164,0.5780375003814697,-0.46946945786476135
1733461184074979600,2.1809794921875,1.5638847351074219,0.48654747009277344,-0.402148962020874
1733461184084958500,2.19095849609375,1.4100379943847656,0.4211122989654541,-0.3970220386981964
1733461184094968300,2.20096826171875,1.259535789489746,0.28226232528686523,-0.31126609444618225
1733461184104978200,2.210978271484375,1.2435522079467773,0.15604209899902344,-0.2146664708852768
1733461184114957600,2.22095751953125,1.4068775177001953,-0.13648366928100586,0.0717756375670433
1733461184124967200,2.23096728515625,1.7277517318725586,-0.35745418071746826,0.2840990424156189
1733461184134977000,2.24097705078125,2.060535430908203,-0.48233139514923096,0.376071959733963
1733461184144956400,2.250956298828125,2.1087818145751953,-0.5321378707885742,0.23382402956485748
1733461184154966000,2.260966064453125,1.7724885940551758,-0.5186734199523926,-0.2827916145324707
1733461184164975900,2.270975830078125,1.185826301574707,-0.669580340385437,-0.4483792185783386
1733461184174985500,2.2809853515625,0.5948963165283203,-0.8578886985778809,-0.43948864936828613
1733461184184964600,2.290964599609375,0.3262662887573242,-1.2788854837417603,-0.33366942405700684
1733461184194974500,2.300974365234375,0.596766471862793,-1.5720725059509277,0.07599486410617828
1733461184204984300,2.310984375,1.3273696899414062,-1.8482918739318848,0.3481624126434326
1733461184214963500,2.32096337890625,2.066493034362793,-1.9921578168869019,0.29812946915626526
1733461184224973300,2.330973388671875,2.688335418701172,-1.9838200807571411,0.16168059408664703
1733461184234983200,2.340983154296875,2.887971878051758,-1.8572418689727783,-0.05228475481271744
1733461184244962300,2.35096240234375,2.592426300048828,-1.6263914108276367,-0.2722819745540619
1733461184254972200,2.36097216796875,1.8451251983642578,-1.297092318534851,-0.49951109290122986
1733461184264982000,2.37098193359375,0.6444168090820312,-1.063414216041565,-0.4886789321899414
1733461184274961200,2.380961181640625,-0.5551090240478516,-0.9757839441299438,-0.28788793087005615
1733461184284971000,2.390970947265625,-1.754528522491455,-0.8781661987304688,-0.05707067623734474
1733461184294980600,2.400980712890625,-2.7634425163269043,-0.8854547739028931,0.13672734797000885
1733461184304959700,2.410959716796875,-3.406423568725586,-1.0059306621551514,0.234431654214859
1733461184314969600,2.420969482421875,-3.914673328399658,-1.1638962030410767,0.43500202894210815
1733461184324979500,2.4309794921875,-4.052306175231934,-1.4113967418670654,0.708088755607605
1733461184334958600,2.44095849609375,-3.6009397506713867,-1.8665380477905273,1.2360560894012451
1733461184344968400,2.450968505859375,-2.7457275390625,-2.3292508125305176,1.4483411312103271
1733461184354978300,2.460978271484375,-1.5943059921264648,-2.8071978092193604,1.634185552597046
1733461184364957700,2.470957763671875,-0.7751893997192383,-3.242827892303467,1.8582161664962769
1733461184374967300,2.48096728515625,-0.15053367614746094,-3.6175177097320557,2.3981008529663086
1733461184384977200,2.49097705078125,0.09160804748535156,-3.7666444778442383,3.071070671081543
1733461184394956300,2.500956298828125,0.10663223266601562,-3.7969541549682617,3.5072295665740967
1733461184404966000,2.5109658203125,-0.09713172912597656,-3.549863338470459,3.515881061553955
1733461184414975700,2.520975830078125,-0.37176513671875,-3.164675235748291,2.9867842197418213
1733461184424985600,2.530985595703125,-0.5105686187744141,-2.6369166374206543,2.1471457481384277
1733461184434964700,2.54096484375,-0.5388212203979492,-2.1094491481781006,1.5184967517852783
1733461184444974600,2.550974609375,-0.26288890838623047,-1.5308201313018799,0.8176493048667908
1733461184454984400,2.560984375,0.10203361511230469,-1.174771785736084,0.3420823812484741
1733461184464963600,2.570963623046875,0.4253377914428711,-0.8391671180725098,0.060164690017700195
1733461184474973400,2.580973388671875,0.7617225646972656,-0.5317540168762207,0.08806516975164413
1733461184484983000,2.590983154296875,0.6482772827148438,-0.3863009214401245,-0.1931893229484558
1733461184494962200,2.600962158203125,0.42502880096435547,-0.1696012020111084,-0.21347667276859283
1733461184504972000,2.610971923828125,-0.0042934417724609375,-0.07031536102294922,-0.12585267424583435
1733461184514982000,2.62098193359375,-0.6092844009399414,0.06922531127929688,-0.21412762999534607
1733461184524961000,2.6309609375,-1.2229738235473633,0.22523236274719238,-0.4609590768814087
1733461184534971000,2.640970947265625,-1.5319938659667969,0.34221863746643066,-0.6521042585372925
1733461184544980700,2.650980712890625,-1.5308828353881836,0.3233754634857178,-0.6445928812026978
1733461184554960000,2.6609599609375,-1.2024993896484375,0.17494726181030273,-0.4017151892185211
1733461184564969700,2.6709697265625,-0.7668981552124023,-0.02717733383178711,-0.09345540404319763
1733461184574979600,2.6809794921875,-0.3025064468383789,-0.1945258378982544,0.09994645416736603
1733461184584958500,2.69095849609375,0.0762491226196289,-0.38714826107025146,0.2900388836860657
1733461184594968300,2.70096826171875,0.3600482940673828,-0.46538496017456055,0.48153263330459595
1733461184604978200,2.710978271484375,0.4339113235473633,-0.5445314645767212,0.47011759877204895
1733461184614957600,2.72095751953125,0.30248165130615234,-0.5400170087814331,0.3916349709033966
1733461184624967200,2.73096728515625,-0.042237281799316406,-0.465584397315979,0.3869090974330902
1733461184634977000,2.74097705078125,-0.3179187774658203,-0.3970373868942261,0.493942528963089
1733461184644956400,2.750956298828125,-0.5411214828491211,-0.2091597318649292,0.43056631088256836
1733461184654966000,2.760966064453125,-0.4720478057861328,-0.04783058166503906,0.4365667402744293
1733461184664976000,2.770975830078125,-0.29469776153564453,0.13903844356536865,0.49747133255004883
1733461184674985500,2.7809853515625,-0.044635772705078125,0.2615598440170288,0.5975744128227234
1733461184684964600,2.790964599609375,0.04833221435546875,0.2804591655731201,0.6319725513458252
1733461184694974500,2.800974365234375,0.1064462661743164,0.3233351707458496,0.7722725868225098
1733461184704984300,2.810984375,0.14783191680908203,0.3673861026763916,0.8135101795196533
1733461184714963500,2.82096337890625,0.21755695343017578,0.38797664642333984,0.8999110460281372
1733461184724973300,2.830973388671875,0.2532672882080078,0.390561580657959,0.9939979910850525
1733461184734983200,2.840983154296875,0.26942920684814453,0.3705192804336548,0.9145766496658325
1733461184744962300,2.85096240234375,0.31906890869140625,0.4944978952407837,0.6083083748817444
1733461184754972200,2.86097216796875,0.4351482391357422,0.37414586544036865,0.203058660030365
1733461184764982000,2.87098193359375,0.6490859985351562,0.27060723304748535,0.11568118631839752
1733461184774961200,2.880961181640625,1.0662555694580078,0.09957432746887207,0.36711183190345764
1733461184784971000,2.890970947265625,1.3902883529663086,-0.1830974817276001,0.7745481133460999
1733461184794980600,2.900980712890625,1.553689956665039,-0.426144003868103,1.1875778436660767
1733461184804959700,2.910959716796875,1.5399627685546875,-0.6547672748565674,1.566816806793213
1733461184814969600,2.920969482421875,1.5832719802856445,-0.731674313545227,1.5509248971939087
1733461184824979500,2.9309794921875,1.833888053894043,-0.7139390707015991,1.3875432014465332
1733461184834958600,2.94095849609375,2.323223114013672,-0.7319340705871582,1.0084025859832764
1733461184844968400,2.950968505859375,2.8239784240722656,-0.6067191362380981,0.40990620851516724
1733461184854978300,2.960978271484375,3.1619110107421875,-0.44090735912323,-0.04639840126037598
1733461184864957700,2.970957763671875,3.32326602935791,-0.22733497619628906,-0.6242260932922363
1733461184874967300,2.98096728515625,3.38747501373291,-0.15945017337799072,-1.112424612045288
1733461184884977200,2.99097705078125,3.399930000305176,-0.2319120168685913,-1.6259039640426636
1733461184894956300,3.000956298828125,3.3459272384643555,-0.4286196231842041,-2.0781946182250977
1733461184904966000,3.0109658203125,3.332736015319824,-0.7041627168655396,-2.486983060836792
1733461184914975700,3.020975830078125,3.474604606628418,-1.0293145179748535,-2.5283710956573486
1733461184924985600,3.030985595703125,3.922347068786621,-1.4737699031829834,-2.0417213439941406
1733461184934964700,3.04096484375,4.350564002990723,-1.9694197177886963,-1.3363648653030396
1733461184944974600,3.050974609375,4.530174255371094,-2.4892334938049316,-0.6642881035804749
1733461184954984400,3.060984375,3.954988479614258,-2.805504322052002,-0.5649893283843994
1733461184964963600,3.070963623046875,2.719986915588379,-3.0980072021484375,-0.6847997307777405
1733461184974973400,3.080973388671875,1.0083045959472656,-3.1576485633850098,-0.8852435350418091
1733461184984983000,3.090983154296875,-0.5793600082397461,-3.1923022270202637,-1.0290724039077759
1733461184994962200,3.100962158203125,-2.1324195861816406,-3.141359329223633,-1.1693077087402344
1733461185004972000,3.110971923828125,-3.0330519676208496,-3.016604423522949,-1.3127068281173706
1733461185014982000,3.12098193359375,-3.50850248336792,-2.8006930351257324,-1.3893215656280518
1733461185024961000,3.1309609375,-3.553964138031006,-2.6314945220947266,-1.477257251739502
1733461185034971000,3.140970947265625,-3.412351131439209,-2.3951478004455566,-1.4882240295410156
1733461185044980700,3.150980712890625,-3.1557884216308594,-2.1240930557250977,-1.408260464668274
1733461185054959900,3.1609599609375,-2.675525188446045,-1.992354393005371,-1.077919840812683
1733461185064969700,3.1709697265625,-2.169081687927246,-1.9413878917694092,-0.6337804198265076
1733461185074979600,3.1809794921875,-1.8603672981262207,-1.8244010210037231,-0.5233020782470703
1733461185084958500,3.19095849609375,-1.683650016784668,-1.7288422584533691,-0.512669563293457
1733461185094968300,3.20096826171875,-1.6310601234436035,-1.6148052215576172,-0.5822829008102417
1733461185104978200,3.210978271484375,-1.4535741806030273,-1.5776227712631226,-0.6412978768348694
1733461185114957600,3.22095751953125,-1.254612922668457,-1.5950394868850708,-0.536164402961731
1733461185124967200,3.23096728515625,-0.9891605377197266,-1.611048698425293,-0.7009923458099365
1733461185134977000,3.24097705078125,-0.69140625,-1.5496882200241089,-0.7819874882698059
1733461185144956400,3.250956298828125,-0.48746585845947266,-1.3959553241729736,-0.9538722634315491
1733461185154966000,3.260966064453125,-0.48947620391845703,-1.3041967153549194,-1.036325454711914
1733461185164975600,3.2709755859375,-0.5510444641113281,-1.189465045928955,-0.9731341600418091
1733461185174985500,3.2809853515625,-0.624171257019043,-1.1866800785064697,-0.7944972515106201
1733461185184964600,3.290964599609375,-0.8305349349975586,-1.1544194221496582,-0.6166461706161499
1733461185194974500,3.300974365234375,-1.1075448989868164,-1.0658278465270996,-0.5087281465530396
1733461185204984300,3.310984375,-1.3731021881103516,-0.9266184568405151,-0.4863690137863159
1733461185214963500,3.32096337890625,-1.6258306503295898,-0.8000807762145996,-0.5184301137924194
1733461185224973300,3.330973388671875,-1.7393817901611328,-0.7061914205551147,-0.5851688385009766
1733461185234983200,3.340983154296875,-1.6879839897155762,-0.6002142429351807,-0.6865204572677612
1733461185244962300,3.35096240234375,-1.5508995056152344,-0.5293251276016235,-0.6854497790336609
1733461185254972200,3.36097216796875,-1.5171756744384766,-0.48390495777130127,-0.7879482507705688
1733461185264982000,3.37098193359375,-1.5411491394042969,-0.48561036586761475,-0.8772180080413818
1733461185274961200,3.380961181640625,-1.5198636054992676,-0.5674664974212646,-0.8884209394454956
1733461185284971000,3.390970947265625,-1.4223146438598633,-0.7532309293746948,-0.7699516415596008
1733461185294980600,3.400980712890625,-1.294088363647461,-0.858710765838623,-0.703909695148468
1733461185304960000,3.4109599609375,-1.0848655700683594,-0.8559768199920654,-0.5467103123664856
1733461185314969600,3.420969482421875,-0.9883842468261719,-0.8966492414474487,-0.38235124945640564
1733461185324979500,3.4309794921875,-0.851344108581543,-0.8153331279754639,-0.3133028447628021
1733461185334958800,3.440958740234375,-0.7575101852416992,-0.6213301420211792,-0.456066370010376
1733461185344968400,3.450968505859375,-0.7547645568847656,-0.32840895652770996,-0.7890088558197021
1733461185354978300,3.460978271484375,-0.6234626770019531,-0.00007343292236328125,-1.1312077045440674
1733461185364957700,3.470957763671875,-0.3305168151855469,0.09636735916137695,-1.5216960906982422
1733461185374967300,3.48096728515625,0.21834087371826172,0.12695741653442383,-1.6292855739593506
1733461185384977200,3.49097705078125,0.8977994918823242,-0.22019076347351074,-1.4879708290100098
1733461185394956300,3.500956298828125,2.0540237426757812,-0.5635250806808472,-1.1001081466674805
1733461185404966000,3.5109658203125,3.1587257385253906,-0.9401670694351196,-0.4615352153778076
1733461185414975700,3.520975830078125,4.366091728210449,-1.3162972927093506,0.2719934284687042
1733461185424985600,3.530985595703125,5.144728660583496,-1.4390175342559814,0.7469159364700317
1733461185434964700,3.54096484375,5.352099418640137,-1.290837287902832,0.6874319911003113
1733461185444974600,3.550974609375,5.075516700744629,-0.8440817594528198,0.32280516624450684
1733461185454984400,3.560984375,4.288649559020996,-0.31435608863830566,-0.2143654227256775
1733461185464963600,3.570963623046875,3.4165735244750977,0.06544947624206543,-0.663424015045166
1733461185474973400,3.580973388671875,2.50331974029541,0.25461316108703613,-1.0184491872787476
1733461185484983000,3.590983154296875,1.923039436340332,0.21272015571594238,-1.1763688325881958
1733461185494962400,3.60096240234375,1.7802305221557617,-0.23274552822113037,-1.419342279434204
1733461185504972000,3.610971923828125,2.3949813842773438,-1.1195142269134521,-1.3843870162963867
1733461185514982000,3.62098193359375,3.494108200073242,-2.217442750930786,-1.14368736743927
1733461185524961300,3.630961181640625,4.83262825012207,-3.1267545223236084,-0.8503999710083008
1733461185534971000,3.640970947265625,5.668826103210449,-3.565127372741699,-0.25527501106262207
1733461185544980700,3.650980712890625,5.87381649017334,-3.7893192768096924,0.41405344009399414
1733461185554960100,3.660960205078125,5.183586120605469,-3.7805256843566895,0.6116769313812256
1733461185564969700,3.6709697265625,3.49082088470459,-3.2096450328826904,0.2222464680671692
1733461185574979300,3.680979248046875,1.5716991424560547,-2.630405902862549,-0.2656623423099518
1733461185584958700,3.690958740234375,-0.6912851333618164,-1.9928287267684937,-0.7357143759727478
1733461185594968300,3.70096826171875,-2.738037109375,-1.430992603302002,-1.4180042743682861
1733461185604978200,3.710978271484375,-4.701709747314453,-0.7648638486862183,-2.2063915729522705
1733461185614957600,3.72095751953125,-6.313799858093262,-0.513981819152832,-2.527667760848999
1733461185624967200,3.73096728515625,-7.168708801269531,-0.683342456817627,-2.2723379135131836
1733461185634977000,3.74097705078125,-7.2515764236450195,-1.3300409317016602,-1.369085431098938
1733461185644956400,3.750956298828125,-6.366475582122803,-2.3194732666015625,-0.23712295293807983
1733461185654966000,3.760966064453125,-4.421480178833008,-3.2855238914489746,0.789951741695404
1733461185664976000,3.770975830078125,-2.432030200958252,-3.9085335731506348,1.6682233810424805
1733461185674985500,3.7809853515625,-0.6083059310913086,-4.33378267288208,2.3149173259735107
1733461185684964600,3.790964599609375,0.5384159088134766,-4.439272403717041,2.5088040828704834
1733461185694974500,3.800974365234375,1.3493146896362305,-4.028136253356934,2.244933843612671
1733461185704984300,3.810984375,1.507857322692871,-3.4541549682617188,1.6709630489349365
1733461185714963500,3.82096337890625,1.3322868347167969,-2.7380969524383545,0.847650408744812
1733461185724973300,3.830973388671875,0.9930000305175781,-1.9725364446640015,0.17810440063476562
1733461185734983200,3.840983154296875,0.5851039886474609,-1.4181592464447021,-0.22136077284812927
1733461185744962600,3.850962646484375,0.00785064697265625,-1.0643212795257568,-0.5501670837402344
1733461185754972200,3.86097216796875,-0.5517816543579102,-0.8339009284973145,-0.7264032363891602
1733461185764981800,3.870981689453125,-1.0712089538574219,-0.6492904424667358,-0.9782366752624512
1733461185774961200,3.880961181640625,-1.406717300415039,-0.5459542274475098,-1.0523324012756348
1733461185784971000,3.890970947265625,-1.6213150024414062,-0.5605523586273193,-0.9760347604751587
1733461185794980600,3.900980712890625,-1.6350107192993164,-0.6002318859100342,-0.9847579598426819
1733461185804959700,3.910959716796875,-1.492074966430664,-0.7191745042800903,-0.8697448372840881
1733461185814969600,3.920969482421875,-1.296152114868164,-0.9263995885848999,-0.6308956742286682
1733461185824979500,3.9309794921875,-0.980316162109375,-1.1067055463790894,-0.18726509809494019
1733461185834958600,3.94095849609375,-0.5872087478637695,-1.0729769468307495,0.14195004105567932
1733461185844968400,3.950968505859375,-0.32399940490722656,-1.0526496171951294,0.517336368560791
1733461185854978300,3.960978271484375,-0.2305164337158203,-0.881995439529419,0.5970934629440308
1733461185864957700,3.970957763671875,-0.3650350570678711,-0.6618499755859375,0.39034226536750793
1733461185874967300,3.98096728515625,-0.5962371826171875,-0.39322829246520996,0.09137304127216339
1733461185884977200,3.99097705078125,-0.6540489196777344,-0.10762739181518555,-0.12397029995918274
1733461185894956300,4.000956298828125,-0.5367803573608398,0.03528571128845215,-0.2574772834777832
1733461185904966000,4.0109658203125,-0.23534488677978516,0.13825035095214844,-0.32656243443489075
1733461185914975700,4.020975830078125,0.23115921020507812,0.22181320190429688,-0.3713310658931732
1733461185924985600,4.030985595703125,0.7850971221923828,0.1580955982208252,-0.14380474388599396
1733461185934964700,4.04096484375,1.264352798461914,-0.021356701850891113,0.20907777547836304
1733461185944974600,4.050974609375,1.3975400924682617,-0.19165289402008057,0.428991436958313
1733461185954984400,4.060984375,1.2436714172363281,-0.21462488174438477,0.557842493057251
1733461185964963600,4.070963623046875,0.9248065948486328,-0.25075995922088623,0.6625822186470032
1733461185974973400,4.080973388671875,0.4348106384277344,-0.17533302307128906,0.5846219062805176
1733461185984983000,4.090983154296875,-0.0806722640991211,-0.07433342933654785,0.47832030057907104
1733461185994962200,4.100962158203125,-0.3829803466796875,-0.03913223743438721,0.5251715183258057
1733461186004972000,4.110971923828125,-0.4682340621948242,-0.09878408908843994,0.715015172958374
1733461186014982000,4.12098193359375,-0.21854496002197266,-0.25560247898101807,0.8153712749481201
1733461186024961000,4.1309609375,0.3666801452636719,-0.5138074159622192,0.9385002851486206
1733461186034971000,4.140970947265625,1.065230369567871,-0.6943674087524414,1.124144434928894
1733461186044980700,4.150980712890625,1.6772947311401367,-0.8377025127410889,1.288313627243042
1733461186054959900,4.1609599609375,2.006890296936035,-0.9467366933822632,1.3639322519302368
1733461186064969700,4.1709697265625,2.0376968383789062,-0.9940384030342102,1.097205638885498
1733461186074979600,4.1809794921875,2.0427799224853516,-0.8841234445571899,0.6191576719284058
1733461186084958500,4.19095849609375,2.3781051635742188,-0.8134968280792236,0.3273550868034363
1733461186094968300,4.20096826171875,2.841824531555176,-0.8762075901031494,-0.14087843894958496
1733461186104978200,4.210978271484375,3.3065967559814453,-0.9069272875785828,-0.6583088636398315
1733461186114957600,4.22095751953125,3.899054527282715,-1.0693755149841309,-1.4322444200515747
1733461186124967200,4.23096728515625,4.499577522277832,-1.3495674133300781,-2.0245542526245117
1733461186134977000,4.24097705078125,5.644618988037109,-1.8748234510421753,-2.2036209106445312
1733461186144956400,4.250956298828125,6.8825273513793945,-2.3883862495422363,-1.8682562112808228
1733461186154966000,4.260966064453125,8.090157508850098,-2.9074108600616455,-1.1607444286346436
1733461186164975600,4.2709755859375,8.115102767944336,-3.2820193767547607,-0.5184834003448486
1733461186174985500,4.2809853515625,6.644680976867676,-3.476194381713867,-0.510113537311554
1733461186184964600,4.290964599609375,3.8240461349487305,-3.4610555171966553,-1.1679093837738037
1733461186194974500,4.300974365234375,1.1405134201049805,-3.3931827545166016,-1.6122112274169922
1733461186204984300,4.310984375,-1.5957098007202148,-3.279297351837158,-2.1008243560791016
1733461186214963500,4.32096337890625,-3.43355655670166,-3.0718417167663574,-2.592829942703247
1733461186224973300,4.330973388671875,-4.683200836181641,-2.630263566970825,-3.0941596031188965
1733461186234983200,4.340983154296875,-5.334019660949707,-2.1546456813812256,-3.529348611831665
1733461186244962300,4.35096240234375,-5.401227951049805,-1.725684642791748,-3.3749470710754395
1733461186254972200,4.36097216796875,-5.062970161437988,-1.473117709159851,-2.7402586936950684
1733461186264982000,4.37098193359375,-4.2189202308654785,-1.225307822227478,-2.2788774967193604
1733461186274961200,4.380961181640625,-3.2442383766174316,-1.1089818477630615,-1.9649477005004883
1733461186284971000,4.390970947265625,-2.517862319946289,-1.1392245292663574,-1.5262718200683594
1733461186294980600,4.400980712890625,-1.9970626831054688,-1.3793928623199463,-1.221360206604004
1733461186304960000,4.4109599609375,-1.6757636070251465,-1.5165724754333496,-0.9341752529144287
1733461186314969600,4.420969482421875,-1.1919136047363281,-1.6229448318481445,-0.7015393376350403
1733461186324979500,4.4309794921875,-0.9021406173706055,-1.7001243829727173,-0.5028237700462341
1733461186334958800,4.440958740234375,-0.6244621276855469,-1.751732349395752,-0.45401817560195923
1733461186344968400,4.450968505859375,-0.1696329116821289,-1.777024745941162,-0.2377312183380127
1733461186354978300,4.460978271484375,0.1055917739868164,-1.7492320537567139,-0.2212996482849121
1733461186364957700,4.470957763671875,0.22333431243896484,-1.6597601175308228,-0.12537825107574463
1733461186374967300,4.48096728515625,0.29880714416503906,-1.466224193572998,-0.1685217022895813
1733461186384977200,4.49097705078125,0.2218608856201172,-1.1882416009902954,-0.3144209086894989
1733461186394956300,4.500956298828125,-0.03145408630371094,-0.9415205717086792,-0.593761146068573
1733461186404966000,4.5109658203125,-0.4797525405883789,-0.7403914928436279,-0.7975916862487793
1733461186414975700,4.520975830078125,-0.7973108291625977,-0.6387966871261597,-0.8139656186103821
1733461186424985600,4.530985595703125,-1.0035877227783203,-0.5555462837219238,-0.8779075145721436
1733461186434964700,4.54096484375,-1.0704164505004883,-0.6240442991256714,-0.7963306903839111
1733461186444974600,4.550974609375,-1.0461416244506836,-0.8362451791763306,-0.5132215023040771
1733461186454984400,4.560984375,-0.959813117980957,-1.0216457843780518,-0.27049341797828674
1733461186464963600,4.570963623046875,-0.8711652755737305,-1.181312918663025,0.01864677667617798
1733461186474973400,4.580973388671875,-0.8733768463134766,-1.3269648551940918,0.15180206298828125
1733461186484983000,4.590983154296875,-1.0404205322265625,-1.3848031759262085,0.14372271299362183
1733461186494962400,4.60096240234375,-1.2906131744384766,-1.272045612335205,0.15917611122131348
1733461186504972000,4.610971923828125,-1.554718017578125,-1.1365855932235718,0.02449434995651245
1733461186514982000,4.62098193359375,-1.8354125022888184,-0.95134437084198,-0.05768781900405884
1733461186524961300,4.630961181640625,-1.946868896484375,-0.7930312156677246,-0.1903834342956543
1733461186534971000,4.640970947265625,-1.9135117530822754,-0.5809526443481445,-0.3490033745765686
1733461186544980700,4.650980712890625,-1.6376004219055176,-0.44756829738616943,-0.4855259656906128
1733461186554960100,4.660960205078125,-1.1145820617675781,-0.26033568382263184,-0.5278271436691284
1733461186564969700,4.6709697265625,-0.6554775238037109,-0.13966822624206543,-0.7205497622489929
1733461186574979300,4.680979248046875,-0.18059825897216797,0.036728858947753906,-0.8329861164093018
1733461186584958700,4.690958740234375,0.0835103988647461,0.1463472843170166,-0.8798798322677612
1733461186594968300,4.70096826171875,0.23086833953857422,0.24926996231079102,-0.9276105165481567
1733461186604978200,4.710978271484375,0.2216043472290039,0.23259663581848145,-0.8375896215438843
1733461186614957600,4.72095751953125,0.20499801635742188,0.05665445327758789,-0.4909020662307739
1733461186624967200,4.73096728515625,0.395538330078125,-0.1413285732269287,0.05162680149078369
1733461186634977000,4.74097705078125,0.7164077758789062,-0.3498152494430542,0.48547595739364624
1733461186644956400,4.750956298828125,1.0334911346435547,-0.5385767221450806,0.6420186161994934
1733461186654966000,4.760966064453125,1.3379859924316406,-0.4230386018753052,0.5764819979667664
1733461186664976000,4.770975830078125,1.5100269317626953,-0.17681872844696045,0.2405395209789276
1733461186674985500,4.7809853515625,1.5823020935058594,0.0723029375076294,0.05267024040222168
1733461186684964600,4.790964599609375,1.621964454650879,0.24009466171264648,-0.06183522939682007
1733461186694974500,4.800974365234375,1.6083364486694336,0.24349439144134521,-0.04170691967010498
1733461186704984300,4.810984375,1.4759244918823242,-0.04452335834503174,0.23265966773033142
1733461186714963500,4.82096337890625,1.3265037536621094,-0.5336394309997559,0.8433630466461182
1733461186724973300,4.830973388671875,1.3148136138916016,-1.2758750915527344,1.60538649559021
1733461186734983200,4.840983154296875,1.7965621948242188,-2.2490785121917725,2.0612471103668213
1733461186744962600,4.850962646484375,2.743208885192871,-2.921494960784912,1.7762019634246826
1733461186754972200,4.86097216796875,4.1619873046875,-3.516002655029297,1.2356817722320557
1733461186764981800,4.870981689453125,5.157135963439941,-4.026358604431152,1.1425296068191528
1733461186774961200,4.880961181640625,5.615923881530762,-4.498034477233887,1.493138313293457
1733461186784971000,4.890970947265625,5.284053802490234,-4.713083267211914,1.709445834159851
1733461186794980600,4.900980712890625,4.102745056152344,-4.560309886932373,1.7141108512878418
1733461186804959700,4.910959716796875,2.507584571838379,-4.514512062072754,1.771364688873291
1733461186814969600,4.920969482421875,0.6190166473388672,-4.223832130432129,1.5265260934829712
1733461186824979500,4.9309794921875,-0.8918685913085938,-3.8220934867858887,1.1286269426345825
1733461186834958600,4.94095849609375,-1.6690926551818848,-3.400536060333252,0.8203586339950562
1733461186844968400,4.950968505859375,-1.889094352722168,-3.1923446655273438,0.5526621341705322
1733461186854978300,4.960978271484375,-1.5088138580322266,-3.2103681564331055,0.35853907465934753
1733461186864957700,4.970957763671875,-0.8483419418334961,-3.243730306625366,0.19393950700759888
1733461186874967300,4.98096728515625,-0.18593978881835938,-3.339911699295044,0.2565895617008209
1733461186884977200,4.99097705078125,0.3831939697265625,-3.4084458351135254,0.5067740678787231
1733461186894956300,5.000956298828125,0.7523927688598633,-3.286660671234131,0.7111092805862427
1733461186904966000,5.0109658203125,1.0399608612060547,-3.1538288593292236,1.079325795173645
1733461186914975700,5.020975830078125,1.114816665649414,-2.9360105991363525,1.4228978157043457
1733461186924985600,5.030985595703125,0.8715400695800781,-2.575544595718384,1.4333655834197998
1733461186934964700,5.04096484375,0.3694953918457031,-2.1041905879974365,1.2458256483078003
1733461186944974600,5.050974609375,-0.5170669555664062,-1.557920217514038,0.7788053750991821
1733461186954984400,5.060984375,-1.4411239624023438,-0.7589606046676636,0.0388287678360939
1733461186964963600,5.070963623046875,-2.2343268394470215,-0.19753944873809814,-0.5734494924545288
1733461186974973400,5.080973388671875,-2.8636183738708496,0.14972198009490967,-1.1050535440444946
1733461186984983000,5.090983154296875,-2.9630002975463867,0.43814826011657715,-1.539139747619629
1733461186994962200,5.100962158203125,-2.4533371925354004,0.5494164228439331,-1.531076192855835
1733461187004972000,5.110971923828125,-1.8032422065734863,0.33215129375457764,-0.892429530620575
1733461187014982000,5.12098193359375,-1.1579017639160156,-0.3886352777481079,0.13945993781089783
1733461187024961000,5.1309609375,-0.9160804748535156,-1.089195966720581,0.9131443500518799
1733461187034971000,5.140970947265625,-0.9765939712524414,-1.7023290395736694,1.5324476957321167
1733461187044980700,5.150980712890625,-1.4185028076171875,-2.168944835662842,2.0544581413269043
1733461187054959900,5.1609599609375,-1.7511258125305176,-2.606577157974243,2.346449851989746
1733461187064969700,5.1709697265625,-1.443211555480957,-2.8596043586730957,2.3184409141540527
1733461187074979600,5.1809794921875,-0.250091552734375,-2.9432930946350098,1.8098849058151245
1733461187084958500,5.19095849609375,1.9483165740966797,-2.967395782470703,1.6332701444625854
1733461187094968300,5.20096826171875,4.096104621887207,-3.038034439086914,1.5583101511001587
1733461187104978200,5.210978271484375,6.172626495361328,-3.021221876144409,1.4712132215499878
1733461187114957600,5.22095751953125,7.234148979187012,-2.9962644577026367,1.5166144371032715
1733461187124967200,5.23096728515625,7.173444747924805,-3.1131792068481445,1.7812743186950684
1733461187134977000,5.24097705078125,6.23960018157959,-3.12656831741333,2.0856683254241943
1733461187144956400,5.250956298828125,4.443763732910156,-2.9698498249053955,2.206521511077881
1733461187154966000,5.260966064453125,2.610574722290039,-2.692993640899658,2.1809215545654297
1733461187164975600,5.2709755859375,0.7431888580322266,-2.1987555027008057,2.0087313652038574
1733461187174985500,5.2809853515625,-0.4534749984741211,-1.8438528776168823,1.910749912261963
1733461187184964600,5.290964599609375,-0.9644899368286133,-1.6721930503845215,1.9302774667739868
1733461187194974500,5.300974365234375,-1.3492364883422852,-1.4830002784729004,1.6924750804901123
1733461187204984300,5.310984375,-1.7029471397399902,-1.244721531867981,1.3839168548583984
1733461187214963500,5.32096337890625,-2.295053482055664,-1.08455228805542,1.1803580522537231
1733461187224973300,5.330973388671875,-2.868523120880127,-0.9942569136619568,0.9064900279045105
1733461187234983200,5.340983154296875,-3.446423053741455,-1.0951570272445679,0.6529625654220581
1733461187244962300,5.35096240234375,-3.7304697036743164,-1.285839319229126,0.49805131554603577
1733461187254972200,5.36097216796875,-3.781182289123535,-1.548702359199524,0.21102213859558105
1733461187264982000,5.37098193359375,-3.2918100357055664,-1.7675433158874512,0.17773261666297913
1733461187274961200,5.380961181640625,-2.3646883964538574,-2.064305067062378,0.5030809640884399
1733461187284971000,5.390970947265625,-1.3704795837402344,-2.2992208003997803,0.5796489119529724
1733461187294980600,5.400980712890625,-0.6742897033691406,-2.3842127323150635,0.6595067381858826
1733461187304960000,5.4109599609375,-0.16477489471435547,-2.444964647293091,0.7622719407081604
1733461187314969600,5.420969482421875,0.010114669799804688,-2.400831699371338,0.7845580577850342
1733461187324979500,5.4309794921875,0.10643768310546875,-2.2789182662963867,0.5434719324111938
1733461187334958800,5.440958740234375,0.19479942321777344,-2.1235976219177246,0.47742921113967896
1733461187344968400,5.450968505859375,0.35582542419433594,-1.9830474853515625,0.3776648938655853
1733461187354978300,5.460978271484375,0.3360872268676758,-1.9395413398742676,0.0710718035697937
1733461187364957700,5.470957763671875,0.4521474838256836,-1.8825041055679321,-0.2464677393436432
1733461187374967300,5.48096728515625,0.42644500732421875,-1.807413935661316,-0.5296177864074707
1733461187384977200,5.49097705078125,0.5011434555053711,-1.861525535583496,-0.7278114557266235
1733461187394956300,5.500956298828125,0.9349241256713867,-1.9871702194213867,-0.4460154175758362
1733461187404966000,5.5109658203125,1.293736457824707,-2.1592140197753906,0.039483219385147095
1733461187414975700,5.520975830078125,1.2833881378173828,-2.376572608947754,0.49574944376945496
1733461187424985600,5.530985595703125,0.9632387161254883,-2.569504499435425,0.6943555474281311
1733461187434964700,5.54096484375,0.33699607849121094,-2.5831403732299805,0.5269595980644226
1733461187444974600,5.550974609375,-0.2227916717529297,-2.448551654815674,0.2632931172847748
1733461187454984400,5.560984375,-0.5538625717163086,-2.1848578453063965,-0.06972771883010864
1733461187464963600,5.570963623046875,-0.519683837890625,-1.932991862297058,-0.38819581270217896
1733461187474973400,5.580973388671875,-0.08377265930175781,-1.5983726978302002,-0.6857479214668274
1733461187484983000,5.590983154296875,0.43131446838378906,-1.2009507417678833,-1.049414873123169
1733461187494962400,5.60096240234375,0.7605752944946289,-0.6763234734535217,-1.4457197189331055
1733461187504972000,5.610971923828125,0.8395557403564453,-0.25523823499679565,-1.8138257265090942
1733461187514982000,5.62098193359375,0.9170541763305664,0.003675103187561035,-1.8689368963241577
1733461187524961300,5.630961181640625,0.8419742584228516,0.1267991065979004,-1.6882256269454956
1733461187534971000,5.640970947265625,0.6351385116577148,0.22666800022125244,-1.195656418800354
1733461187544980700,5.650980712890625,0.33596229553222656,0.015527963638305664,-0.7751428484916687
1733461187554960100,5.660960205078125,0.07274532318115234,-0.2473953366279602,-0.34188520908355713
1733461187564969700,5.6709697265625,-0.2215728759765625,-0.49785685539245605,-0.14028620719909668
1733461187574979300,5.680979248046875,-0.4370603561401367,-0.6571875810623169,0.01638704538345337
1733461187584958700,5.690958740234375,-0.676910400390625,-0.886690616607666,0.285020649433136
1733461187594968300,5.70096826171875,-0.8789167404174805,-1.0691553354263306,0.38486945629119873
1733461187604978200,5.710978271484375,-1.0309553146362305,-1.2349791526794434,0.47878772020339966
1733461187614957600,5.72095751953125,-1.1113929748535156,-1.2872381210327148,0.44915297627449036
1733461187624967200,5.73096728515625,-1.0341758728027344,-1.198573112487793,0.3481742739677429
1733461187634977000,5.74097705078125,-0.7507123947143555,-0.9091848134994507,0.15604788064956665
1733461187644956400,5.750956298828125,-0.43048954010009766,-0.6093636155128479,-0.004318177700042725
1733461187654966000,5.760966064453125,-0.1399707794189453,-0.5026706457138062,-0.0646706223487854
1733461187664976000,5.770975830078125,-0.14635181427001953,-0.4719236195087433,-0.09722226858139038
1733461187674985500,5.7809853515625,-0.22208881378173828,-0.38327285647392273,-0.11902409791946411
1733461187684964600,5.790964599609375,-0.2903175354003906,-0.23610806465148926,-0.12543141841888428
1733461187694974500,5.800974365234375,-0.29442882537841797,-0.00476682186126709,-0.06644010543823242
1733461187704984300,5.810984375,-0.2050914764404297,0.18241113424301147,-0.22313976287841797
1733461187714963500,5.82096337890625,-0.01912975311279297,0.4048711955547333,-0.36557596921920776
1733461187724973300,5.830973388671875,0.0813140869140625,0.6728959679603577,-0.5438851714134216
1733461187734983200,5.840983154296875,0.18901348114013672,0.8550168871879578,-0.6395125389099121
1733461187744962600,5.850962646484375,0.22111892700195312,0.9619718790054321,-0.7848505973815918
1733461187754972200,5.86097216796875,0.2648916244506836,1.0277936458587646,-1.0353394746780396
1733461187764981800,5.870981689453125,0.40105342864990234,1.1456761360168457,-1.2279281616210938
1733461187774961200,5.880961181640625,0.6316986083984375,1.14678955078125,-1.309853434562683
1733461187784971000,5.890970947265625,0.9104022979736328,1.1868407726287842,-1.3852965831756592
1733461187794980600,5.900980712890625,1.1311168670654297,1.2749543190002441,-1.5726549625396729
1733461187804959700,5.910959716796875,1.510671615600586,1.1748178005218506,-1.3794705867767334
1733461187814969600,5.920969482421875,1.8526315689086914,0.7703396081924438,-0.9265906810760498
1733461187824979500,5.9309794921875,1.9465141296386719,0.1744699478149414,-0.29518985748291016
1733461187834958600,5.94095849609375,1.6259984970092773,-0.3703315854072571,0.15704846382141113
1733461187844968400,5.950968505859375,1.2537555694580078,-0.6792511343955994,0.6069649457931519
1733461187854978300,5.960978271484375,0.8038148880004883,-0.9710637927055359,1.2604206800460815
1733461187864957700,5.970957763671875,0.6245546340942383,-1.0232343673706055,1.7534358501434326
1733461187874967300,5.98096728515625,0.5360097885131836,-0.8532626628875732,1.998254418373108
1733461187884977200,5.99097705078125,0.45862674713134766,-0.5838693976402283,2.1262855529785156
1733461187894956300,6.000956298828125,0.3580150604248047,-0.15054535865783691,2.099047899246216
1733461187904966000,6.0109658203125,0.1940450668334961,0.3203136920928955,1.6775529384613037
1733461187914975700,6.020975830078125,-0.21593475341796875,0.7766884565353394,1.0326316356658936
1733461187924985600,6.030985595703125,-0.5992441177368164,1.148163914680481,0.6864274144172668
1733461187934964700,6.04096484375,-1.0881500244140625,1.3835957050323486,0.28009748458862305
1733461187944974600,6.050974609375,-1.3815832138061523,1.6016912460327148,0.09737133979797363
1733461187954984400,6.060984375,-1.4620361328125,1.6601580381393433,-0.12235867977142334
1733461187964963600,6.070963623046875,-1.2874784469604492,1.660012125968933,0.04892420768737793
1733461187974973400,6.080973388671875,-1.1504697799682617,1.434186339378357,0.275775671005249
1733461187984983000,6.090983154296875,-0.9800348281860352,1.035555124282837,0.7186521291732788
1733461187994962200,6.100962158203125,-0.9417171478271484,0.721572756767273,1.087903618812561
1733461188004972000,6.110971923828125,-0.9613828659057617,0.3586200475692749,1.5192632675170898
1733461188014982000,6.12098193359375,-0.932591438293457,0.07015097141265869,1.843956470489502
1733461188024961000,6.1309609375,-0.8395910263061523,-0.156389057636261,2.116018295288086
1733461188034971000,6.140970947265625,-0.5900430679321289,-0.3559483289718628,2.135195255279541
1733461188044980700,6.150980712890625,-0.1850423812866211,-0.4424360394477844,1.9276692867279053
1733461188054959900,6.1609599609375,0.2889375686645508,-0.4831204414367676,1.6663061380386353
1733461188064969700,6.1709697265625,0.7001867294311523,-0.5843859910964966,1.4575331211090088
1733461188074979600,6.1809794921875,0.9814271926879883,-0.7943322658538818,1.373877763748169
1733461188084958500,6.19095849609375,1.0880956649780273,-0.9349024891853333,1.3441942930221558
1733461188094968300,6.20096826171875,1.04730224609375,-1.1233398914337158,1.3936277627944946
1733461188104978200,6.210978271484375,0.9164876937866211,-1.27218759059906,1.5335314273834229
1733461188114957600,6.22095751953125,0.6830129623413086,-1.2555443048477173,1.485242486000061
1733461188124967200,6.23096728515625,0.46125316619873047,-1.1192257404327393,1.2440695762634277
1733461188134977000,6.24097705078125,0.18377399444580078,-0.8500421643257141,0.8869013786315918
1733461188144956400,6.250956298828125,-0.0227813720703125,-0.5133904218673706,0.559475839138031
1733461188154966000,6.260966064453125,-0.28939056396484375,-0.06649500131607056,0.24450302124023438
1733461188164975600,6.2709755859375,-0.7353010177612305,0.36667853593826294,-0.10661029815673828
1733461188174985500,6.2809853515625,-1.3363819122314453,0.7154256105422974,-0.3596382141113281
1733461188184964600,6.290964599609375,-2.277188301086426,1.0173338651657104,-0.5846972465515137
1733461188194974500,6.300974365234375,-3.0511016845703125,1.1147562265396118,-0.6327834129333496
1733461188204984300,6.310984375,-3.5647921562194824,1.0032109022140503,-0.22753334045410156
1733461188214963500,6.32096337890625,-3.564398765563965,0.6969972848892212,0.16472619771957397
1733461188224973300,6.330973388671875,-2.7877092361450195,0.34876978397369385,0.5856215953826904
1733461188234983200,6.340983154296875,-1.5045843124389648,0.11428242921829224,0.8700358867645264
1733461188244962300,6.35096240234375,0.15655136108398438,-0.04824936389923096,1.1404645442962646
1733461188254972200,6.36097216796875,1.6479883193969727,-0.035622239112854004,1.1898058652877808
1733461188264982000,6.37098193359375,3.300374984741211,0.39282941818237305,1.0987329483032227
1733461188274961200,6.380961181640625,4.57713508605957,0.8705430030822754,0.7835519909858704
1733461188284971000,6.390970947265625,5.290539741516113,1.4372334480285645,0.483276903629303
1733461188294980600,6.400980712890625,5.347412109375,1.970440149307251,-0.03294634819030762
1733461188304960000,6.4109599609375,4.800395965576172,2.4073166847229004,-0.3693580627441406
1733461188314969600,6.420969482421875,3.5953798294067383,2.592020273208618,-0.4915860891342163
1733461188324979500,6.4309794921875,2.28537654876709,2.6544981002807617,-0.38484394550323486
1733461188334958800,6.440958740234375,0.9606599807739258,2.5749704837799072,-0.2857154607772827
1733461188344968400,6.450968505859375,0.028148651123046875,2.3967604637145996,-0.03359699249267578
1733461188354978300,6.460978271484375,-0.8072071075439453,2.0087196826934814,0.48010367155075073
1733461188364957700,6.470957763671875,-1.4303569793701172,1.5324735641479492,0.9209160208702087
1733461188374967300,6.48096728515625,-2.0338120460510254,1.0440391302108765,1.349776029586792
1733461188384977200,6.49097705078125,-2.603860378265381,0.6426704525947571,1.7156627178192139
1733461188394956300,6.500956298828125,-3.0600967407226562,0.33719801902770996,1.940610408782959
1733461188404966000,6.5109658203125,-3.5018153190612793,0.13868093490600586,2.1104674339294434
1733461188414975700,6.520975830078125,-3.7480907440185547,0.04009723663330078,2.103583812713623
1733461188424985600,6.530985595703125,-3.7614479064941406,0.015269935131072998,1.9802699089050293
1733461188434964700,6.54096484375,-3.471041202545166,0.06730502843856812,1.7805452346801758
1733461188444974600,6.550974609375,-2.68556547164917,0.04283243417739868,1.5846918821334839
1733461188454984400,6.560984375,-1.8632006645202637,0.027372777462005615,1.3814746141433716
1733461188464963600,6.570963623046875,-1.093815803527832,0.052996158599853516,1.2928377389907837
1733461188474973400,6.580973388671875,-0.4420595169067383,0.18799275159835815,1.227280616760254
1733461188484983000,6.590983154296875,0.20654773712158203,0.4721459746360779,0.9861428141593933
1733461188494962400,6.60096240234375,0.8106803894042969,0.8245630264282227,0.5987196564674377
1733461188504972000,6.610971923828125,1.2418088912963867,1.2248163223266602,0.05655336380004883
1733461188514982000,6.62098193359375,1.5706920623779297,1.6854567527770996,-0.6352603435516357
1733461188524961300,6.630961181640625,1.729090690612793,2.0238685607910156,-1.1666908264160156
1733461188534971000,6.640970947265625,1.7455129623413086,2.2123477458953857,-1.3742806911468506
1733461188544980700,6.650980712890625,1.7626638412475586,2.2758870124816895,-1.1407439708709717
1733461188554960100,6.660960205078125,1.6449708938598633,2.085214376449585,-0.8899859189987183
1733461188564969700,6.6709697265625,1.6712970733642578,1.941605567932129,-0.45450925827026367
1733461188574979300,6.680979248046875,1.8017339706420898,1.6456735134124756,-0.14628446102142334
1733461188584958700,6.690958740234375,1.8897533416748047,1.3822115659713745,0.02070927619934082
1733461188594968300,6.70096826171875,1.9943294525146484,1.1044971942901611,0.18523800373077393
1733461188604978200,6.710978271484375,1.8514404296875,1.0480895042419434,0.29374366998672485
1733461188614957600,6.72095751953125,1.6247997283935547,1.263607382774353,0.2577478289604187
1733461188624967200,6.73096728515625,1.3154335021972656,1.6020987033843994,0.010638713836669922
1733461188634977000,6.74097705078125,1.150482177734375,1.817399263381958,-0.010085463523864746
1733461188644956400,6.750956298828125,1.1329565048217773,1.813244342803955,-0.09166562557220459
1733461188654966000,6.760966064453125,1.247105598449707,1.5777080059051514,0.21157890558242798
1733461188664976000,6.770975830078125,1.7208490371704102,0.9573042988777161,0.9240578413009644
1733461188674985500,6.7809853515625,2.391895294189453,0.3442518711090088,1.5123462677001953
1733461188684964900,6.79096484375,3.114583969116211,-0.384787380695343,2.0699620246887207
1733461188694974500,6.800974365234375,3.4745311737060547,-0.9809594750404358,2.3666892051696777
1733461188704984300,6.810984375,3.4398183822631836,-1.5466370582580566,2.4284121990203857
1733461188714963500,6.82096337890625,3.0095138549804688,-1.9937137365341187,2.3347582817077637
1733461188724973300,6.830973388671875,2.570338249206543,-2.161083221435547,1.9881656169891357
1733461188734983200,6.840983154296875,2.3339767456054688,-2.1383612155914307,1.554809808731079
1733461188744962600,6.850962646484375,2.399538993835449,-1.907014012336731,1.0377774238586426
1733461188754972200,6.86097216796875,2.6341772079467773,-1.4538354873657227,0.5259084701538086
1733461188764982000,6.87098193359375,2.6604557037353516,-1.028923749923706,0.13562285900115967
1733461188774961200,6.880961181640625,2.2942962646484375,-0.5313282012939453,-0.04458773136138916
1733461188784971000,6.890970947265625,1.3915023803710938,-0.28894275426864624,0.20968711376190186
1733461188794980600,6.900980712890625,-0.19226551055908203,-0.14403367042541504,0.4860779047012329
1733461188804959700,6.910959716796875,-1.7954044342041016,-0.06036806106567383,0.6802162528038025
1733461188814969600,6.920969482421875,-3.45662260055542,0.03507530689239502,0.6877386569976807
1733461188824979500,6.9309794921875,-4.70271110534668,-0.020554542541503906,0.6503793001174927
1733461188834958600,6.94095849609375,-5.230291366577148,-0.16064536571502686,0.5608637928962708
1733461188844968400,6.950968505859375,-5.109200954437256,-0.3830372095108032,0.5630487203598022
1733461188854978300,6.960978271484375,-4.291262626647949,-0.6770213842391968,0.9103465676307678
1733461188864957700,6.970957763671875,-2.8905067443847656,-1.2694191932678223,1.3993852138519287
1733461188874967300,6.98096728515625,-1.6090869903564453,-1.760055661201477,1.790776252746582
1733461188884977200,6.99097705078125,-0.6580448150634766,-2.241874933242798,2.3868894577026367
1733461188894956300,7.000956298828125,-0.2590055465698242,-2.6371910572052,3.189891815185547
1733461188904966000,7.0109658203125,-0.2621030807495117,-2.874702215194702,3.998201370239258
1733461188914975700,7.020975830078125,-0.5978918075561523,-2.8838462829589844,4.348552703857422
1733461188924985600,7.030985595703125,-1.0474815368652344,-2.620091438293457,4.3226318359375
1733461188934964700,7.04096484375,-1.3151178359985352,-2.0734214782714844,3.4125499725341797
1733461188944974600,7.050974609375,-1.27392578125,-1.4041308164596558,2.310915470123291
1733461188954984400,7.060984375,-1.2184123992919922,-0.7471055388450623,1.294081211090088
1733461188964963600,7.070963623046875,-1.1847953796386719,-0.18036949634552002,0.4809556007385254
1733461188974973400,7.080973388671875,-1.0107946395874023,0.3221060037612915,-0.03632175922393799
1733461188984983000,7.090983154296875,-0.7829132080078125,0.5210293531417847,-0.1986989974975586
1733461188994962200,7.100962158203125,-0.5062398910522461,0.5718485116958618,-0.021182537078857422
1733461189004972000,7.110971923828125,-0.29843711853027344,0.4784672260284424,0.3322019577026367
1733461189014982000,7.12098193359375,-0.4161100387573242,0.3405797481536865,0.690310537815094
1733461189024961000,7.1309609375,-0.7720708847045898,0.21013784408569336,0.9047690629959106
1733461189034971000,7.140970947265625,-1.4025249481201172,0.11950194835662842,1.071427822113037
1733461189044980700,7.150980712890625,-1.9342575073242188,0.03318130970001221,1.3039406538009644
1733461189054959900,7.1609599609375,-2.2279744148254395,-0.07847273349761963,1.4460194110870361
1733461189064969700,7.1709697265625,-2.247227668762207,-0.23663318157196045,1.6353825330734253
1733461189074979600,7.1809794921875,-2.111708641052246,-0.20003509521484375,1.7490702867507935
1733461189084958500,7.19095849609375,-1.828446865081787,-0.10754072666168213,1.7350866794586182
1733461189094968300,7.20096826171875,-1.3946657180786133,-0.05153369903564453,1.83579683303833
1733461189104978200,7.210978271484375,-0.8306512832641602,0.050612807273864746,1.9227831363677979
1733461189114957600,7.22095751953125,-0.2840557098388672,0.15280091762542725,2.022646427154541
1733461189124967200,7.23096728515625,0.20450210571289062,0.21854043006896973,2.075971841812134
1733461189134977000,7.24097705078125,0.5317506790161133,0.3207489252090454,1.983765721321106
1733461189144956400,7.250956298828125,0.9312229156494141,0.4109126925468445,1.829578161239624
1733461189154966000,7.260966064453125,1.438002586364746,0.5355633497238159,1.6092939376831055
1733461189164975600,7.2709755859375,1.9348936080932617,0.6970030665397644,1.3408652544021606
1733461189174985500,7.2809853515625,2.3225479125976562,0.9066030383110046,1.0234105587005615
1733461189184964900,7.29096484375,2.3629512786865234,1.1831364631652832,0.6494801044464111
1733461189194974500,7.300974365234375,2.0552167892456055,1.4548274278640747,0.3469318151473999
1733461189204984300,7.310984375,1.4970064163208008,1.5873887538909912,0.3296182155609131
1733461189214963500,7.32096337890625,0.8807220458984375,1.6097145080566406,0.2962512969970703
1733461189224973300,7.330973388671875,0.5354490280151367,1.6215224266052246,0.3150395154953003
1733461189234983200,7.340983154296875,0.5121479034423828,1.415635585784912,0.5978333950042725
1733461189244962300,7.35096240234375,0.7796049118041992,1.2521106004714966,0.9514105319976807
1733461189254972200,7.36097216796875,1.2555513381958008,1.03300142288208,1.502450704574585
1733461189264982000,7.37098193359375,1.6618995666503906,0.7989159822463989,2.139636516571045
1733461189274961200,7.380961181640625,1.8358116149902344,0.5493305325508118,2.475611686706543
1733461189284971000,7.390970947265625,2.038365364074707,0.3863840699195862,2.515333890914917
1733461189294980600,7.400980712890625,2.11614990234375,0.19551867246627808,2.29379940032959
1733461189304960000,7.4109599609375,2.298722267150879,0.10564106702804565,1.7745821475982666
1733461189314969600,7.420969482421875,2.6155757904052734,0.12244415283203125,1.3881126642227173
1733461189324979500,7.4309794921875,3.167879104614258,0.21327745914459229,1.0740275382995605
1733461189334958800,7.440958740234375,3.7062578201293945,0.22342193126678467,0.7348332405090332
1733461189344968400,7.450968505859375,4.157869338989258,0.09760361909866333,0.14879190921783447
1733461189354978300,7.460978271484375,4.507712364196777,-0.18452703952789307,-0.4084728956222534
1733461189364957700,7.470957763671875,5.021456718444824,-0.8095844388008118,-0.7592685222625732
1733461189374967600,7.480967529296875,5.814864158630371,-1.3891961574554443,-0.43192505836486816
1733461189384977200,7.49097705078125,6.2676239013671875,-2.0256099700927734,0.40115177631378174
1733461189394956300,7.500956298828125,5.764404296875,-2.736462354660034,1.0202986001968384
1733461189404966000,7.5109658203125,4.479484558105469,-3.084033727645874,1.1234701871871948
1733461189414975700,7.520975830078125,2.1490554809570312,-3.368712902069092,0.9721137285232544
1733461189424985600,7.530985595703125,0.006083488464355469,-3.4482009410858154,0.6439249515533447
1733461189434964700,7.54096484375,-2.030250072479248,-3.3531336784362793,0.1692662239074707
1733461189444974600,7.550974609375,-3.19553804397583,-3.1683201789855957,-0.24156391620635986
1733461189454984400,7.560984375,-3.7748050689697266,-3.027892827987671,-0.47221624851226807
1733461189464963600,7.570963623046875,-3.806912899017334,-2.7651138305664062,-0.7292386293411255
1733461189474973400,7.580973388671875,-3.673499584197998,-2.254329204559326,-0.9092023372650146
1733461189484983000,7.590983154296875,-3.45932674407959,-1.6162832975387573,-1.0228497982025146
1733461189494962400,7.60096240234375,-3.280770778656006,-1.0488193035125732,-1.1665325164794922
1733461189504972000,7.610971923828125,-3.124389171600342,-0.4747738838195801,-1.2777397632598877
1733461189514982000,7.62098193359375,-2.9526047706604004,-0.03784775733947754,-1.3433830738067627
1733461189524961300,7.630961181640625,-2.6348395347595215,0.3225984573364258,-1.1766303777694702
1733461189534971000,7.640970947265625,-2.322777271270752,0.41160106658935547,-0.8761857748031616
1733461189544980700,7.650980712890625,-1.9823980331420898,0.06715643405914307,-0.0428776741027832
1733461189554960100,7.660960205078125,-1.6443004608154297,-0.2716284990310669,0.5701059103012085
1733461189564969700,7.6709697265625,-1.2917613983154297,-0.4947429895401001,1.0030606985092163
1733461189574979300,7.680979248046875,-1.0957717895507812,-0.7035530805587769,1.39723801612854
1733461189584958700,7.690958740234375,-1.0623111724853516,-0.8965086936950684,1.6099001169204712
1733461189594968300,7.70096826171875,-0.9935083389282227,-0.9427682161331177,1.6480178833007812
1733461189604978200,7.710978271484375,-0.9884872436523438,-0.8739222884178162,1.4418723583221436
1733461189614957600,7.72095751953125,-0.8959484100341797,-0.6810556650161743,1.183812141418457
1733461189624967200,7.73096728515625,-0.8427152633666992,-0.5565881729125977,1.1318122148513794
1733461189634977000,7.74097705078125,-0.8213424682617188,-0.43706321716308594,1.2647539377212524
1733461189644956400,7.750956298828125,-0.8863601684570312,-0.38889265060424805,1.3355739116668701
1733461189654966000,7.760966064453125,-1.1259279251098633,-0.26516222953796387,1.4916883707046509
1733461189664976000,7.770975830078125,-1.384202003479004,-0.18862152099609375,1.5233001708984375
1733461189674985500,7.7809853515625,-1.6444687843322754,-0.07001292705535889,1.167542576789856
1733461189684964900,7.79096484375,-1.7384366989135742,-0.043118834495544434,0.804669976234436
1733461189694974500,7.800974365234375,-1.7478857040405273,-0.10249888896942139,0.43378710746765137
1733461189704984300,7.810984375,-1.5316181182861328,-0.1898794174194336,0.20184022188186646
1733461189714963500,7.82096337890625,-1.2910642623901367,-0.3566659688949585,0.14863312244415283
1733461189724973300,7.830973388671875,-0.9401741027832031,-0.5881778001785278,0.27329641580581665
1733461189734983200,7.840983154296875,-0.7210817337036133,-0.7479082942008972,0.4627244472503662
1733461189744962600,7.850962646484375,-0.3753824234008789,-0.5822974443435669,0.7245252132415771
1733461189754972200,7.86097216796875,-0.2006511688232422,-0.2581467628479004,0.7663717865943909
1733461189764982000,7.87098193359375,-0.2255687713623047,0.13885152339935303,0.794203519821167
1733461189774961200,7.880961181640625,-0.4411640167236328,0.44628238677978516,0.7054123282432556
1733461189784971000,7.890970947265625,-0.6220808029174805,0.7866835594177246,0.49755212664604187
1733461189794980600,7.900980712890625,-0.5690412521362305,1.0079020261764526,0.43415820598602295
1733461189804959700,7.910959716796875,-0.28773021697998047,1.0563334226608276,0.2774133086204529
1733461189814969600,7.920969482421875,0.1093301773071289,0.9538017511367798,0.3814929127693176
1733461189824979500,7.9309794921875,0.47698020935058594,0.6767832040786743,0.36137741804122925
1733461189834958600,7.94095849609375,0.8164882659912109,0.3527311086654663,0.7583557367324829
1733461189844968400,7.950968505859375,1.0310068130493164,-0.05290567874908447,1.3217289447784424
1733461189854978300,7.960978271484375,1.3185148239135742,-0.4253584146499634,2.1751368045806885
1733461189864957700,7.970957763671875,1.6341180801391602,-0.6248428821563721,2.7926089763641357
1733461189874967300,7.98096728515625,1.9799633026123047,-0.9304078817367554,3.2913835048675537
1733461189884977200,7.99097705078125,2.22701358795166,-0.9377697706222534,3.340620517730713
1733461189894956300,8.000956298828125,2.1624202728271484,-0.808034360408783,2.814551830291748
1733461189904966000,8.0109658203125,1.9532594680786133,-0.5326483249664307,2.3570950031280518
1733461189914975700,8.020975830078125,1.7431821823120117,-0.31077253818511963,1.975961446762085
1733461189924985600,8.030985595703125,1.893986701965332,-0.30533063411712646,1.8381094932556152
1733461189934964700,8.04096484375,2.3342714309692383,-0.5447320938110352,1.5341782569885254
1733461189944974600,8.050974609375,2.913846015930176,-1.007293701171875,0.9974836111068726
1733461189954984400,8.060984375,3.4151840209960938,-1.5172992944717407,0.42507755756378174
1733461189964963600,8.070963623046875,4.0062971115112305,-2.1970391273498535,0.004821717739105225
1733461189974973400,8.080973388671875,4.760072708129883,-2.744297504425049,-0.044113993644714355
1733461189984983000,8.090983154296875,5.855930328369141,-3.161893844604492,0.2671142816543579
1733461189994962200,8.100962158203124,6.738458633422852,-3.3048789501190186,0.8509237766265869
1733461190004972000,8.110971923828124,6.992596626281738,-3.248666763305664,1.2613768577575684
1733461190014982000,8.12098193359375,5.87242317199707,-2.9117088317871094,0.9958173632621765
1733461190024961000,8.1309609375,3.570378303527832,-2.2210774421691895,0.3013119101524353
1733461190034971000,8.140970947265625,0.87579345703125,-1.700249433517456,-0.1616201400756836
1733461190044980700,8.150980712890625,-1.870255470275879,-0.9409430623054504,-0.6458736658096313
1733461190054959900,8.1609599609375,-4.096663475036621,-0.07951509952545166,-1.3868001699447632
1733461190064969700,8.1709697265625,-5.276230335235596,0.37790369987487793,-1.732057809829712
1733461190074979600,8.1809794921875,-5.723505973815918,0.5055713653564453,-1.5302379131317139
1733461190084958500,8.19095849609375,-5.487742900848389,0.08898007869720459,-0.986325204372406
1733461190094968300,8.20096826171875,-4.447824001312256,-0.5203286409378052,-0.19211947917938232
1733461190104978200,8.210978271484375,-3.2532219886779785,-1.0510340929031372,0.36562907695770264
1733461190114957600,8.22095751953125,-2.137000560760498,-1.7482032775878906,1.2135560512542725
1733461190124967200,8.23096728515625,-1.4151544570922852,-2.223435640335083,2.0053577423095703
1733461190134977000,8.24097705078125,-0.8016147613525391,-2.613598585128784,2.6461057662963867
1733461190144956400,8.250956298828125,-0.33937835693359375,-2.8294973373413086,2.920720100402832
1733461190154966000,8.260966064453125,0.16383838653564453,-2.959459066390991,2.8543899059295654
1733461190164975600,8.2709755859375,0.5584564208984375,-2.911271572113037,2.603760242462158
1733461190174985500,8.2809853515625,0.7899818420410156,-2.7841715812683105,2.390259027481079
1733461190184964900,8.29096484375,0.8877325057983398,-2.5087122917175293,2.153186559677124
1733461190194974500,8.300974365234374,0.8032770156860352,-2.133570671081543,1.8739185333251953
1733461190204984300,8.310984375,0.4615507125854492,-1.5855814218521118,1.3986068964004517
1733461190214963500,8.32096337890625,0.0012121200561523438,-1.0833375453948975,0.9067607522010803
1733461190224973300,8.330973388671875,-0.5898580551147461,-0.5560810565948486,0.3241276741027832
1733461190234983200,8.340983154296875,-1.0916833877563477,-0.13649821281433105,0.00489652156829834
1733461190244962300,8.35096240234375,-1.5084218978881836,0.2629760503768921,-0.295090913772583
1733461190254972200,8.36097216796875,-1.7819480895996094,0.4858015775680542,-0.5339457988739014
1733461190264982000,8.37098193359375,-1.9691429138183594,0.7173190116882324,-0.6099756956100464
1733461190274961200,8.380961181640625,-2.09163761138916,0.819927453994751,-0.5220797061920166
1733461190284971000,8.390970947265625,-2.1372275352478027,0.8126353025436401,-0.4740925431251526
1733461190294980600,8.400980712890625,-2.189537525177002,0.7452820539474487,-0.28307807445526123
1733461190304960000,8.4109599609375,-2.2991185188293457,0.5610461235046387,-0.12555253505706787
1733461190314969600,8.420969482421874,-2.2652792930603027,0.49795210361480713,0.20656651258468628
1733461190324979500,8.4309794921875,-2.237098217010498,0.3807713985443115,0.5616182088851929
1733461190334958800,8.440958740234375,-2.1525139808654785,0.3703138828277588,0.9384085536003113
1733461190344968400,8.450968505859375,-2.1793036460876465,0.36943328380584717,1.0444141626358032
1733461190354978300,8.460978271484375,-2.2639870643615723,0.3542141914367676,1.0537042617797852
1733461190364957700,8.470957763671874,-2.2434239387512207,0.33636391162872314,1.0743041038513184
1733461190374967300,8.48096728515625,-1.7726373672485352,0.3294792175292969,1.1438868045806885
1733461190384977200,8.49097705078125,-0.942133903503418,0.32216453552246094,1.2267001867294312
1733461190394956300,8.500956298828125,-0.03855705261230469,0.32738590240478516,1.4842991828918457
1733461190404966000,8.5109658203125,0.8978376388549805,0.3444880247116089,1.7264916896820068
1733461190414975700,8.520975830078125,1.4557924270629883,0.4291203022003174,2.016136646270752
1733461190424985600,8.530985595703125,1.6530866622924805,0.5180538892745972,2.117694616317749
1733461190434964700,8.54096484375,1.475520133972168,0.6213396787643433,1.9524028301239014
1733461190444974600,8.550974609375,1.2274932861328125,0.8470189571380615,1.7572486400604248
1733461190454984400,8.560984375,1.0402536392211914,1.0050143003463745,1.6288411617279053
1733461190464963600,8.570963623046875,0.9857254028320312,1.1715366840362549,1.5674972534179688
1733461190474973400,8.580973388671875,1.1004610061645508,1.3237552642822266,1.308761715888977
1733461190484983000,8.590983154296875,1.166738510131836,1.4387178421020508,1.158822774887085
1733461190494962400,8.60096240234375,1.1370363235473633,1.3634531497955322,1.1087262630462646
1733461190504972000,8.610971923828124,0.9854249954223633,1.101272702217102,1.2440717220306396
1733461190514982000,8.62098193359375,1.0425825119018555,0.7702257633209229,1.4580155611038208
1733461190524961300,8.630961181640625,1.335280418395996,0.32701027393341064,1.7233456373214722
1733461190534971000,8.640970947265625,1.9502191543579102,-0.15997743606567383,1.8447715044021606
1733461190544980700,8.650980712890625,2.6986923217773438,-0.39384323358535767,1.62407386302948
1733461190554960100,8.660960205078124,3.6383285522460938,-0.4081968069076538,1.3671677112579346
1733461190564969700,8.6709697265625,4.404892921447754,-0.15583956241607666,1.1999181509017944
1733461190574979300,8.680979248046874,5.085457801818848,0.21035170555114746,0.484691858291626
1733461190584958700,8.690958740234375,5.4350786209106445,0.3035581111907959,-0.562166690826416
1733461190594968300,8.70096826171875,5.829673767089844,0.10601115226745605,-1.8352460861206055
1733461190604978200,8.710978271484375,6.458910942077637,-0.5346181988716125,-2.8910486698150635
1733461190614957600,8.72095751953125,7.13906192779541,-1.2637827396392822,-2.9270787239074707
1733461190624967200,8.73096728515625,7.697497367858887,-2.2422900199890137,-1.9642990827560425
1733461190634977000,8.74097705078125,7.684467315673828,-3.0936858654022217,-0.9372295141220093
1733461190644956400,8.750956298828125,6.8529253005981445,-3.955819606781006,0.015479326248168945
1733461190654966000,8.760966064453125,5.3641815185546875,-4.485974311828613,0.45100104808807373
1733461190664976000,8.770975830078125,2.940509796142578,-4.622008323669434,0.17889928817749023
1733461190674985500,8.7809853515625,0.5584783554077148,-4.435647487640381,-0.39555299282073975
1733461190684964900,8.79096484375,-2.104430675506592,-4.031251907348633,-1.1952959299087524
1733461190694974500,8.800974365234374,-4.1577653884887695,-3.3916754722595215,-2.026494026184082
1733461190704984300,8.810984375,-5.824599266052246,-2.485812187194824,-2.6701436042785645
1733461190714963500,8.82096337890625,-6.646259784698486,-1.6237915754318237,-2.9570348262786865
1733461190724973300,8.830973388671875,-6.788259506225586,-0.9912765622138977,-2.9226675033569336
1733461190734983200,8.840983154296875,-6.251289367675781,-0.4637943506240845,-2.530423641204834
1733461190744962600,8.850962646484374,-5.448758125305176,-0.2100980281829834,-1.9983326196670532
1733461190754972200,8.86097216796875,-4.574914932250977,0.04114794731140137,-1.5942637920379639
1733461190764982000,8.87098193359375,-3.9865455627441406,0.14537131786346436,-1.3694349527359009
1733461190774961200,8.880961181640625,-3.4904513359069824,-0.02065896987915039,-0.9606777429580688
1733461190784971000,8.890970947265625,-2.978808879852295,-0.26470136642456055,-0.4002705216407776
1733461190794980600,8.900980712890625,-2.352365016937256,-0.5103323459625244,-0.015245556831359863
1733461190804959700,8.910959716796874,-1.860985279083252,-0.6075872182846069,0.11125093698501587
1733461190814969600,8.920969482421874,-1.383744239807129,-0.6608074903488159,0.2972485423088074
1733461190824979500,8.9309794921875,-0.9792547225952148,-0.6596983671188354,0.2967234253883362
1733461190834958600,8.94095849609375,-0.657963752746582,-0.5844476222991943,0.33362096548080444
1733461190844968400,8.950968505859375,-0.4704570770263672,-0.5749017000198364,0.3732339143753052
1733461190854978300,8.960978271484375,-0.6186370849609375,-0.5501803159713745,0.390018105506897
1733461190864957700,8.970957763671874,-1.0115642547607422,-0.4873720407485962,0.5010161995887756
1733461190874967300,8.98096728515625,-1.4183835983276367,-0.46666622161865234,0.5473698377609253
1733461190884977200,8.99097705078125,-1.7114996910095215,-0.532727837562561,0.7257141470909119
1733461190894956300,9.000956298828125,-1.8286962509155273,-0.6683412194252014,0.8396891355514526
1733461190904966000,9.0109658203125,-1.7152705192565918,-0.7750248908996582,0.953264594078064
1733461190914975700,9.020975830078125,-1.522618293762207,-0.8460907936096191,1.1483198404312134
1733461190924985600,9.030985595703125,-1.1215934753417969,-0.9472709894180298,1.3471707105636597
1733461190934964700,9.04096484375,-0.7777214050292969,-0.9496446847915649,1.332182765007019
1733461190944974600,9.050974609375,-0.612757682800293,-0.9036253094673157,1.3279674053192139
1733461190954984400,9.060984375,-0.6839723587036133,-0.9597586393356323,1.3090128898620605
1733461190964963600,9.070963623046875,-0.9743785858154297,-1.0022368431091309,1.1819005012512207
1733461190974973400,9.080973388671875,-1.2925214767456055,-0.9080806374549866,1.1030598878860474
1733461190984983000,9.090983154296875,-1.531102180480957,-0.822917103767395,0.9818055629730225
1733461190994962200,9.100962158203124,-1.5566492080688477,-0.6188912391662598,0.9060932993888855
1733461191004972000,9.110971923828124,-1.2886734008789062,-0.2964287996292114,0.6822487115859985
1733461191014982000,9.12098193359375,-0.7509784698486328,0.21991515159606934,0.3382510542869568
1733461191024961000,9.1309609375,-0.3024749755859375,0.5580751895904541,0.12352263927459717
1733461191034971000,9.140970947265625,0.104888916015625,0.9193522930145264,-0.17538684606552124
1733461191044980700,9.150980712890625,0.518977165222168,1.2513046264648438,-0.3740798234939575
1733461191054959900,9.1609599609375,0.7772893905639648,1.400984287261963,-0.5830104351043701
1733461191064969700,9.1709697265625,1.0241661071777344,1.5756089687347412,-0.6733614802360535
1733461191074979600,9.1809794921875,1.4423866271972656,1.2406736612319946,-0.6059905886650085
1733461191084958500,9.19095849609375,2.0436153411865234,0.8908932209014893,-0.3215022087097168
1733461191094968300,9.20096826171875,2.6004486083984375,0.5993040800094604,0.05659282207489014
1733461191104978200,9.210978271484375,3.1043033599853516,0.400681734085083,0.47027403116226196
1733461191114957600,9.22095751953125,3.400437355041504,0.2771855592727661,0.7188798189163208
1733461191124967200,9.23096728515625,3.558269500732422,0.3373682498931885,0.9022189378738403
1733461191134977000,9.24097705078125,3.5729217529296875,0.6407278776168823,0.7554856538772583
1733461191144956400,9.250956298828125,3.272677421569824,1.1522808074951172,0.21096092462539673
1733461191154966000,9.260966064453125,2.725985527038574,1.4662631750106812,-0.32566845417022705
1733461191164975600,9.2709755859375,2.3401565551757812,1.497602939605713,-0.3730894923210144
1733461191174985500,9.2809853515625,2.1364974975585938,1.0579854249954224,0.11311858892440796
1733461191184964900,9.29096484375,2.2488956451416016,0.4640674591064453,0.7209464311599731
1733461191194974500,9.300974365234374,2.504894256591797,-0.40486884117126465,1.2210654020309448
1733461191204984300,9.310984375,2.7968368530273438,-1.3855595588684082,1.348122239112854
1733461191214963500,9.32096337890625,3.2495555877685547,-2.5768070220947266,1.3208056688308716
1733461191224973300,9.330973388671875,3.8928003311157227,-3.4188499450683594,1.179563045501709
1733461191234983200,9.340983154296875,4.589901924133301,-4.0670390129089355,0.9558672904968262
1733461191244962300,9.35096240234375,4.857156753540039,-4.383078098297119,0.6402422189712524
1733461191254972200,9.36097216796875,4.531659126281738,-4.4544758796691895,0.27278846502304077
1733461191264982000,9.37098193359375,3.557868003845215,-4.261915683746338,0.07339024543762207
1733461191274961200,9.380961181640625,2.368342399597168,-3.83176589012146,-0.26587557792663574
1733461191284971000,9.390970947265625,0.8692131042480469,-3.497230052947998,-0.5465401411056519
1733461191294980600,9.400980712890625,-0.4347219467163086,-3.3486826419830322,-0.8964023590087891
1733461191304960000,9.4109599609375,-1.747880458831787,-3.359853744506836,-1.2727339267730713
1733461191314969600,9.420969482421874,-2.6887803077697754,-3.338413715362549,-1.4426448345184326
1733461191324979500,9.4309794921875,-3.5086236000061035,-3.3067376613616943,-1.3466098308563232
1733461191334958800,9.440958740234375,-4.059281349182129,-3.3519492149353027,-0.9219977855682373
1733461191344968400,9.450968505859375,-4.537939548492432,-3.478126049041748,-0.11799490451812744
1733461191354978300,9.460978271484375,-4.694169998168945,-3.565159320831299,0.8480510711669922
1733461191364957700,9.470957763671874,-4.290024280548096,-3.4286553859710693,1.633504033088684
1733461191374967300,9.48096728515625,-3.4466543197631836,-2.9286341667175293,1.5511813163757324
1733461191384977200,9.49097705078125,-2.682349681854248,-2.4891324043273926,1.1645770072937012
1733461191394956300,9.500956298828125,-1.8890395164489746,-1.9065160751342773,0.46057161688804626
1733461191404966000,9.5109658203125,-1.3096122741699219,-1.3346879482269287,-0.29836446046829224
1733461191414975700,9.520975830078125,-0.6410713195800781,-0.697144627571106,-1.0292847156524658
1733461191424985600,9.530985595703125,-0.06342697143554688,-0.20941710472106934,-1.3039495944976807
1733461191434964700,9.54096484375,0.3745536804199219,-0.013283729553222656,-1.4288419485092163
1733461191444974600,9.550974609375,0.503636360168457,0.033139705657958984,-1.1480064392089844
1733461191454984400,9.560984375,0.1551504135131836,-0.10585618019104004,-0.594858705997467
1733461191464963600,9.570963623046875,-0.4677600860595703,-0.2268606424331665,-0.08396834135055542
1733461191474973400,9.580973388671875,-1.0907649993896484,-0.2325650453567505,0.16612446308135986
1733461191484983000,9.590983154296875,-1.325002670288086,-0.27146899700164795,0.1894041895866394
1733461191494962400,9.60096240234375,-1.1693859100341797,-0.3007389307022095,0.13724106550216675
1733461191504972000,9.610971923828124,-0.730006217956543,-0.33401501178741455,-0.09159475564956665
1733461191514982000,9.62098193359375,-0.32601261138916016,-0.31942498683929443,-0.02994757890701294
1733461191524961300,9.630961181640625,-0.061537742614746094,-0.3905465602874756,0.12769943475723267
1733461191534971000,9.640970947265625,-0.18020915985107422,-0.49345433712005615,0.3889443278312683
1733461191544980700,9.650980712890625,-0.6263837814331055,-0.5327364206314087,0.6842609643936157
1733461191554960100,9.660960205078124,-1.1247539520263672,-0.5539034605026245,1.056173324584961
1733461191564969700,9.6709697265625,-1.8263192176818848,-0.6169004440307617,1.2640243768692017
1733461191574979300,9.680979248046874,-2.3892970085144043,-0.6724538803100586,1.4396276473999023
1733461191584958700,9.690958740234375,-2.690242290496826,-0.7246705293655396,1.7044402360916138
1733461191594968300,9.70096826171875,-2.3143668174743652,-0.8137447834014893,1.9131255149841309
1733461191604978200,9.710978271484375,-1.4780559539794922,-0.7929913997650146,1.9776039123535156
1733461191614957600,9.72095751953125,-0.3070554733276367,-0.7799422740936279,1.9412333965301514
1733461191624967200,9.73096728515625,0.5845603942871094,-0.725651741027832,2.0817325115203857
1733461191634977000,9.74097705078125,0.9532489776611328,-0.6500561237335205,1.9793187379837036
1733461191644956400,9.750956298828125,0.9025535583496094,-0.48209989070892334,1.9572367668151855
1733461191654966000,9.760966064453125,0.7086687088012695,-0.06519150733947754,1.736879587173462
1733461191664976000,9.770975830078125,0.4373025894165039,0.25924909114837646,1.5555707216262817
1733461191674985500,9.7809853515625,0.3098125457763672,0.6084387302398682,1.4176526069641113
1733461191684964900,9.79096484375,0.20128631591796875,0.828953742980957,1.2182331085205078
1733461191694974500,9.800974365234374,0.06846046447753906,1.0341646671295166,1.2110062837600708
1733461191704984300,9.810984375,-0.17943572998046875,1.1899166107177734,1.0663505792617798
1733461191714963500,9.82096337890625,-0.3363208770751953,1.360622763633728,0.9723823070526123
1733461191724973300,9.830973388671875,-0.4739046096801758,1.460803747177124,0.8961423635482788
1733461191734983200,9.840983154296875,-0.450927734375,1.429962158203125,0.8588864803314209
1733461191744962600,9.850962646484374,-0.40400123596191406,1.3237688541412354,0.9132677912712097
1733461191754972200,9.86097216796875,-0.22644805908203125,0.620060920715332,0.647671639919281
1733461191764982000,9.87098193359375,0.10350322723388672,0.06265783309936523,0.6938316822052002
1733461191774961400,9.88096142578125,0.4877328872680664,-0.3924870491027832,0.8252159953117371
1733461191784971000,9.890970947265625,0.9846744537353516,-0.7613334655761719,0.9279500246047974
1733461191794980600,9.900980712890625,1.4660329818725586,-0.9123063087463379,0.9705750346183777
1733461191804959700,9.910959716796874,2.024144172668457,-0.9764631986618042,1.0428810119628906
1733461191814969600,9.920969482421874,2.5963897705078125,-1.0057915449142456,1.2249317169189453
1733461191824979500,9.9309794921875,3.183107376098633,-0.9481755495071411,1.2234771251678467
1733461191834958600,9.94095849609375,3.805996894836426,-0.6940208673477173,1.0336644649505615
1733461191844968400,9.950968505859375,4.2667131423950195,-0.5035362243652344,0.756658136844635
1733461191854978300,9.960978271484375,4.5872039794921875,-0.2675197124481201,0.25105005502700806
1733461191864957700,9.970957763671874,4.5979413986206055,-0.1496105194091797,-0.5236381888389587
1733461191874967300,9.98096728515625,4.559861183166504,-0.18321633338928223,-1.2302451133728027
1733461191884977200,9.99097705078125,4.578202247619629,-0.5135171413421631,-1.8399736881256104
1733461191894956300,10.000956298828125,4.711758613586426,-1.2417902946472168,-2.4157538414001465
1733461191904966000,10.0109658203125,4.783329963684082,-2.2625415325164795,-2.5343406200408936
1733461191914975700,10.020975830078125,4.5971574783325195,-3.716642141342163,-2.0523698329925537
1733461191924985600,10.030985595703125,4.161248207092285,-5.247544288635254,-1.1959456205368042
1733461191934964700,10.04096484375,3.4643373489379883,-6.57994270324707,0.19448566436767578
1733461191944974600,10.050974609375,2.279635429382324,-7.74256706237793,1.834010124206543
1733461191954984400,10.060984375,0.8584861755371094,-8.188200950622559,2.685664653778076
1733461191964963600,10.070963623046875,-0.930882453918457,-7.953692436218262,2.553516149520874
1733461191974973400,10.080973388671875,-2.357670307159424,-7.105310916900635,1.1558837890625
1733461191984983000,10.090983154296875,-2.723924160003662,-5.503964900970459,-1.2733646631240845
1733461191994962200,10.100962158203124,-2.248873233795166,-4.143894195556641,-3.5853028297424316
1733461192004972000,10.110971923828124,-1.2996845245361328,-2.9243812561035156,-5.4656758308410645
1733461192014982000,10.12098193359375,-0.3561563491821289,-1.9433921575546265,-6.592432975769043
1733461192024961000,10.1309609375,0.2967805862426758,-0.941146969795227,-7.556617736816406
1733461192034971000,10.140970947265625,0.671574592590332,0.012269735336303711,-7.780697822570801
1733461192044980700,10.150980712890625,0.8133707046508789,0.7380731105804443,-7.548245906829834
1733461192054959900,10.1609599609375,0.6056327819824219,1.139786720275879,-6.767498016357422
1733461192064969700,10.1709697265625,0.16622447967529297,1.0759973526000977,-5.679142951965332
1733461192074979600,10.1809794921875,-0.41878700256347656,0.8261876106262207,-4.443877696990967
1733461192084958500,10.19095849609375,-0.8605356216430664,0.43180036544799805,-3.469785690307617
1733461192094968300,10.20096826171875,-1.0094871520996094,-0.1112973690032959,-2.4155640602111816
1733461192104978200,10.210978271484375,-0.9392242431640625,-0.7002395391464233,-1.5365352630615234
1733461192114957600,10.22095751953125,-0.6740093231201172,-1.3176138401031494,-0.8547379970550537
1733461192124967200,10.23096728515625,-0.4197998046875,-1.801314115524292,-0.5666406154632568
1733461192134977000,10.24097705078125,-0.16894912719726562,-2.2327191829681396,-0.339615136384964
1733461192144956400,10.250956298828125,-0.00018310546875,-2.5638790130615234,-0.11192205548286438
1733461192154966000,10.260966064453125,0.06294727325439453,-2.7834432125091553,0.04772627353668213
1733461192164975900,10.270975830078125,-0.009737014770507812,-2.9387972354888916,0.1984005868434906
1733461192174985500,10.2809853515625,-0.2710285186767578,-3.0394492149353027,0.27529585361480713
1733461192184964900,10.29096484375,-0.6827163696289062,-2.9950435161590576,0.2384907305240631
1733461192194974500,10.300974365234374,-1.1607494354248047,-2.8854236602783203,0.20277690887451172
1733461192204984300,10.310984375,-1.7341251373291016,-2.7254233360290527,-0.0718555748462677
1733461192214963500,10.32096337890625,-2.1365714073181152,-2.4738283157348633,-0.3973589241504669
1733461192224973300,10.330973388671875,-2.4434337615966797,-2.284116268157959,-0.6137927174568176
1733461192234983200,10.340983154296875,-2.604963779449463,-2.247851610183716,-0.700808584690094
1733461192244962300,10.35096240234375,-2.674314022064209,-2.235013008117676,-0.6709097623825073
1733461192254972200,10.36097216796875,-2.599766731262207,-2.27018141746521,-0.48470765352249146
1733461192264982000,10.37098193359375,-2.459681987762451,-2.320744514465332,-0.2955400049686432
1733461192274961200,10.380961181640625,-2.2347769737243652,-2.2782111167907715,-0.2200797200202942
1733461192284971000,10.390970947265625,-1.9942622184753418,-2.1586031913757324,-0.339990496635437
1733461192294980600,10.400980712890625,-1.646897792816162,-1.8623085021972656,-0.7392860054969788
1733461192304960000,10.4109599609375,-1.3434019088745117,-1.6096322536468506,-1.229795217514038
1733461192314969600,10.420969482421874,-0.9829807281494141,-1.345104455947876,-1.568581223487854
1733461192324979500,10.4309794921875,-0.6514253616333008,-1.1305696964263916,-1.7522451877593994
1733461192334958800,10.440958740234375,-0.3197135925292969,-0.8585240840911865,-2.106992483139038
1733461192344968400,10.450968505859375,-0.12410354614257812,-0.689603328704834,-2.252195358276367
1733461192354978300,10.460978271484375,-0.0929861068725586,-0.5596556663513184,-2.3469882011413574
1733461192364957700,10.470957763671874,-0.2142162322998047,-0.49278688430786133,-2.2958765029907227
1733461192374967300,10.48096728515625,-0.43048667907714844,-0.4406423568725586,-2.1754817962646484
1733461192384977200,10.49097705078125,-0.6082315444946289,-0.44997191429138184,-2.116889715194702
1733461192394956300,10.500956298828125,-0.5567808151245117,-0.403550386428833,-2.162015914916992
1733461192404966000,10.5109658203125,-0.22920703887939453,-0.35715556144714355,-2.090481996536255
1733461192414975700,10.520975830078125,0.34520530700683594,-0.3335685729980469,-2.028229236602783
1733461192424985600,10.530985595703125,1.1379203796386719,-0.18036246299743652,-1.7111667394638062
1733461192434964700,10.54096484375,1.7212800979614258,-0.09898185729980469,-1.5139966011047363
1733461192444974600,10.550974609375,1.9751901626586914,-0.013859987258911133,-1.2207980155944824
1733461192454984400,10.560984375,1.824570655822754,0.21863746643066406,-0.744938850402832
1733461192464963600,10.570963623046875,1.3678979873657227,0.38060879707336426,-0.5955048203468323
1733461192474973400,10.580973388671875,0.7565040588378906,0.39542698860168457,-0.5087735056877136
1733461192484983000,10.590983154296875,0.16645240783691406,0.32592034339904785,-0.720288097858429
1733461192494962400,10.60096240234375,-0.39036083221435547,-0.0042383670806884766,-1.1059635877609253
1733461192504972000,10.610971923828124,-1.0389156341552734,-0.5328390598297119,-1.092115879058838
1733461192514982000,10.62098193359375,-1.8193755149841309,-1.4642021656036377,-0.11033691465854645
1733461192524961300,10.630961181640625,-2.437373161315918,-2.7269785404205322,1.411538004875183
1733461192534971000,10.640970947265625,-2.3086090087890625,-4.1866455078125,3.9115397930145264
1733461192544980700,10.650980712890625,-1.3467321395874023,-5.337019920349121,6.030731678009033
1733461192554960100,10.660960205078124,0.25208377838134766,-6.625638961791992,7.215696811676025
1733461192564969700,10.6709697265625,1.519333839416504,-6.722066879272461,7.029994010925293
1733461192574979300,10.680979248046874,1.6987800598144531,-6.356720924377441,5.507557392120361
1733461192584958700,10.690958740234375,0.4245634078979492,-5.586904048919678,3.5885000228881836
1733461192594968300,10.70096826171875,-2.2608790397644043,-4.212155818939209,1.5403671264648438
1733461192604978200,10.710978271484375,-4.899590015411377,-2.9822371006011963,-1.3942265510559082
1733461192614957600,10.72095751953125,-6.296925067901611,-2.0987420082092285,-3.378819227218628
1733461192624967200,10.73096728515625,-5.776334762573242,-1.7504594326019287,-4.099305629730225
1733461192634977000,10.74097705078125,-2.887390613555908,-2.4726076126098633,-3.1954879760742188
1733461192644956400,10.750956298828125,1.964402198791504,-4.168377876281738,-1.9160656929016113
1733461192654966000,10.760966064453125,6.138822555541992,-5.503575325012207,-0.7049214839935303
1733461192664976000,10.770975830078125,9.72259521484375,-6.905394554138184,0.8428265452384949
1733461192674985500,10.7809853515625,11.910258293151855,-7.936509132385254,2.9478185176849365
1733461192684964900,10.79096484375,13.412235260009766,-8.602034568786621,4.9197773933410645
1733461192694974500,10.800974365234374,14.231667518615723,-8.752510070800781,6.333702087402344
1733461192704984300,10.810984375,13.926233291625977,-8.333396911621094,6.74129581451416
1733461192714963500,10.82096337890625,11.977916717529297,-6.9991536140441895,5.236288547515869
1733461192724973300,10.830973388671875,9.256685256958008,-5.966485977172852,3.4454381465911865
1733461192734983200,10.840983154296875,6.262418746948242,-4.583627700805664,1.0095021724700928
1733461192744962600,10.850962646484374,4.341192245483398,-3.2932722568511963,-0.9156526327133179
1733461192754972200,10.86097216796875,2.7540903091430664,-2.1370251178741455,-2.119418144226074
1733461192764982000,10.87098193359375,1.6894283294677734,-1.5150954723358154,-2.255913257598877
1733461192774961400,10.88096142578125,0.37597084045410156,-1.1806901693344116,-1.881784200668335
1733461192784971000,10.890970947265625,-0.8428745269775391,-1.0990879535675049,-1.6121838092803955
1733461192794980600,10.900980712890625,-2.2275495529174805,-1.1325156688690186,-1.3928422927856445
1733461192804959700,10.910959716796874,-3.1708755493164062,-1.074137806892395,-1.2744786739349365
1733461192814969600,10.920969482421874,-3.6791515350341797,-1.2088462114334106,-1.1308317184448242
1733461192824979500,10.9309794921875,-3.471756935119629,-1.5734411478042603,-1.1154541969299316
1733461192834958600,10.94095849609375,-3.0436763763427734,-1.8152270317077637,-1.5213279724121094
1733461192844968400,10.950968505859375,-2.322854995727539,-1.7614567279815674,-1.6837968826293945
1733461192854978300,10.960978271484375,-1.8266992568969727,-1.8420329093933105,-1.5037293434143066
1733461192864957700,10.970957763671874,-1.289444923400879,-2.093641996383667,-1.4787464141845703
1733461192874967300,10.98096728515625,-0.7075300216674805,-2.2553648948669434,-1.2020559310913086
1733461192884977200,10.99097705078125,-0.6009025573730469,-2.5768980979919434,-0.722744345664978
1733461192894956300,11.000956298828125,-0.7027912139892578,-2.7162837982177734,-0.22438451647758484
1733461192904966000,11.0109658203125,-0.6035699844360352,-2.903012275695801,0.09779737889766693
1733461192914975700,11.020975830078125,-0.30931758880615234,-3.0932137966156006,-0.05340176820755005
1733461192924985600,11.030985595703125,0.16249465942382812,-3.052154779434204,-0.30314213037490845
1733461192934964700,11.04096484375,0.4896707534790039,-2.8184664249420166,-0.7550598382949829
1733461192944974600,11.050974609375,0.4969320297241211,-2.608638048171997,-1.0255191326141357
1733461192954984400,11.060984375,0.11923027038574219,-2.4256951808929443,-1.3448288440704346
1733461192964963600,11.070963623046875,-0.27600765228271484,-2.357783079147339,-1.5196869373321533
1733461192974973400,11.080973388671875,-0.5592384338378906,-2.2498605251312256,-1.807332992553711
1733461192984983000,11.090983154296875,-0.6153144836425781,-2.2273125648498535,-1.9971064329147339
1733461192994962200,11.100962158203124,-0.38025760650634766,-2.2662272453308105,-2.0041866302490234
1733461193004972000,11.110971923828124,0.12650585174560547,-2.3975720405578613,-1.7294681072235107
1733461193014982000,11.12098193359375,0.986079216003418,-2.8263299465179443,-1.063337802886963
1733461193024961000,11.1309609375,1.5386638641357422,-3.176943778991699,-0.4021569490432739
1733461193034971000,11.140970947265625,1.740981101989746,-3.1816086769104004,-0.25101804733276367
1733461193044980700,11.150980712890625,1.465362548828125,-2.858328342437744,-0.5233136415481567
1733461193054959900,11.1609599609375,0.8598089218139648,-2.305000066757202,-1.0219933986663818
1733461193064969700,11.1709697265625,0.137176513671875,-1.7916903495788574,-1.2308908700942993
1733461193074979600,11.1809794921875,-0.2234048843383789,-1.4708329439163208,-1.2871547937393188
1733461193084958700,11.190958740234375,-0.13883399963378906,-1.1029448509216309,-1.2736222743988037
1733461193094968300,11.20096826171875,0.13162708282470703,-0.9463291168212891,-1.2961630821228027
1733461193104978200,11.210978271484375,0.29393863677978516,-1.0188324451446533,-1.2128698825836182
1733461193114957600,11.22095751953125,0.2663278579711914,-1.1044888496398926,-1.1167314052581787
1733461193124967200,11.23096728515625,0.028438568115234375,-1.122992992401123,-1.2168033123016357
1733461193134977000,11.24097705078125,-0.2822227478027344,-1.3303210735321045,-1.0161985158920288
1733461193144956400,11.250956298828125,-0.4879589080810547,-1.724861979484558,-0.5661015510559082
1733461193154966000,11.260966064453125,-0.36485862731933594,-2.189763069152832,-0.13953495025634766
1733461193164975900,11.270975830078125,-0.1836986541748047,-2.4496636390686035,0.12523317337036133
1733461193174985500,11.2809853515625,-0.12877368927001953,-2.602252960205078,0.23489362001419067
1733461193184964900,11.29096484375,-0.29315853118896484,-2.528902053833008,0.188326895236969
1733461193194974700,11.300974609375,-0.5092315673828125,-2.3306119441986084,0.12449705600738525
1733461193204984300,11.310984375,-0.7351551055908203,-2.0759799480438232,0.1065974235534668
1733461193214963500,11.32096337890625,-0.9263648986816406,-1.7890690565109253,0.04473614692687988
1733461193224973300,11.330973388671875,-1.036759376525879,-1.5447670221328735,0.05816829204559326
1733461193234983200,11.340983154296875,-1.0582151412963867,-1.2706815004348755,0.05423048138618469
1733461193244962300,11.35096240234375,-1.1120529174804688,-1.049917221069336,0.017598211765289307
1733461193254972200,11.36097216796875,-1.1259241104125977,-0.9152975082397461,-0.048594385385513306
1733461193264982000,11.37098193359375,-1.0471696853637695,-0.9029605388641357,-0.12321895360946655
1733461193274961200,11.380961181640625,-0.8255796432495117,-0.9188754558563232,-0.23347440361976624
1733461193284971000,11.390970947265625,-0.5126848220825195,-0.9919757843017578,-0.3004842698574066
1733461193294980600,11.400980712890625,-0.061370849609375,-1.1420676708221436,-0.14975741505622864
1733461193304960000,11.4109599609375,0.4966907501220703,-1.3174841403961182,-0.004090756177902222
1733461193314969600,11.420969482421874,0.7687549591064453,-1.4823211431503296,0.15073516964912415
1733461193324979500,11.4309794921875,0.7791414260864258,-1.5714285373687744,0.21162039041519165
1733461193334958800,11.440958740234375,0.6046571731567383,-1.5693676471710205,0.21472185850143433
1733461193344968400,11.450968505859375,0.32451629638671875,-1.5964983701705933,0.3444235920906067
1733461193354978300,11.460978271484375,0.1445598602294922,-1.496913194656372,0.1937081664800644
1733461193364957700,11.470957763671874,0.07670307159423828,-1.4341764450073242,0.09028840065002441
1733461193374967300,11.48096728515625,0.13285255432128906,-1.388543963432312,0.005668163299560547
1733461193384977200,11.49097705078125,0.2030038833618164,-1.3575562238693237,-0.11874145269393921
1733461193394956300,11.500956298828125,0.32546424865722656,-1.3436647653579712,-0.05811235308647156
1733461193404966000,11.5109658203125,0.5289535522460938,-1.392364740371704,0.024288058280944824
1733461193414975700,11.520975830078125,0.6510992050170898,-0.9303566217422485,0.1686677485704422
1733461193424985600,11.530985595703125,0.943232536315918,-1.0203580856323242,0.2764248847961426
1733461193434964700,11.54096484375,1.324336051940918,-1.128118634223938,0.47480708360671997
1733461193444974600,11.550974609375,1.6679410934448242,-1.164898157119751,0.5440460443496704
1733461193454984400,11.560984375,1.7828178405761719,-1.0680047273635864,0.4695613384246826
1733461193464963600,11.570963623046875,1.5302228927612305,-0.7959710359573364,0.19642333686351776
1733461193474973400,11.580973388671875,1.0128164291381836,-0.4076467752456665,-0.11230912804603577
1733461193484983000,11.590983154296875,0.5373268127441406,-0.1203298568725586,-0.399307519197464
1733461193494962400,11.60096240234375,0.18709468841552734,0.028545141220092773,-0.4355021119117737
1733461193504972000,11.610971923828124,-0.1581583023071289,0.14787697792053223,-0.6715415716171265
1733461193514982000,11.62098193359375,-0.4578218460083008,0.180922269821167,-0.6556040644645691
1733461193524961300,11.630961181640625,-0.7959060668945312,0.10706448554992676,-0.5076545476913452
1733461193534971000,11.640970947265625,-0.9188470840454102,-0.0031516551971435547,-0.3990354835987091
1733461193544980700,11.650980712890625,-0.8962564468383789,-0.23010385036468506,-0.11690583825111389
1733461193554960100,11.660960205078124,-0.6321649551391602,-0.3486599922180176,0.26267069578170776
1733461193564969700,11.6709697265625,-0.2659492492675781,-0.49813222885131836,0.29126259684562683
1733461193574979300,11.680979248046874,-0.01935291290283203,-0.5502938032150269,0.36836424469947815
1733461193584958700,11.690958740234375,-0.0989389419555664,-0.63680100440979,0.3355923593044281
1733461193594968300,11.70096826171875,-0.3240060806274414,-0.6083765029907227,0.3601158857345581
1733461193604978200,11.710978271484375,-0.45188236236572266,-0.6042835712432861,0.33574873208999634
1733461193614957600,11.72095751953125,-0.6628446578979492,-0.5463027954101562,0.14503595232963562
1733461193624967200,11.73096728515625,-0.7410926818847656,-0.35645556449890137,0.010611921548843384
1733461193634977000,11.74097705078125,-0.6333093643188477,-0.2420116662979126,0.06809571385383606
1733461193644956400,11.750956298828125,-0.2579631805419922,-0.18255257606506348,0.2742791771888733
1733461193654966000,11.760966064453125,0.3587455749511719,0.0171586275100708,0.25749483704566956
1733461193664976000,11.770975830078125,0.6331367492675781,0.24375653266906738,0.025747165083885193
1733461193674985500,11.7809853515625,0.5153923034667969,0.5940970182418823,-0.31302550435066223
1733461193684964900,11.79096484375,0.0830392837524414,0.7652764320373535,-0.5133636593818665
1733461193694974700,11.800974609375,-0.21544837951660156,0.9398903846740723,-0.8410375714302063
1733461193704984300,11.810984375,-0.19243526458740234,0.8737483024597168,-0.8171561360359192
1733461193714963500,11.82096337890625,0.14365291595458984,0.6873489618301392,-0.6991177797317505
1733461193724973300,11.830973388671875,0.5053110122680664,0.3790140151977539,-0.2908116281032562
1733461193734983200,11.840983154296875,0.7537631988525391,0.10826683044433594,0.0557074248790741
1733461193744962600,11.850962646484374,0.9108552932739258,-0.11712765693664551,0.20200897753238678
1733461193754972200,11.86097216796875,0.91973876953125,-0.13059699535369873,0.11300496757030487
1733461193764982000,11.87098193359375,0.7547025680541992,-0.1415846347808838,0.030637472867965698
1733461193774961400,11.88096142578125,0.4708280563354492,-0.1747223138809204,0.1494837999343872
1733461193784971000,11.890970947265625,0.22337627410888672,-0.22360336780548096,0.3312588930130005
1733461193794980600,11.900980712890625,-0.02159881591796875,-0.18084228038787842,0.25394782423973083
1733461193804959700,11.910959716796874,-0.35068321228027344,-0.07240617275238037,0.21148090064525604
1733461193814969600,11.920969482421874,-0.50311279296875,0.06949782371520996,0.0077499449253082275
1733461193824979500,11.9309794921875,-0.5436983108520508,0.11200082302093506,-0.06699417531490326
1733461193834958600,11.94095849609375,-0.534754753112793,0.13759863376617432,-0.03961069881916046
1733461193844968400,11.950968505859375,-0.511897087097168,0.14930999279022217,0.1906513124704361
1733461193854978300,11.960978271484375,-0.32881927490234375,0.09090304374694824,0.2968111038208008
1733461193864957700,11.970957763671874,-0.08331489562988281,0.054357051849365234,0.3757241666316986
1733461193874967300,11.98096728515625,0.1913585662841797,0.009198546409606934,0.3672948479652405
1733461193884977200,11.99097705078125,0.31406211853027344,-0.08427929878234863,0.47598013281822205
1733461193894956300,12.000956298828125,1.3794336318969727,-0.11647796630859375,0.1471354067325592
1733461193904966000,12.0109658203125,-0.08060646057128906,-0.00395810604095459,0.2263142466545105
1733461193914975700,12.020975830078125,-0.7915115356445312,0.1485522985458374,0.2979428172111511
1733461193924985600,12.030985595703125,-1.1164770126342773,0.20783746242523193,0.17920374870300293
1733461193934964700,12.04096484375,-0.8626689910888672,0.35379457473754883,-0.3281790018081665
1733461193944974600,12.050974609375,-0.6071367263793945,0.2771855592727661,-0.27521657943725586
1733461193954984400,12.060984375,-0.2325611114501953,0.22436261177062988,-0.27465537190437317
1733461193964963600,12.070963623046875,0.13637828826904297,0.23689568042755127,-0.3077648878097534
1733461193974973400,12.080973388671875,0.3560371398925781,0.05316579341888428,-0.10391251742839813
1733461193984983000,12.090983154296875,0.562779426574707,0.030087947845458984,-0.01310490071773529
1733461193994962200,12.100962158203124,0.5460968017578125,0.08515715599060059,-0.06371581554412842
1733461194004972000,12.110971923828124,0.36375904083251953,0.04649341106414795,-0.11018046736717224
1733461194014982000,12.12098193359375,0.40370941162109375,0.14351356029510498,-0.11442352831363678
1733461194024961000,12.1309609375,0.501129150390625,0.12088513374328613,-0.05833689868450165
1733461194034971000,12.140970947265625,0.4674959182739258,0.10883057117462158,-0.0354481041431427
1733461194044980700,12.150980712890625,0.0784292221069336,0.10307466983795166,0.04352240264415741
1733461194054959900,12.1609599609375,-0.42163944244384766,0.06166553497314453,0.1577298641204834
