time,seconds_elapsed,z,y,x
1733461182364873000,0.470873046875,0.024434609338641167,-0.001832595793530345,0
1733461182374616600,0.480616455078125,0.04459316283464432,-0.001832595793530345,-0.006108652334660292
1733461182385071000,0.491071044921875,0.05009094998240471,0.007941247895359993,-0.00427605677396059
1733461182395028700,0.50102880859375,0.04886921867728233,0.018936822190880775,0.0012217304902151227
1733461182405059800,0.511059814453125,0.039706241339445114,0.04153883829712868,-0.001832595793530345
1733461182415048400,0.52104833984375,0.03481931984424591,0.06169738993048668,-0.01771509274840355
1733461182425079800,0.531079833984375,0.027488935738801956,0.07880161702632904,-0.03787364438176155
1733461182435037400,0.541037353515625,0.02076941914856434,0.08246681094169617,-0.05619960278272629
1733461182445069000,0.551069091796875,0.015271631069481373,0.06536258012056351,-0.06719517707824707
1733461182455057000,0.561056884765625,0.015882495790719986,0.045204028487205505,-0.06780604273080826
1733461182465057800,0.571057861328125,0.01710422709584236,0.02687807008624077,-0.05742133408784866
1733461182475046000,0.5810458984375,0.02015855349600315,0.02382374368607998,-0.04092797264456749
1733461182485077800,0.591077880859375,0.018325956538319588,0.04642575979232788,-0.016493361443281174
1733461182495035000,0.601034912109375,0.01038470957428217,0.054367005825042725,-0.00366519158706069
1733461182505066500,0.61106640625,-0.003054326167330146,0.05925392732024193,-0.001832595793530345
1733461182515054600,0.6210546875,-0.018936822190880775,0.0555887371301651,-0.006108652334660292
1733461182525055500,0.631055419921875,-0.03237585723400116,0.05253441259264946,-0.010995574295520782
1733461182535043600,0.641043701171875,-0.048258353024721146,0.04703662544488907,-0.012828170321881771
1733461182545075200,0.6510751953125,-0.06169738993048668,0.04092797264456749,-0.0024434609804302454
1733461182555032300,0.6610322265625,-0.06719517707824707,0.04153883829712868,0.02871066704392433
1733461182565064200,0.671064208984375,-0.06352998316287994,0.04092797264456749,0.04703662544488907
1733461182575052000,0.681052001953125,-0.06230825558304787,0.02626720629632473,0.06230825558304787
1733461182585053200,0.69105322265625,-0.054367005825042725,0.006719517521560192,0.06902777403593063
1733461182595041000,0.701041015625,-0.0507018156349659,-0.01771509274840355,0.06963863968849182
1733461182605072600,0.71107275390625,-0.0403171069920063,-0.04092797264456749,0.06536258012056351
1733461182615030000,0.721030029296875,-0.02076941914856434,-0.04764748737215996,0.05742133408784866
1733461182625061600,0.7310615234375,0.015271631069481373,-0.010995574295520782,0.03726277872920036
1733461182635049500,0.741049560546875,0.039095375686883926,0.022602014243602753,0.02076941914856434
1733461182645050600,0.751050537109375,0.056810468435287476,0.05192354694008827,0.006108652334660292
1733461182655038500,0.76103857421875,0.06352998316287994,0.06658431142568588,-0.00733038317412138
1733461182665070300,0.7710703125,0.056810468435287476,0.06230825558304787,-0.010995574295520782
1733461182675058200,0.78105810546875,0.04581489413976669,0.04153883829712868,-0.014049900695681572
1733461182685059300,0.791059326171875,0.03420845419168472,0.014049900695681572,-0.013439035043120384
1733461182695047200,0.801047119140625,0.02321287989616394,-0.005497787147760391,-0.01771509274840355
1733461182705078800,0.811078857421875,0.010995574295520782,-0.006719517521560192,-0.021991148591041565
1733461182715036200,0.8210361328125,0.009162978269159794,0.012828170321881771,-0.02015855349600315
1733461182725067800,0.83106787109375,0.01038470957428217,0.04459316283464432,-0.018936822190880775
1733461182735055600,0.8410556640625,0.013439035043120384,0.07208210229873657,-0.01466076634824276
1733461182745057000,0.85105712890625,0.015882495790719986,0.08674286305904388,-0.013439035043120384
1733461182755044600,0.861044677734375,0.018325956538319588,0.08918632566928864,-0.009773843921720982
1733461182765076500,0.871076416015625,0.018936822190880775,0.08429940044879913,-0.005497787147760391
1733461182775033600,0.88103369140625,0.01160643994808197,0.05375614017248154,0.01038470957428217
1733461182785065200,0.891065185546875,-0.0012217304902151227,0.01038470957428217,0.027488935738801956
1733461182795053300,0.90105322265625,-0.016493361443281174,-0.02871066704392433,0.04642575979232788
1733461182805054200,0.91105419921875,-0.031154127791523933,-0.05375614017248154,0.06108652427792549
1733461182815042300,0.921042236328125,-0.039095375686883926,-0.04948008432984352,0.06780604273080826
1733461182825074000,0.931073974609375,-0.04214970022439957,-0.021991148591041565,0.07208210229873657
1733461182835031300,0.94103125,-0.0403171069920063,-0.0024434609804302454,0.07696902006864548
1733461182845063000,0.95106298828125,-0.028099801391363144,-0.015271631069481373,0.07880161702632904
1733461182855050800,0.96105078125,-0.029932396486401558,-0.036041051149368286,0.0806342139840126
1733461182865052000,0.971052001953125,-0.036651913076639175,-0.054367005825042725,0.07941248267889023
1733461182875039700,0.981039794921875,-0.04764748737215996,-0.09285151958465576,0.07513642311096191
1733461182885071600,0.991071533203125,-0.05192354694008827,-0.1508837193250656,0.06536258012056351
1733461182895028700,1.00102880859375,-0.06291911751031876,-0.20952677726745605,0.05742133408784866
1733461182905060400,1.011060302734375,-0.06230825558304787,-0.24923302233219147,0.0555887371301651
1733461182915048400,1.02104833984375,-0.05803219974040985,-0.25045475363731384,0.0555887371301651
1733461182925079800,1.031079833984375,-0.05375614017248154,-0.17592918872833252,0.0555887371301651
1733461182935037400,1.041037353515625,-0.04398229718208313,-0.07819075137376785,0.05375614017248154
1733461182945069000,1.051069091796875,-0.030543262138962746,0.015882495790719986,0.045204028487205505
1733461182955057000,1.061056884765625,-0.03176499158143997,0.060475658625364304,0.030543262138962746
1733461182965058300,1.071058349609375,-0.04459316283464432,0.06658431142568588,0.01038470957428217
1733461182975046000,1.0810458984375,-0.05742133408784866,0.06780604273080826,-0.01038470957428217
1733461182985077500,1.091077392578125,-0.05864306539297104,0.06902777403593063,-0.027488935738801956
1733461182995035100,1.10103515625,-0.0555887371301651,0.07819075137376785,-0.04398229718208313
1733461183005066800,1.111066650390625,-0.0507018156349659,0.09285151958465576,-0.04153883829712868
1733461183015054600,1.1210546875,-0.042760565876960754,0.10934487730264664,-0.02626720629632473
1733461183025055700,1.1310556640625,-0.03787364438176155,0.10445795953273773,-0.0024434609804302454
1733461183035043600,1.141043701171875,-0.0354301854968071,0.07941248267889023,0.022602014243602753
1733461183045103600,1.151103515625,-0.036651913076639175,0.056810468435287476,0.03726277872920036
1733461183055032300,1.1610322265625,-0.039095375686883926,0.048258353024721146,0.048258353024721146
1733461183065064200,1.171064208984375,-0.03726277872920036,0.05742133408784866,0.05803219974040985
1733461183075052000,1.181052001953125,-0.0354301854968071,0.04642575979232788,0.06841690838336945
1733461183085053000,1.191052978515625,-0.03176499158143997,0.01160643994808197,0.08307767659425735
1733461183095041000,1.201041015625,-0.018936822190880775,-0.03298672288656235,0.1007927656173706
1733461183105072600,1.21107275390625,0.003054326167330146,-0.06475171446800232,0.11178833991289139
1733461183115029200,1.221029296875,0.030543262138962746,-0.05314527451992035,0.10873401165008545
1733461183125061400,1.231061279296875,0.05742133408784866,0.003054326167330146,0.09040805697441101
1733461183135049000,1.241049072265625,0.0757472887635231,0.07757988572120667,0.06475171446800232
1733461183145050000,1.251050048828125,0.08185594528913498,0.14782938361167908,0.039095375686883926
1733461183155038200,1.2610380859375,0.07941248267889023,0.13744467496871948,0.039095375686883926
1733461183165069600,1.271069580078125,0.06780604273080826,0.09224065393209457,0.051312681287527084
1733461183175057700,1.2810576171875,0.051312681287527084,0.030543262138962746,0.06902777403593063
1733461183185058800,1.291058837890625,0.04459316283464432,-0.039706241339445114,0.07941248267889023
1733461183195046700,1.301046630859375,0.04459316283464432,-0.09285151958465576,0.08185594528913498
1733461183205078300,1.311078369140625,0.05619960278272629,-0.11850785464048386,0.07330382615327835
1733461183215036200,1.3210361328125,0.09773843735456467,-0.09285151958465576,0.04092797264456749
1733461183225067800,1.33106787109375,0.12095131725072861,-0.04459316283464432,0.009162978269159794
1733461183235055600,1.3410556640625,0.14416420459747314,0.012828170321881771,-0.01771509274840355
1733461183245056800,1.351056884765625,0.14782938361167908,0.0708603709936142,-0.02932153269648552
1733461183255044600,1.361044677734375,0.11850785464048386,0.10445795953273773,-0.022602014243602753
1733461183265076200,1.371076171875,0.07819075137376785,0.10384709388017654,-0.003054326167330146
1733461183275033600,1.38103369140625,0.029932396486401558,0.07024950534105301,0.021380282938480377
1733461183285065200,1.391065185546875,-0.02076941914856434,0.0012217304902151227,0.04764748737215996
1733461183295053300,1.40105322265625,-0.021380282938480377,-0.03420845419168472,0.04703662544488907
1733461183305053700,1.4110537109375,-0.0012217304902151227,-0.04337143152952194,0.031154127791523933
1733461183315042300,1.421042236328125,0.03237585723400116,-0.02382374368607998,0.006108652334660292
1733461183325073200,1.4310732421875,0.06169738993048668,0.001832595793530345,-0.014049900695681572
1733461183335031300,1.44103125,0.09162978827953339,0.025045474991202354,-0.025656340643763542
1733461183345063000,1.45106298828125,0.10506882518529892,0.039095375686883926,-0.02321287989616394
1733461183355050800,1.46105078125,0.10384709388017654,0.031154127791523933,-0.012828170321881771
1733461183365052200,1.47105224609375,0.08185594528913498,-0.01466076634824276,0.01160643994808197
1733461183375039700,1.481039794921875,0.06658431142568588,-0.056810468435287476,0.024434609338641167
1733461183385071400,1.4910712890625,0.054367005825042725,-0.08918632566928864,0.028099801391363144
1733461183395028700,1.50102880859375,0.04642575979232788,-0.10262536257505417,0.021991148591041565
1733461183405060400,1.511060302734375,0.04764748737215996,-0.10262536257505417,0.012217304669320583
1733461183415048400,1.52104833984375,0.0507018156349659,-0.09162978827953339,0.004886921960860491
1733461183425079000,1.5310791015625,0.05864306539297104,-0.07696902006864548,0.0024434609804302454
1733461183435037400,1.541037353515625,0.06352998316287994,-0.09040805697441101,0.024434609338641167
1733461183445068000,1.551068115234375,0.06536258012056351,-0.1319468915462494,0.04581489413976669
1733461183455057000,1.561056884765625,0.06169738993048668,-0.18081611394882202,0.05619960278272629
1733461183465057300,1.571057373046875,0.06841690838336945,-0.2064724564552307,0.056810468435287476
1733461183475046000,1.5810458984375,0.06963863968849182,-0.18448130786418915,0.04703662544488907
1733461183485076700,1.59107666015625,0.06780604273080826,-0.13316862285137177,0.025656340643763542
1733461183495035000,1.601034912109375,0.06414084881544113,-0.07941248267889023,0.005497787147760391
1733461183505066500,1.61106640625,0.05864306539297104,-0.022602014243602753,-0.015882495790719986
1733461183515054600,1.6210546875,0.054367005825042725,-0.006108652334660292,-0.02932153269648552
1733461183525055500,1.631055419921875,0.04886921867728233,-0.006108652334660292,-0.039706241339445114
1733461183535043600,1.641043701171875,0.03420845419168472,-0.018325956538319588,-0.04703662544488907
1733461183545075200,1.6510751953125,0.009773843921720982,-0.03787364438176155,-0.04886921867728233
1733461183555032600,1.661032470703125,-0.01771509274840355,-0.05925392732024193,-0.042760565876960754
1733461183565063400,1.6710634765625,-0.03848451003432274,-0.07941248267889023,-0.030543262138962746
1733461183575052000,1.681052001953125,-0.04153883829712868,-0.10995574295520782,-0.015271631069481373
1733461183585052400,1.691052490234375,-0.01710422709584236,-0.17592918872833252,0.012217304669320583
1733461183595041000,1.701041015625,0.013439035043120384,-0.20891591906547546,0.029932396486401558
1733461183605072100,1.711072021484375,0.04886921867728233,-0.22357667982578278,0.036651913076639175
1733461183615030000,1.721030029296875,0.07635815441608429,-0.20341812074184418,0.02382374368607998
1733461183625061000,1.73106103515625,0.09285151958465576,-0.1362229436635971,-0.00733038317412138
1733461183635049500,1.741049560546875,0.0910189226269722,-0.02687807008624077,-0.05375614017248154
1733461183645049900,1.7510498046875,0.06108652427792549,0.08368854224681854,-0.09712757170200348
1733461183655038500,1.76103857421875,-0.01038470957428217,0.15271630883216858,-0.12950342893600464
1733461183665069600,1.771069580078125,-0.08002334833145142,0.1215621829032898,-0.12828169763088226
1733461183675058200,1.78105810546875,-0.1508837193250656,0.054367005825042725,-0.11972958594560623
1733461183685058800,1.791058837890625,-0.18631389737129211,-0.001832595793530345,-0.11545353382825851
1733461183695047200,1.801047119140625,-0.20830504596233368,0.003054326167330146,-0.11728613078594208
1733461183705078300,1.811078369140625,-0.20097467303276062,0.045204028487205505,-0.1258382350206375
1733461183715036200,1.8210361328125,-0.1661553531885147,0.09285151958465576,-0.13255776464939117
1733461183725067500,1.831067626953125,-0.0959058403968811,0.13866640627384186,-0.14233160018920898
1733461183735055600,1.8410556640625,-0.0507018156349659,0.1411098688840866,-0.13744467496871948
1733461183745056300,1.85105615234375,-0.006719517521560192,0.11850785464048386,-0.12950342893600464
1733461183755044600,1.861044677734375,0.025656340643763542,0.08246681094169617,-0.11484266817569733
1733461183765075700,1.87107568359375,0.033597588539123535,0.03787364438176155,-0.09346238523721695
1733461183775033600,1.88103369140625,0.015271631069481373,-0.021991148591041565,-0.06536258012056351
1733461183785064400,1.891064453125,-0.015271631069481373,-0.09285151958465576,-0.031154127791523933
1733461183795053300,1.90105322265625,-0.04459316283464432,-0.14905111491680145,0
1733461183805053700,1.9110537109375,-0.04581489413976669,-0.1264491081237793,0.012217304669320583
1733461183815042300,1.921042236328125,-0.02626720629632473,-0.051312681287527084,-0.015882495790719986
1733461183825073400,1.931073486328125,0.01771509274840355,0.02076941914856434,-0.06658431142568588
1733461183835031300,1.94103125,0.07024950534105301,0.06658431142568588,-0.12339477986097336
1733461183845062100,1.951062255859375,0.10751228034496307,0.06291911751031876,-0.17409659922122955
1733461183855050800,1.96105078125,0.1270599663257599,0.02626720629632473,-0.21380282938480377
1733461183865051100,1.971051025390625,0.12950342893600464,-0.03848451003432274,-0.25473082065582275
1733461183875039700,1.981039794921875,0.11972958594560623,-0.07635815441608429,-0.2926044464111328
1733461183885070800,1.99107080078125,0.12522737681865692,-0.05375614017248154,-0.28588494658470154
1733461183895028700,2.00102880859375,0.13255776464939117,-0.012828170321881771,-0.2541199326515198
1733461183905059800,2.011059814453125,0.13805554807186127,0.018936822190880775,-0.19364428520202637
1733461183915048400,2.02104833984375,0.15271630883216858,0.02687807008624077,-0.13072516024112701
1733461183925079600,2.03107958984375,0.16371189057826996,0.019547687843441963,-0.07513642311096191
1733461183935037400,2.041037353515625,0.17898350954055786,-0.00366519158706069,-0.03726277872920036
1733461183945068500,2.051068603515625,0.17409659922122955,-0.05803219974040985,-0.018936822190880775
1733461183955057000,2.061056884765625,0.152105450630188,-0.1007927656173706,-0.02076941914856434
1733461183965057300,2.071057373046875,0.11484266817569733,-0.14844025671482086,-0.027488935738801956
1733461183975046000,2.0810458984375,0.07024950534105301,-0.1875356286764145,-0.03298672288656235
1733461183985077000,2.091076904296875,0.01038470957428217,-0.21013765037059784,-0.04948008432984352
1733461183995035100,2.10103515625,-0.036651913076639175,-0.21807889640331268,-0.07757988572120667
1733461184005066200,2.111066162109375,-0.08368854224681854,-0.1973094791173935,-0.10384709388017654
1733461184015054600,2.1210546875,-0.1270599663257599,-0.17409659922122955,-0.1160643994808197
1733461184025055200,2.13105517578125,-0.13805554807186127,-0.1569923609495163,-0.11484266817569733
1733461184035043600,2.141043701171875,-0.12278391420841217,-0.1612684279680252,-0.1007927656173706
1733461184045074700,2.15107470703125,-0.09162978827953339,-0.16920967400074005,-0.07147123664617538
1733461184055032600,2.161032470703125,-0.06291911751031876,-0.16920967400074005,-0.027488935738801956
1733461184065063700,2.171063720703125,-0.04398229718208313,-0.1569923609495163,0.030543262138962746
1733461184075052000,2.181052001953125,-0.03298672288656235,-0.15454891324043274,0.08368854224681854
1733461184085052700,2.191052734375,-0.027488935738801956,-0.1612684279680252,0.12522737681865692
1733461184095041000,2.201041015625,-0.02015855349600315,-0.1716531366109848,0.14355333149433136
1733461184105072000,2.211072021484375,-0.02015855349600315,-0.16371189057826996,0.12950342893600464
1733461184115029200,2.221029296875,-0.022602014243602753,-0.13927727937698364,0.10812314599752426
1733461184125061400,2.231061279296875,-0.04703662544488907,-0.1007927656173706,0.10384709388017654
1733461184135049000,2.241049072265625,-0.08918632566928864,-0.08185594528913498,0.12034045159816742
1733461184145050000,2.251050048828125,-0.13744467496871948,-0.10262536257505417,0.15943582355976105
1733461184155038200,2.2610380859375,-0.17348572611808777,-0.1716531366109848,0.20097467303276062
1733461184165069800,2.27106982421875,-0.1459967941045761,-0.2932153046131134,0.21563543379306793
1733461184175057700,2.2810576171875,-0.1111774742603302,-0.3243694305419922,0.17104226350784302
1733461184185058800,2.291058837890625,-0.06658431142568588,-0.2681698501110077,0.09651670604944229
1733461184195047000,2.301046875,-0.028099801391363144,-0.11728613078594208,0.018325956538319588
1733461184205078300,2.311078369140625,-0.025656340643763542,0.09651670604944229,-0.02321287989616394
1733461184215036200,2.3210361328125,-0.0507018156349659,0.29077184200286865,-0.012828170321881771
1733461184225067800,2.33106787109375,-0.09773843735456467,0.3677408695220947,0.05253441259264946
1733461184235055600,2.3410556640625,-0.14477506279945374,0.3194825351238251,0.16493362188339233
1733461184245056800,2.351056884765625,-0.21380282938480377,0.09957103431224823,0.3885102868080139
1733461184255044600,2.361044677734375,-0.23518311977386475,-0.12278391420841217,0.5393940210342407
1733461184265076200,2.371076171875,-0.2168571650981903,-0.33719760179519653,0.6633996367454529
1733461184275033600,2.38103369140625,-0.18081611394882202,-0.4703662395477295,0.7409795522689819
1733461184285064700,2.391064697265625,-0.13561208546161652,-0.5192354321479797,0.7574729323387146
1733461184295053000,2.401052978515625,-0.06841690838336945,-0.5076290369033813,0.7189884185791016
1733461184305054000,2.411053955078125,0.009773843921720982,-0.4355469346046448,0.6359107494354248
1733461184315042300,2.421042236328125,0.1667662113904953,-0.25473082065582275,0.44776421785354614
1733461184325073400,2.431073486328125,0.27611109614372253,-0.0555887371301651,0.29016098380088806
1733461184335031300,2.44103125,0.3695734739303589,0.2070833146572113,0.11972958594560623
1733461184345062000,2.451061767578125,0.423329621553421,0.4764748811721802,-0.04948008432984352
1733461184355050800,2.46105078125,0.4434881806373596,0.6352998614311218,-0.19608774781227112
1733461184365051000,2.47105078125,0.4392121136188507,0.6298020482063293,-0.31154128909111023
1733461184375039700,2.481039794921875,0.40256020426750183,0.504574716091156,-0.39584067463874817
1733461184385070000,2.491070068359375,0.2620611786842346,0.23335053026676178,-0.48808133602142334
1733461184395028700,2.50102880859375,0.11484266817569733,0.0757472887635231,-0.5381723046302795
1733461184405059000,2.51105908203125,-0.06414084881544113,-0.021380282938480377,-0.5815436840057373
1733461184415048400,2.52104833984375,-0.23945917189121246,-0.05375614017248154,-0.6157521605491638
1733461184425078800,2.531078857421875,-0.37079519033432007,-0.012828170321881771,-0.6407976150512695
1733461184435037200,2.541037109375,-0.4502076804637909,0.09224065393209457,-0.6536257863044739
1733461184445069000,2.551069091796875,-0.49235737323760986,0.23579397797584534,-0.6475171446800232
1733461184455057000,2.561056884765625,-0.49357911944389343,0.3878994286060333,-0.608421802520752
1733461184465057800,2.571057861328125,-0.45753806829452515,0.5424483418464661,-0.4911356568336487
1733461184475046000,2.5810458984375,-0.4447098970413208,0.5473352670669556,-0.39217549562454224
1733461184485077000,2.591076904296875,-0.4398229718208313,0.46670106053352356,-0.2877175211906433
1733461184495035000,2.601034912109375,-0.4251621961593628,0.31520646810531616,-0.20097467303276062
1733461184505066000,2.61106591796875,-0.41111230850219727,0.1368338167667389,-0.1411098688840866
1733461184515054600,2.6210546875,-0.39767327904701233,-0.010995574295520782,-0.11239920556545258
1733461184525055200,2.63105517578125,-0.3695734739303589,-0.07757988572120667,-0.11239920556545258
1733461184535043600,2.641043701171875,-0.27550023794174194,-0.02932153269648552,-0.16859880089759827
1733461184545074700,2.65107470703125,-0.1875356286764145,0.07024950534105301,-0.21930062770843506
1733461184555032300,2.6610322265625,-0.09834930300712585,0.17348572611808777,-0.2626720666885376
1733461184565063400,2.6710634765625,-0.02871066704392433,0.2626720666885376,-0.27550023794174194
1733461184575052000,2.681052001953125,0.015271631069481373,0.31520646810531616,-0.2632829248905182
1733461184585053000,2.691052978515625,0.04948008432984352,0.342695415019989,-0.23029619455337524
1733461184595041000,2.701041015625,0.06108652427792549,0.33719760179519653,-0.18936823308467865
1733461184605072600,2.71107275390625,0.036651913076639175,0.21135938167572021,-0.13072516024112701
1733461184615030000,2.721030029296875,0.010995574295520782,0.054367005825042725,-0.10812314599752426
1733461184625061600,2.7310615234375,0.0024434609804302454,-0.10445795953273773,-0.0959058403968811
1733461184635049500,2.741049560546875,-0.0006108652451075613,-0.1869247704744339,-0.0959058403968811
1733461184645049900,2.7510498046875,0.003054326167330146,-0.16249015927314758,-0.09773843735456467
1733461184655038500,2.76103857421875,0.021991148591041565,-0.05925392732024193,-0.09468411654233932
1733461184665069600,2.771069580078125,0.0403171069920063,0.08307767659425735,-0.07757988572120667
1733461184675058200,2.78105810546875,0.05619960278272629,0.1814269721508026,-0.0507018156349659
1733461184685058600,2.79105859375,0.05864306539297104,0.22113321721553802,-0.005497787147760391
1733461184695047200,2.801047119140625,0.0507018156349659,0.16920967400074005,0.003054326167330146
1733461184705078000,2.811078125,0.031154127791523933,0.0959058403968811,-0.005497787147760391
1733461184715036200,2.8210361328125,0.012828170321881771,0.029932396486401558,-0.02015855349600315
1733461184725067300,2.8310673828125,-0.00427605677396059,-0.010995574295520782,-0.03420845419168472
1733461184735055600,2.8410556640625,-0.018936822190880775,-0.014049900695681572,-0.039706241339445114
1733461184745056300,2.85105615234375,-0.025045474991202354,0.012828170321881771,-0.039095375686883926
1733461184755044600,2.861044677734375,0.02076941914856434,0.10018189996480942,-0.0403171069920063
1733461184765075500,2.871075439453125,0.06719517707824707,0.17287486791610718,-0.04581489413976669
1733461184775033600,2.88103369140625,0.10934487730264664,0.2125810980796814,-0.05192354694008827
1733461184785065200,2.891065185546875,0.12950342893600464,0.20525072515010834,-0.051312681287527084
1733461184795053300,2.90105322265625,0.12095131725072861,0.14477506279945374,-0.04214970022439957
1733461184805054200,2.91105419921875,0.08368854224681854,0.07391469180583954,-0.033597588539123535
1733461184815042300,2.921042236328125,0.015271631069481373,0.04703662544488907,-0.03481931984424591
1733461184825074000,2.931073974609375,-0.09407325088977814,0.12095131725072861,-0.06352998316287994
1733461184835031300,2.94103125,-0.16982053220272064,0.21624629199504852,-0.08552113175392151
1733461184845063200,2.951063232421875,-0.23884831368923187,0.28466320037841797,-0.08429940044879913
1733461184855051000,2.961051025390625,-0.2791654169559479,0.3090978264808655,-0.05803219974040985
1733461184865052200,2.97105224609375,-0.30054569244384766,0.31520646810531616,-0.010995574295520782
1733461184875039700,2.981039794921875,-0.2938261926174164,0.3280346393585205,0.030543262138962746
1733461184885071600,2.991071533203125,-0.25961771607398987,0.34697145223617554,0.05375614017248154
1733461184895028700,3.00102880859375,-0.2076941877603531,0.3396410644054413,0.05314527451992035
1733461184905059000,3.01105908203125,-0.0910189226269722,0.2724458873271942,0.02076941914856434
1733461184915048400,3.02104833984375,0.014049900695681572,0.20891591906547546,-0.009162978269159794
1733461184925080000,3.031080078125,0.11301007121801376,0.13744467496871948,-0.025656340643763542
1733461184935037400,3.041037353515625,0.18020524084568024,0.02932153269648552,0.0006108652451075613
1733461184945069300,3.0510693359375,0.19303341209888458,-0.12278391420841217,0.09957103431224823
1733461184955057000,3.061056884765625,0.16249015927314758,-0.3170390725135803,0.2773328125476837
1733461184965058300,3.071058349609375,0.13316862285137177,-0.5387831330299377,0.4960225820541382
1733461184975046000,3.0810458984375,0.12217304855585098,-0.7257078886032104,0.7874053120613098
1733461184985077500,3.091077392578125,0.13500121235847473,-0.7073819637298584,0.8924741148948669
1733461184995035000,3.101034912109375,0.14966198801994324,-0.5919284224510193,0.9065240025520325
1733461185005066500,3.11106640625,0.16371189057826996,-0.43615779280662537,0.8258898258209229
1733461185015054600,3.1210546875,0.16737708449363708,-0.3292563557624817,0.6682865619659424
1733461185025054200,3.13105419921875,0.16371189057826996,-0.32559117674827576,0.4660901725292206
1733461185035043600,3.141043701171875,0.1618792861700058,-0.40256020426750183,0.2528982162475586
1733461185045103600,3.151103515625,0.17287486791610718,-0.5076290369033813,-0.018936822190880775
1733461185055032300,3.1610322265625,0.19486601650714874,-0.4703662395477295,-0.1258382350206375
1733461185065064200,3.171064208984375,0.20952677726745605,-0.3194825351238251,-0.16249015927314758
1733461185075052000,3.181052001953125,0.20891591906547546,-0.11178833991289139,-0.13866640627384186
1733461185085053400,3.191053466796875,0.21013765037059784,0.10262536257505417,-0.0806342139840126
1733461185095041000,3.201041015625,0.2076941877603531,0.28955012559890747,-0.028099801391363144
1733461185105072600,3.21107275390625,0.2028072625398636,0.42699480056762695,-0.00855211354792118
1733461185115029200,3.221029296875,0.18875735998153687,0.5082398653030396,-0.025045474991202354
1733461185125061000,3.23106103515625,0.13011430203914642,0.4899139404296875,-0.0861319974064827
1733461185135049000,3.241049072265625,0.09162978827953339,0.38179078698158264,-0.12828169763088226
1733461185145050400,3.25105029296875,0.05375614017248154,0.20402899384498596,-0.15760323405265808
1733461185155038200,3.2610380859375,0.03176499158143997,-0.00733038317412138,-0.17348572611808777
1733461185165069600,3.271069580078125,0.02321287989616394,-0.17959438264369965,-0.17898350954055786
1733461185175057700,3.2810576171875,0.01771509274840355,-0.29077184200286865,-0.16249015927314758
1733461185185058800,3.291058837890625,0.015882495790719986,-0.34636059403419495,-0.12522737681865692
1733461185195046700,3.301046630859375,0.006108652334660292,-0.3677408695220947,-0.05375614017248154
1733461185205078300,3.311078369140625,-0.0006108652451075613,-0.36102136969566345,-0.021380282938480377
1733461185215036200,3.3210361328125,-0.0012217304902151227,-0.32559117674827576,-0.005497787147760391
1733461185225067000,3.33106689453125,-0.001832595793530345,-0.25961771607398987,-0.006719517521560192
1733461185235055600,3.3410556640625,0.0012217304902151227,-0.18997909128665924,-0.015271631069481373
1733461185245056000,3.351055908203125,0.010995574295520782,-0.14355333149433136,-0.02382374368607998
1733461185255044600,3.361044677734375,0.022602014243602753,-0.12767083942890167,-0.031154127791523933
1733461185265075700,3.37107568359375,0.04581489413976669,-0.1313360333442688,-0.042760565876960754
1733461185275033600,3.38103369140625,0.05864306539297104,-0.12522737681865692,-0.05742133408784866
1733461185285064700,3.391064697265625,0.06902777403593063,-0.09407325088977814,-0.06963863968849182
1733461185295053300,3.40105322265625,0.06475171446800232,-0.04337143152952194,-0.07513642311096191
1733461185305054200,3.41105419921875,0.04948008432984352,0.003054326167330146,-0.07269296050071716
1733461185315042300,3.421042236328125,0.021380282938480377,0.02626720629632473,-0.07330382615327835
1733461185325073700,3.43107373046875,-0.02626720629632473,0.028099801391363144,-0.07757988572120667
1733461185335031300,3.44103125,-0.08674286305904388,0.003054326167330146,-0.08979719132184982
1733461185345062100,3.451062255859375,-0.152105450630188,-0.05925392732024193,-0.13805554807186127
1733461185355050800,3.46105078125,-0.16065755486488342,-0.06536258012056351,-0.19303341209888458
1733461185365051400,3.471051513671875,-0.13316862285137177,-0.025656340643763542,-0.2638937830924988
1733461185375040000,3.4810400390625,-0.07208210229873657,0.056810468435287476,-0.34208452701568604
1733461185385070600,3.491070556640625,-0.0012217304902151227,0.14966198801994324,-0.4147774875164032
1733461185395028700,3.50102880859375,0.05619960278272629,0.23151792585849762,-0.46670106053352356
1733461185405060400,3.511060302734375,0.08491026610136032,0.32681289315223694,-0.46670106053352356
1733461185415048400,3.52104833984375,0.02076941914856434,0.46364670991897583,-0.342695415019989
1733461185425080000,3.531080078125,-0.10384709388017654,0.5296201705932617,-0.17592918872833252
1733461185435037400,3.541037353515625,-0.2687807083129883,0.48808133602142334,0.025045474991202354
1733461185445069000,3.551069091796875,-0.4300491213798523,0.2742784917354584,0.20341812074184418
1733461185455056600,3.561056640625,-0.5534439086914062,-0.05619960278272629,0.3170390725135803
1733461185465058300,3.571058349609375,-0.6163630485534668,-0.3897320330142975,0.3549126982688904
1733461185475046000,3.5810458984375,-0.607200026512146,-0.607810914516449,0.31642818450927734
1733461185485077000,3.591076904296875,-0.4905247986316681,-0.5949827432632446,0.1563815027475357
1733461185495035000,3.601034912109375,-0.3585779070854187,-0.34147366881370544,0.018936822190880775
1733461185505066500,3.61106640625,-0.19303341209888458,0.045204028487205505,-0.09407325088977814
1733461185515054600,3.6210546875,-0.05192354694008827,0.45204028487205505,-0.13255776464939117
1733461185525055500,3.631055419921875,0.031154127791523933,0.7715228199958801,-0.07147123664617538
1733461185535043300,3.641043212890625,0.06169738993048668,0.8790351152420044,0.06780604273080826
1733461185545075200,3.6510751953125,0.014049900695681572,0.7397578358650208,0.2577851414680481
1733461185555032300,3.6610322265625,-0.11484266817569733,0.3597996234893799,0.4648684561252594
1733461185565064200,3.671064208984375,-0.3787364661693573,-0.45753806829452515,0.7709119319915771
1733461185575052000,3.681052001953125,-0.48685958981513977,-0.9810495972633362,0.9382890462875366
1733461185585053000,3.691052978515625,-0.5302310585975647,-1.3170254230499268,1.0500773191452026
1733461185595041000,3.701041015625,-0.5112941861152649,-1.4581353664398193,1.0855075120925903
1733461185605071000,3.711071044921875,-0.4031710624694824,-1.4563027620315552,1.0445796251296997
1733461185615030000,3.721030029296875,-0.18631389737129211,-1.289536476135254,0.9260717034339905
1733461185625062700,3.731062744140625,0.10201449692249298,-0.930347740650177,0.7238753437995911
1733461185635049700,3.7410498046875,0.5412266254425049,-0.09834930300712585,0.28466320037841797
1733461185645049600,3.751049560546875,0.7379252314567566,0.503963828086853,-0.07635815441608429
1733461185655038500,3.76103857421875,0.8093964457511902,1.004873275756836,-0.4141666293144226
1733461185665069000,3.771069091796875,0.7800748944282532,1.2724323272705078,-0.6646214127540588
1733461185675058200,3.78105810546875,0.6536257863044739,1.3041973114013672,-0.797789990901947
1733461185685058300,3.791058349609375,0.45692721009254456,1.158811330795288,-0.8313875794410706
1733461185695047200,3.801047119140625,0.2168571650981903,0.8991936445236206,-0.7941248416900635
1733461185705077200,3.8110771484375,-0.13072516024112701,0.42210787534713745,-0.6603453159332275
1733461185715036200,3.8210361328125,-0.30115658044815063,0.13561208546161652,-0.5595525503158569
1733461185725067800,3.83106787109375,-0.40194934606552124,-0.04459316283464432,-0.45204028487205505
1733461185735055600,3.8410556640625,-0.4392121136188507,-0.08918632566928864,-0.33475416898727417
1733461185745057000,3.85105712890625,-0.43127086758613586,-0.025656340643763542,-0.21074850857257843
1733461185755044600,3.861044677734375,-0.39706242084503174,0.10262536257505417,-0.08918632566928864
1733461185765075700,3.87107568359375,-0.34574973583221436,0.24495697021484375,0.012217304669320583
1733461185775033600,3.88103369140625,-0.27611109614372253,0.3597996234893799,0.07208210229873657
1733461185785065000,3.89106494140625,-0.1563815027475357,0.44715335965156555,0.06169738993048668
1733461185795053000,3.901052978515625,-0.08979719132184982,0.43188172578811646,-0.009162978269159794
1733461185805053700,3.9110537109375,-0.02626720629632473,0.3390302062034607,-0.11178833991289139
1733461185815042300,3.921042236328125,0.021380282938480377,0.18814650177955627,-0.21807889640331268
1733461185825074000,3.931073974609375,0.048258353024721146,0.02382374368607998,-0.3017674386501312
1733461185835031300,3.94103125,0.054367005825042725,-0.09346238523721695,-0.3390302062034607
1733461185845063000,3.95106298828125,0.05497787147760391,-0.12950342893600464,-0.3274237811565399
1733461185855050800,3.96105078125,0.02015855349600315,-0.07880161702632904,-0.23945917189121246
1733461185865052200,3.97105224609375,0,-0.04581489413976669,-0.16920967400074005
1733461185875039700,3.981039794921875,-0.009162978269159794,-0.025045474991202354,-0.12217304855585098
1733461185885070800,3.99107080078125,-0.003054326167330146,0.004886921960860491,-0.10690141469240189
1733461185895029000,4.001029052734375,0.012217304669320583,0.054367005825042725,-0.11484266817569733
1733461185905059800,4.011059814453125,0.03481931984424591,0.13011430203914642,-0.13011430203914642
1733461185915048400,4.02104833984375,0.06352998316287994,0.2021963894367218,-0.1319468915462494
1733461185925079300,4.031079345703125,0.11484266817569733,0.23151792585849762,-0.09468411654233932
1733461185935037400,4.041037353515625,0.12034045159816742,0.17470745742321014,-0.03726277872920036
1733461185945069000,4.051069091796875,0.10751228034496307,0.05497787147760391,0.036651913076639175
1733461185955057000,4.061056884765625,0.08674286305904388,-0.10445795953273773,0.11301007121801376
1733461185965058300,4.071058349609375,0.06841690838336945,-0.26145032048225403,0.17531833052635193
1733461185975046000,4.0810458984375,0.042760565876960754,-0.3854559659957886,0.20952677726745605
1733461185985077000,4.091076904296875,0.03787364438176155,-0.48258355259895325,0.19608774781227112
1733461185995035000,4.101034912109375,0.05742133408784866,-0.5076290369033813,0.13988813757896423
1733461186005066000,4.11106591796875,0.10445795953273773,-0.37140607833862305,0.007941247895359993
1733461186015054600,4.1210546875,0.12889257073402405,-0.20036379992961884,-0.07819075137376785
1733461186025055500,4.131055419921875,0.1411098688840866,-0.018936822190880775,-0.13500121235847473
1733461186035043600,4.141043701171875,0.13866640627384186,0.1417207419872284,-0.14905111491680145
1733461186045075200,4.1510751953125,0.11239920556545258,0.26022860407829285,-0.13255776464939117
1733461186055032600,4.161032470703125,0.06902777403593063,0.33597588539123535,-0.09834930300712585
1733461186065063700,4.171063720703125,0.00427605677396059,0.38117989897727966,-0.07208210229873657
1733461186075052000,4.181052001953125,-0.08857546001672745,0.3842342495918274,-0.08857546001672745
1733461186085053000,4.191052978515625,-0.12950342893600464,0.3585779070854187,-0.1459967941045761
1733461186095041000,4.201041015625,-0.16798794269561768,0.2883284091949463,-0.22968533635139465
1733461186105072600,4.21107275390625,-0.18570303916931152,0.1814269721508026,-0.32681289315223694
1733461186115029200,4.221029296875,-0.16737708449363708,0.10873401165008545,-0.4239404797554016
1733461186125061400,4.231061279296875,-0.1007927656173706,0.11056660860776901,-0.5100724697113037
1733461186135049000,4.241049072265625,-0.006108652334660292,0.14966198801994324,-0.5583308339118958
1733461186145050400,4.25105029296875,0.08307767659425735,0.17531833052635193,-0.5253441333770752
1733461186155038200,4.2610380859375,0.12522737681865692,0.05192354694008827,-0.23640485107898712
1733461186165069600,4.271069580078125,0.06291911751031876,-0.17470745742321014,0.1258382350206375
1733461186175057700,4.2810576171875,-0.05314527451992035,-0.49846604466438293,0.5619960427284241
1733461186185058800,4.291058837890625,-0.16737708449363708,-0.8619308471679688,0.9566149711608887
1733461186195047000,4.301046875,-0.22663100063800812,-1.13926362991333,1.225395679473877
1733461186205077000,4.311076904296875,-0.24556782841682434,-1.2046263217926025,1.3426817655563354
1733461186215036200,4.3210361328125,-0.23029619455337524,-1.0885618925094604,1.3096951246261597
1733461186225066500,4.33106640625,-0.1417207419872284,-0.7764097452163696,1.0512990951538086
1733461186235055600,4.3410556640625,-0.03481931984424591,-0.5998696684837341,0.799011766910553
1733461186245057500,4.3510576171875,0.09346238523721695,-0.47830748558044434,0.5222898125648499
1733461186255044600,4.361044677734375,0.2028072625398636,-0.38606682419776917,0.2535090744495392
1733461186265075200,4.3710751953125,0.2718350291252136,-0.28099802136421204,0.029932396486401558
1733461186275033600,4.38103369140625,0.3237585723400116,-0.1667662113904953,-0.11178833991289139
1733461186285065500,4.3910654296875,0.37751471996307373,-0.048258353024721146,-0.16432274878025055
1733461186295053300,4.40105322265625,0.42760565876960754,0.15454891324043274,-0.1362229436635971
1733461186305054500,4.411054443359375,0.4404338300228119,0.2883284091949463,-0.10690141469240189
1733461186315042300,4.421042236328125,0.43676865100860596,0.3836233615875244,-0.08796459436416626
1733461186325074000,4.431073974609375,0.4294382631778717,0.4398229718208313,-0.08124507963657379
1733461186335031300,4.44103125,0.4056145250797272,0.4599815309047699,-0.08491026610136032
1733461186345063000,4.45106298828125,0.37751471996307373,0.46303585171699524,-0.09162978827953339
1733461186355050800,4.46105078125,0.3378084897994995,0.4092797040939331,-0.08979719132184982
1733461186365052000,4.471052001953125,0.2883284091949463,0.3188716471195221,-0.07941248267889023
1733461186375039700,4.481039794921875,0.19425514340400696,0.11239920556545258,-0.06719517707824707
1733461186385071600,4.491071533203125,0.1319468915462494,-0.05253441259264946,-0.056810468435287476
1733461186395028700,4.50102880859375,0.0910189226269722,-0.2028072625398636,-0.03481931984424591
1733461186405060600,4.511060546875,0.08002334833145142,-0.29504790902137756,-0.00366519158706069
1733461186415048400,4.52104833984375,0.09040805697441101,-0.3121521472930908,0.02932153269648552
1733461186425079000,4.5310791015625,0.10812314599752426,-0.2571742534637451,0.05742133408784866
1733461186435037400,4.541037353515625,0.14294247329235077,-0.1661553531885147,0.0806342139840126
1733461186445069000,4.551069091796875,0.1869247704744339,-0.04764748737215996,0.10018189996480942
1733461186455056600,4.561056640625,0.18387043476104736,-0.012828170321881771,0.10567969083786011
1733461186465058300,4.571058349609375,0.15760323405265808,-0.022602014243602753,0.10751228034496307
1733461186475046000,4.5810458984375,0.10812314599752426,-0.05925392732024193,0.11239920556545258
1733461186485077500,4.591077392578125,0.04764748737215996,-0.10262536257505417,0.1264491081237793
1733461186495035000,4.601034912109375,-0.01160643994808197,-0.13561208546161652,0.1362229436635971
1733461186505066500,4.61106640625,-0.06841690838336945,-0.15027284622192383,0.1362229436635971
1733461186515054600,4.6210546875,-0.1319468915462494,-0.11850785464048386,0.11301007121801376
1733461186525055200,4.63105517578125,-0.16065755486488342,-0.0708603709936142,0.07391469180583954
1733461186535043300,4.641043212890625,-0.17776179313659668,-0.018936822190880775,0.018936822190880775
1733461186545074700,4.65107470703125,-0.18936823308467865,0.03726277872920036,-0.04459316283464432
1733461186555032300,4.6610322265625,-0.1973094791173935,0.0910189226269722,-0.1007927656173706
1733461186565063700,4.671063720703125,-0.2064724564552307,0.1264491081237793,-0.13255776464939117
1733461186575052000,4.681052001953125,-0.2015855312347412,0.13805554807186127,-0.13500121235847473
1733461186585052700,4.691052734375,-0.19120082259178162,0.1215621829032898,-0.11056660860776901
1733461186595041000,4.701041015625,-0.16310101747512817,0.0806342139840126,-0.05864306539297104
1733461186605072100,4.711072021484375,-0.12889257073402405,0.05497787147760391,-0.0354301854968071
1733461186615030000,4.721030029296875,-0.09712757170200348,0.02687807008624077,-0.0354301854968071
1733461186625061000,4.73106103515625,-0.08185594528913498,0.0006108652451075613,-0.05803219974040985
1733461186635049500,4.741049560546875,-0.09040805697441101,-0.01160643994808197,-0.08735372871160507
1733461186645051000,4.75105078125,-0.13011430203914642,-0.015271631069481373,-0.09957103431224823
1733461186655038500,4.76103857421875,-0.18936823308467865,-0.012828170321881771,-0.09040805697441101
1733461186665070300,4.7710703125,-0.27611109614372253,-0.021991148591041565,-0.027488935738801956
1733461186675058200,4.78105810546875,-0.3072652220726013,-0.04337143152952194,0.01771509274840355
1733461186685058800,4.791058837890625,-0.31581732630729675,-0.05314527451992035,0.0555887371301651
1733461186695047200,4.801047119140625,-0.30482175946235657,-0.07269296050071716,0.0708603709936142
1733461186705079000,4.8110791015625,-0.2779437005519867,-0.13011430203914642,0.04581489413976669
1733461186715036200,4.8210361328125,-0.2431243658065796,-0.24373523890972137,-0.03481931984424591
1733461186725066500,4.83106640625,-0.2168571650981903,-0.3579670190811157,-0.1716531366109848
1733461186735055600,4.8410556640625,-0.24556782841682434,-0.40072759985923767,-0.4147774875164032
1733461186745055500,4.851055419921875,-0.2889392673969269,-0.30054569244384766,-0.5051855444908142
1733461186755044600,4.861044677734375,-0.2974913716316223,-0.10506882518529892,-0.4599815309047699
1733461186765076500,4.871076416015625,-0.2681698501110077,0.18325957655906677,-0.26145032048225403
1733461186775033600,4.88103369140625,-0.23945917189121246,0.46303585171699524,0.03420845419168472
1733461186785064700,4.891064697265625,-0.2528982162475586,0.6200281977653503,0.34147366881370544
1733461186795053300,4.90105322265625,-0.31520646810531616,0.6090326309204102,0.5839871764183044
1733461186805053700,4.9110537109375,-0.3891211748123169,0.43799036741256714,0.7012733221054077
1733461186815042300,4.921042236328125,-0.5448917746543884,0.006108652334660292,0.5907067060470581
1733461186825073400,4.931073486328125,-0.6261368989944458,-0.3023782968521118,0.35552358627319336
1733461186835031300,4.94103125,-0.6640105247497559,-0.5406157374382019,0.05742133408784866
1733461186845063200,4.951063232421875,-0.656680166721344,-0.6420193910598755,-0.23273965716362
1733461186855050800,4.96105078125,-0.6310238242149353,-0.5907067060470581,-0.4544837474822998
1733461186865052200,4.97105224609375,-0.5864306092262268,-0.42699480056762695,-0.5711590051651001
1733461186875039700,4.981039794921875,-0.5290092825889587,-0.192422553896904,-0.5815436840057373
1733461186885071600,4.991071533203125,-0.4813618063926697,0.21319197118282318,-0.4392121136188507
1733461186895028700,5.00102880859375,-0.49785518646240234,0.43188172578811646,-0.30543261766433716
1733461186905060600,5.011060546875,-0.5424483418464661,0.5852088928222656,-0.16737708449363708
1733461186915048400,5.02104833984375,-0.6432411074638367,0.6426302194595337,-0.04398229718208313
1733461186925080000,5.031080078125,-0.7916813492774963,0.578489363193512,0.059864792972803116
1733461186935037200,5.041037109375,-0.9511171579360962,0.3842342495918274,0.1264491081237793
1733461186945069300,5.0510693359375,-1.1050552129745483,0.09224065393209457,0.14538592100143433
1733461186955057000,5.061056884765625,-1.2608258724212646,-0.37568211555480957,0.07635815441608429
1733461186965057500,5.0710576171875,-1.2712105512619019,-0.6090326309204102,-0.015271631069481373
1733461186975046000,5.0810458984375,-1.2217304706573486,-0.7305948138237,-0.13011430203914642
1733461186985076500,5.091076416015625,-1.1142182350158691,-0.7147123217582703,-0.23273965716362
1733461186995035000,5.101034912109375,-0.9419541954994202,-0.5503895878791809,-0.2791654169559479
1733461187005066200,5.111066162109375,-0.7275404930114746,-0.2535090744495392,-0.24129177629947662
1733461187015054600,5.1210546875,-0.5265658497810364,0.10934487730264664,-0.12339477986097336
1733461187025055700,5.1310556640625,-0.3927863538265228,0.4184426963329315,0.01771509274840355
1733461187035043600,5.141043701171875,-0.33047810196876526,0.5381723046302795,0.11545353382825851
1733461187045102300,5.151102294921875,-0.33719760179519653,0.40744712948799133,0.039706241339445114
1733461187055032300,5.1610322265625,-0.38667771220207214,0.18875735998153687,-0.18631389737129211
1733461187065063200,5.171063232421875,-0.45875978469848633,-0.0403171069920063,-0.523511528968811
1733461187075052000,5.181052001953125,-0.5296201705932617,-0.1814269721508026,-0.8698720932006836
1733461187085053200,5.19105322265625,-0.5558874011039734,-0.16859880089759827,-1.1044443845748901
1733461187095041000,5.201041015625,-0.5442809462547302,-0.014049900695681572,-1.141707181930542
1733461187105072600,5.21107275390625,-0.504574716091156,0.39767327904701233,-0.8240572214126587
1733461187115029200,5.221029296875,-0.49357911944389343,0.5681046843528748,-0.4495968222618103
1733461187125061400,5.231061279296875,-0.5210680365562439,0.5510004758834839,-0.03176499158143997
1733461187135049000,5.241049072265625,-0.6108652353286743,0.37751471996307373,0.34025195240974426
1733461187145050600,5.251050537109375,-0.7422012686729431,0.08185594528913498,0.6102544069290161
1733461187155038200,5.2610380859375,-0.8759807348251343,-0.2431243658065796,0.7422012686729431
1733461187165068500,5.271068603515625,-1.0012081861495972,-0.513737678527832,0.7440338730812073
1733461187175057700,5.2810576171875,-1.1496484279632568,-0.7409795522689819,0.6090326309204102
1733461187185057500,5.2910576171875,-1.2321151494979858,-0.7476990818977356,0.5204572081565857
1733461187195046700,5.301046630859375,-1.309084177017212,-0.6823364496231079,0.47769662737846375
1733461187205077200,5.3110771484375,-1.3548991680145264,-0.588874101638794,0.4758640229701996
1733461187215036200,5.3210361328125,-1.367727279663086,-0.48747047781944275,0.4856378734111786
1733461187225068000,5.331068115234375,-1.357953429222107,-0.3604104816913605,0.47769662737846375
1733461187235055600,5.3410556640625,-1.3298536539077759,-0.20891591906547546,0.44287729263305664
1733461187245057000,5.35105712890625,-1.2919800281524658,-0.03848451003432274,0.3738495409488678
1733461187255044600,5.361044677734375,-1.236391305923462,0.1918116807937622,0.19547687470912933
1733461187265076500,5.371076416015625,-1.197295904159546,0.31459560990333557,0.04092797264456749
1733461187275033600,5.38103369140625,-1.1850786209106445,0.423329621553421,-0.09712757170200348
1733461187285065500,5.3910654296875,-1.2027937173843384,0.5002986192703247,-0.17776179313659668
1733461187295053300,5.40105322265625,-1.2260065078735352,0.5155702829360962,-0.1973094791173935
1733461187305054500,5.411054443359375,-1.2583824396133423,0.4709770977497101,-0.182648703455925
1733461187315042300,5.421042236328125,-1.3041973114013672,0.36651915311813354,-0.16065755486488342
1733461187325074000,5.431073974609375,-1.3744467496871948,0.13927727937698364,-0.16310101747512817
1733461187335031300,5.44103125,-1.397048830986023,0.006108652334660292,-0.1918116807937622
1733461187345063000,5.45106298828125,-1.4141530990600586,-0.06963863968849182,-0.21807889640331268
1733461187355050800,5.46105078125,-1.4135421514511108,-0.10018189996480942,-0.23151792585849762
1733461187365052200,5.47105224609375,-1.387274980545044,-0.11056660860776901,-0.2480112910270691
1733461187375039700,5.481039794921875,-1.3377948999404907,-0.09346238523721695,-0.25473082065582275
1733461187385071600,5.491071533203125,-1.2657127380371094,-0.045204028487205505,-0.251676470041275
1733461187395028700,5.50102880859375,-1.1398745775222778,0.10690141469240189,-0.21135938167572021
1733461187405060600,5.511060546875,-1.0934487581253052,0.18814650177955627,-0.14049901068210602
1733461187415048400,5.52104833984375,-1.0958921909332275,0.18081611394882202,-0.05742133408784866
1733461187425080000,5.531080078125,-1.1465940475463867,0.08246681094169617,0.009162978269159794
1733461187435037200,5.541037109375,-1.224173903465271,-0.0507018156349659,0.04398229718208313
1733461187445069000,5.551069091796875,-1.2974777221679688,-0.15821409225463867,0.03298672288656235
1733461187455056600,5.561056640625,-1.3555099964141846,-0.19364428520202637,-0.019547687843441963
1733461187465058000,5.57105810546875,-1.3866641521453857,-0.16432274878025055,-0.08674286305904388
1733461187475046000,5.5810458984375,-1.4019356966018677,-0.04337143152952194,-0.1667662113904953
1733461187485077800,5.591077880859375,-1.389107584953308,0.03237585723400116,-0.1820378452539444
1733461187495035000,5.601034912109375,-1.3555099964141846,0.07635815441608429,-0.16371189057826996
1733461187505065500,5.6110654296875,-1.29381263256073,0.0757472887635231,-0.1258382350206375
1733461187515054600,5.6210546875,-1.2125675678253174,0.05314527451992035,-0.08307767659425735
1733461187525054500,5.631054443359375,-1.1239920854568481,0.02382374368607998,-0.033597588539123535
1733461187535043300,5.641043212890625,-1.0378600358963013,-0.01710422709584236,0.02076941914856434
1733461187545075500,5.651075439453125,-0.9291260242462158,-0.07391469180583954,0.07819075137376785
1733461187555032300,5.6610322265625,-0.8802568316459656,-0.09040805697441101,0.09957103431224823
1733461187565064400,5.671064453125,-0.856433093547821,-0.10812314599752426,0.10445795953273773
1733461187575052000,5.681052001953125,-0.8356636762619019,-0.13439035415649414,0.09896016865968704
1733461187585053200,5.69105322265625,-0.8148942589759827,-0.15821409225463867,0.08491026610136032
1733461187595041000,5.701041015625,-0.8045095205307007,-0.1569923609495163,0.05619960278272629
1733461187605072600,5.71107275390625,-0.8069530129432678,-0.13927727937698364,0.01466076634824276
1733461187615030000,5.721030029296875,-0.817948579788208,-0.1062905490398407,-0.06230825558304787
1733461187625062000,5.731061767578125,-0.8332201838493347,-0.07513642311096191,-0.11850785464048386
1733461187635049500,5.741049560546875,-0.8454375267028809,-0.054367005825042725,-0.17348572611808777
1733461187645051000,5.75105078125,-0.8436049222946167,-0.04948008432984352,-0.20830504596233368
1733461187655038500,5.76103857421875,-0.8307767510414124,-0.056810468435287476,-0.21563543379306793
1733461187665070300,5.7710703125,-0.8142833709716797,-0.06719517707824707,-0.1966986060142517
1733461187675058200,5.78105810546875,-0.79840087890625,-0.05497787147760391,-0.16371189057826996
1733461187685059300,5.791059326171875,-0.7770205736160278,-0.021991148591041565,-0.13500121235847473
1733461187695047200,5.801047119140625,-0.7568620443344116,0.05192354694008827,-0.12034045159816742
1733461187705078800,5.811078857421875,-0.7525860071182251,0.07696902006864548,-0.12522737681865692
1733461187715036200,5.8210361328125,-0.7464773058891296,0.05009094998240471,-0.13744467496871948
1733461187725067800,5.83106787109375,-0.7397578358650208,-0.00855211354792118,-0.14844025671482086
1733461187735055600,5.8410556640625,-0.7238753437995911,-0.06230825558304787,-0.15332718193531036
1733461187745055700,5.8510556640625,-0.6957755088806152,-0.08857546001672745,-0.15332718193531036
1733461187755044600,5.861044677734375,-0.6548475623130798,-0.07819075137376785,-0.15760323405265808
1733461187765075200,5.8710751953125,-0.5607742667198181,-0.01160643994808197,-0.16920967400074005
1733461187775033600,5.88103369140625,-0.4801400899887085,0.04092797264456749,-0.17531833052635193
1733461187785064000,5.89106396484375,-0.39217549562454224,0.08979719132184982,-0.1661553531885147
1733461187795053300,5.90105322265625,-0.2871066629886627,0.1319468915462494,-0.1368338167667389
1733461187805053400,5.911053466796875,-0.16065755486488342,0.16371189057826996,-0.09712757170200348
1733461187815042300,5.921042236328125,-0.04214970022439957,0.18875735998153687,-0.045204028487205505
1733461187825072400,5.931072265625,0.04459316283464432,0.15027284622192383,0.005497787147760391
1733461187835031300,5.94103125,0.10995574295520782,-0.09224065393209457,0.0555887371301651
1733461187845063000,5.95106298828125,0.12522737681865692,-0.2883284091949463,0.04886921867728233
1733461187855050800,5.96105078125,0.11362093687057495,-0.4153883755207062,0.024434609338641167
1733461187865052200,5.97105224609375,0.07757988572120667,-0.4343251883983612,0.01160643994808197
1733461187875039700,5.981039794921875,0.029932396486401558,-0.3390302062034607,0.04092797264456749
1733461187885071400,5.9910712890625,-0.00855211354792118,-0.17470745742321014,0.11239920556545258
1733461187895028700,6.00102880859375,-0.04581489413976669,0.01771509274840355,0.2015855312347412
1733461187905060400,6.011060302734375,-0.08918632566928864,0.16859880089759827,0.2779437005519867
1733461187915048400,6.02104833984375,-0.11850785464048386,0.17409659922122955,0.3084869384765625
1733461187925079600,6.03107958984375,-0.10934487730264664,0.030543262138962746,0.25534167885780334
1733461187935037400,6.041037353515625,-0.08857546001672745,-0.15332718193531036,0.1667662113904953
1733461187945068500,6.051068603515625,-0.04214970022439957,-0.2834414839744568,0.06902777403593063
1733461187955057000,6.061056884765625,0.028099801391363144,-0.33292156457901,-0.00733038317412138
1733461187965057300,6.071057373046875,0.1264491081237793,-0.2736676335334778,-0.039706241339445114
1733461187975046000,6.0810458984375,0.23335053026676178,-0.13316862285137177,-0.021380282938480377
1733461187985077000,6.091076904296875,0.3738495409488678,0.11362093687057495,0.0555887371301651
1733461187995035000,6.101034912109375,0.4300491213798523,0.22113321721553802,0.09407325088977814
1733461188005066800,6.111066650390625,0.45326200127601624,0.25961771607398987,0.09529497474431992
1733461188015054600,6.1210546875,0.4447098970413208,0.26083946228027344,0.056810468435287476
1733461188025055700,6.1310556640625,0.40744712948799133,0.21991148591041565,-0.016493361443281174
1733461188035043600,6.141043701171875,0.3481931984424591,0.13316862285137177,-0.11239920556545258
1733461188045075500,6.151075439453125,0.2871066629886627,0.03481931984424591,-0.20463985204696655
1733461188055032300,6.1610322265625,0.23518311977386475,-0.0708603709936142,-0.28649580478668213
1733461188065064400,6.171064453125,0.23090706765651703,-0.08735372871160507,-0.28955012559890747
1733461188075052000,6.181052001953125,0.23945917189121246,-0.07513642311096191,-0.251676470041275
1733461188085053200,6.19105322265625,0.25106561183929443,-0.05192354694008827,-0.18936823308467865
1733461188095041000,6.201041015625,0.2571742534637451,-0.04581489413976669,-0.11972958594560623
1733461188105073000,6.211072998046875,0.24373523890972137,-0.06963863968849182,-0.06352998316287994
1733461188115029200,6.221029296875,0.20830504596233368,-0.11728613078594208,-0.02687807008624077
1733461188125061400,6.231061279296875,0.15577064454555511,-0.18509216606616974,-0.001832595793530345
1733461188135049000,6.241049072265625,0.0806342139840126,-0.2871066629886627,0.031154127791523933
1733461188145050400,6.25105029296875,0.04581489413976669,-0.34086281061172485,0.056810468435287476
1733461188155038200,6.2610380859375,0.02382374368607998,-0.3891211748123169,0.08918632566928864
1733461188165069600,6.271069580078125,0.019547687843441963,-0.4453207552433014,0.12217304855585098
1733461188175057700,6.2810576171875,0.0354301854968071,-0.5161811113357544,0.1417207419872284
1733461188185057500,6.2910576171875,0.07757988572120667,-0.5870414972305298,0.12217304855585098
1733461188195046700,6.301046630859375,0.14905111491680145,-0.6206390857696533,0.04764748737215996
1733461188205077000,6.311076904296875,0.2834414839744568,-0.4911356568336487,-0.17959438264369965
1733461188215036200,6.3210361328125,0.34636059403419495,-0.2669481039047241,-0.3701843321323395
1733461188225067000,6.33106689453125,0.3787364661693573,0.03176499158143997,-0.5546656250953674
1733461188235055600,6.3410556640625,0.375071257352829,0.3536909818649292,-0.7061602473258972
1733461188245056800,6.351056884765625,0.3396410644054413,0.6346889734268188,-0.8057312369346619
1733461188255044600,6.361044677734375,0.26511552929878235,0.8332201838493347,-0.8423831462860107
1733461188265076200,6.371076171875,0.1661553531885147,0.9291260242462158,-0.8191702961921692
1733461188275033600,6.38103369140625,0.012828170321881771,0.8820894360542297,-0.6627888083457947
1733461188285065200,6.391065185546875,-0.08002334833145142,0.6939429044723511,-0.49846604466438293
1733461188295053300,6.40105322265625,-0.14233160018920898,0.37568211555480957,-0.3127630054950714
1733461188305054000,6.411053955078125,-0.16249015927314758,-0.009162978269159794,-0.12828169763088226
1733461188315042300,6.421042236328125,-0.13011430203914642,-0.38728857040405273,0.04092797264456749
1733461188325073400,6.431073486328125,-0.06414084881544113,-0.6572909951210022,0.18631389737129211
1733461188335031300,6.44103125,0.018325956538319588,-0.7837401032447815,0.30543261766433716
1733461188345062400,6.4510625,0.1319468915462494,-0.7648032903671265,0.4031710624694824
1733461188355050800,6.46105078125,0.31031954288482666,-0.5455026626586914,0.5290092825889587
1733461188365051100,6.471051025390625,0.39706242084503174,-0.3646865487098694,0.5962044596672058
1733461188375039700,6.481039794921875,0.4447098970413208,-0.21868975460529327,0.6334672570228577
1733461188385070600,6.491070556640625,0.45631635189056396,-0.1368338167667389,0.6291912198066711
1733461188395028700,6.50102880859375,0.4294382631778717,-0.11301007121801376,0.5717698931694031
1733461188405060600,6.511060546875,0.3781255781650543,-0.13439035415649414,0.45692721009254456
1733461188415048400,6.52104833984375,0.30482175946235657,-0.18081611394882202,0.2993239760398865
1733461188425080000,6.531080078125,0.1875356286764145,-0.21319197118282318,0.03726277872920036
1733461188435037400,6.541037353515625,0.1264491081237793,-0.1313360333442688,-0.10567969083786011
1733461188445069000,6.551069091796875,0.08124507963657379,0.059864792972803116,-0.19303341209888458
1733461188455056600,6.561056640625,0.04764748737215996,0.29993483424186707,-0.21930062770843506
1733461188465058000,6.57105810546875,0.004886921960860491,0.48380526900291443,-0.2070833146572113
1733461188475046000,6.5810458984375,-0.048258353024721146,0.5949827432632446,-0.18448130786418915
1733461188485077500,6.591077392578125,-0.11667526513338089,0.6334672570228577,-0.16371189057826996
1733461188495035000,6.601034912109375,-0.22602014243602753,0.5393940210342407,-0.1508837193250656
1733461188505066000,6.61106591796875,-0.28588494658470154,0.37079519033432007,-0.1466076523065567
1733461188515054600,6.6210546875,-0.30482175946235657,0.12400564551353455,-0.14294247329235077
1733461188525054200,6.63105419921875,-0.2632829248905182,-0.13744467496871948,-0.13255776464939117
1733461188535043300,6.641043212890625,-0.17776179313659668,-0.3194825351238251,-0.10201449692249298
1733461188545074000,6.651073974609375,-0.07391469180583954,-0.40622538328170776,-0.05803219974040985
1733461188555032300,6.6610322265625,0.027488935738801956,-0.42149701714515686,-0.00366519158706069
1733461188565063400,6.6710634765625,0.12278391420841217,-0.36529740691185,0.05009094998240471
1733461188575052000,6.681052001953125,0.2125810980796814,-0.1618792861700058,0.15027284622192383
1733461188585052400,6.691052490234375,0.23579397797584534,-0.012217304669320583,0.22052235901355743
1733461188595041000,6.701041015625,0.22540926933288574,0.07635815441608429,0.28527405858039856
1733461188605072600,6.71107275390625,0.1814269721508026,0.039706241339445114,0.3237585723400116
1733461188615030000,6.721030029296875,0.11850785464048386,-0.09346238523721695,0.3243694305419922
1733461188625061000,6.73106103515625,0.06230825558304787,-0.23151792585849762,0.29016098380088806
1733461188635049500,6.741049560546875,0.03787364438176155,-0.294437050819397,0.23640485107898712
1733461188645050000,6.751050048828125,0.06841690838336945,-0.22357667982578278,0.15027284622192383
1733461188655038500,6.76103857421875,0.13866640627384186,-0.11972958594560623,0.08796459436416626
1733461188665070000,6.771070068359375,0.2064724564552307,0.03848451003432274,0.029932396486401558
1733461188675058200,6.78105810546875,0.23151792585849762,0.21868975460529327,-0.010995574295520782
1733461188685059300,6.791059326171875,0.21380282938480377,0.34086281061172485,-0.021991148591041565
1733461188695047200,6.801047119140625,0.15943582355976105,0.35674530267715454,-0.01038470957428217
1733461188705078500,6.81107861328125,0.07513642311096191,0.27550023794174194,0.009773843921720982
1733461188715036200,6.8210361328125,-0.07757988572120667,0.09712757170200348,0.031154127791523933
1733461188725067800,6.83106787109375,-0.17592918872833252,0.031154127791523933,0.03237585723400116
1733461188735055600,6.8410556640625,-0.2583959996700287,0.04886921867728233,0.03848451003432274
1733461188745057000,6.85105712890625,-0.3225368559360504,0.14477506279945374,0.07941248267889023
1733461188755044600,6.861044677734375,-0.35613444447517395,0.25961771607398987,0.17837265133857727
1733461188765076500,6.871076416015625,-0.37079519033432007,0.3237585723400116,0.3445279896259308
1733461188775033600,6.88103369140625,-0.35613444447517395,0.2889392673969269,0.5601634383201599
1733461188785065200,6.891065185546875,-0.313373863697052,0.1472185254096985,0.7922922372817993
1733461188795053300,6.90105322265625,-0.24617868661880493,-0.17776179313659668,1.0506882667541504
1733461188805054200,6.91105419921875,-0.20097467303276062,-0.37140607833862305,1.0958921909332275
1733461188815042300,6.921042236328125,-0.14782938361167908,-0.5094616413116455,1.018923282623291
1733461188825073200,6.9310732421875,-0.06780604273080826,-0.5656611919403076,0.8387179970741272
1733461188835031300,6.94103125,0.039706241339445114,-0.5204572081565857,0.5925393104553223
1733461188845062400,6.9510625,0.18020524084568024,-0.36529740691185,0.323147714138031
1733461188855050800,6.96105078125,0.33719760179519653,-0.11056660860776901,0.0757472887635231
1733461188865052200,6.97105224609375,0.5283984541893005,0.35063666105270386,-0.18081611394882202
1733461188875039700,6.981039794921875,0.5833762884140015,0.4966334402561188,-0.28038713335990906
1733461188885071600,6.991071533203125,0.5919284224510193,0.4306600093841553,-0.33536502718925476
1733461188895029000,7.001029052734375,0.5442809462547302,0.22907446324825287,-0.35613444447517395
1733461188905059300,7.011059326171875,0.4245513379573822,0.001832595793530345,-0.3500257730484009
1733461188915048400,7.02104833984375,0.24862214922904968,-0.15577064454555511,-0.33047810196876526
1733461188925078500,7.03107861328125,0.04459316283464432,-0.19425514340400696,-0.31031954288482666
1733461188935037400,7.041037353515625,-0.2541199326515198,-0.016493361443281174,-0.28527405858039856
1733461188945069300,7.0510693359375,-0.3744603991508484,0.17470745742321014,-0.26633724570274353
1733461188955057000,7.061056884765625,-0.4251621961593628,0.32070425152778625,-0.2431243658065796
1733461188965058300,7.071058349609375,-0.42149701714515686,0.4105014503002167,-0.22052235901355743
1733461188975046000,7.0810458984375,-0.37262779474258423,0.4746423065662384,-0.20525072515010834
1733461188985077000,7.091076904296875,-0.3017674386501312,0.5070181488990784,-0.18997909128665924
1733461188995035100,7.10103515625,-0.22357667982578278,0.5088507533073425,-0.16982053220272064
1733461189005066000,7.11106591796875,-0.16065755486488342,0.46731191873550415,-0.1362229436635971
1733461189015054600,7.1210546875,-0.1160643994808197,0.303600013256073,-0.0708603709936142
1733461189025055500,7.131055419921875,-0.09834930300712585,0.1514945775270462,-0.039095375686883926
1733461189035043600,7.141043701171875,-0.07696902006864548,0.01771509274840355,-0.03726277872920036
1733461189045101800,7.151101806640625,-0.051312681287527084,-0.04764748737215996,-0.0757472887635231
1733461189055032300,7.1610322265625,-0.027488935738801956,-0.051312681287527084,-0.14477506279945374
1733461189065064200,7.171064208984375,-0.00733038317412138,-0.03848451003432274,-0.22907446324825287
1733461189075052000,7.181052001953125,0.006108652334660292,-0.02015855349600315,-0.31520646810531616
1733461189085053200,7.19105322265625,0.018936822190880775,0.02871066704392433,-0.4098905920982361
1733461189095041000,7.201041015625,0.029932396486401558,0.1111774742603302,-0.4434881806373596
1733461189105072600,7.21107275390625,0.028099801391363144,0.21868975460529327,-0.44165557622909546
1733461189115029200,7.221029296875,0.01771509274840355,0.3078760802745819,-0.4129449129104614
1733461189125061400,7.231061279296875,-0.00733038317412138,0.38117989897727966,-0.36651915311813354
1733461189135049000,7.241049072265625,-0.04642575979232788,0.4105014503002167,-0.3219259977340698
1733461189145050000,7.251050048828125,-0.08246681094169617,0.40133845806121826,-0.28955012559890747
1733461189155038200,7.2610380859375,-0.14416420459747314,0.3793473243713379,-0.25106561183929443
1733461189165069800,7.27106982421875,-0.18325957655906677,0.34025195240974426,-0.20891591906547546
1733461189175057700,7.2810576171875,-0.21135938167572021,0.24190263450145721,-0.1411098688840866
1733461189185058800,7.291058837890625,-0.2278527319431305,0.10018189996480942,-0.0507018156349659
1733461189195047000,7.301046875,-0.21135938167572021,-0.04948008432984352,0.051312681287527084
1733461189205078000,7.311078125,-0.1618792861700058,-0.1368338167667389,0.14294247329235077
1733461189215036200,7.3210361328125,-0.10384709388017654,-0.13805554807186127,0.19364428520202637
1733461189225067300,7.3310673828125,-0.03481931984424591,-0.07024950534105301,0.19914206862449646
1733461189235055600,7.3410556640625,0.06902777403593063,0.02932153269648552,0.13927727937698364
1733461189245056000,7.351055908203125,0.11178833991289139,0.06536258012056351,0.09285151958465576
1733461189255044600,7.361044677734375,0.1313360333442688,0.0659734457731247,0.07208210229873657
1733461189265076500,7.371076416015625,0.11850785464048386,0.04459316283464432,0.08552113175392151
1733461189275033600,7.38103369140625,0.07269296050071716,0.021991148591041565,0.11423180252313614
1733461189285065500,7.3910654296875,-0.003054326167330146,-0.013439035043120384,0.14233160018920898
1733461189295053300,7.40105322265625,-0.07757988572120667,-0.054367005825042725,0.1508837193250656
1733461189305054500,7.411054443359375,-0.16493362188339233,-0.027488935738801956,0.1264491081237793
1733461189315042300,7.421042236328125,-0.19792033731937408,0.04948008432984352,0.08429940044879913
1733461189325074000,7.431073974609375,-0.2064724564552307,0.11056660860776901,0.02871066704392433
1733461189335031300,7.44103125,-0.192422553896904,0.11056660860776901,-0.02871066704392433
1733461189345063000,7.45106298828125,-0.15821409225463867,0.06414084881544113,-0.07635815441608429
1733461189355050800,7.46105078125,-0.09346238523721695,0.0024434609804302454,-0.10690141469240189
1733461189365052200,7.47105224609375,0.006108652334660292,-0.031154127791523933,-0.09834930300712585
1733461189375039700,7.481039794921875,0.17898350954055786,-0.007941247895359993,0.039706241339445114
1733461189385071600,7.491071533203125,0.2577851414680481,-0.03298672288656235,0.251676470041275
1733461189395028700,7.50102880859375,0.26633724570274353,-0.14416420459747314,0.5345070958137512
1733461189405060400,7.511060302734375,0.23396138846874237,-0.32620203495025635,0.827722430229187
1733461189415048400,7.52104833984375,0.18936823308467865,-0.5271766781806946,1.072068452835083
1733461189425079600,7.53107958984375,0.1472185254096985,-0.6572909951210022,1.2021827697753906
1733461189435037400,7.541037353515625,0.12217304855585098,-0.6481280326843262,1.2046263217926025
1733461189445067800,7.55106787109375,0.11667526513338089,-0.5125159621238708,1.0873401165008545
1733461189455057000,7.561056884765625,0.12217304855585098,-0.2883284091949463,0.7648032903671265
1733461189465056800,7.571056884765625,0.1062905490398407,-0.24678955972194672,0.523511528968811
1733461189475046000,7.5810458984375,0.08552113175392151,-0.3219259977340698,0.3017674386501312
1733461189485076500,7.591076416015625,0.06841690838336945,-0.43676865100860596,0.11545353382825851
1733461189495035000,7.601034912109375,0.06169738993048668,-0.5021312236785889,-0.02687807008624077
1733461189505065500,7.6110654296875,0.0757472887635231,-0.4948008358478546,-0.12095131725072861
1733461189515054600,7.6210546875,0.11789698898792267,-0.43737950921058655,-0.1771509200334549
1733461189525054200,7.63105419921875,0.23273965716362,-0.27061331272125244,-0.20463985204696655
1733461189535043300,7.641043212890625,0.34208452701568604,-0.11301007121801376,-0.18997909128665924
1733461189545074700,7.65107470703125,0.44593164324760437,0.07880161702632904,-0.15943582355976105
1733461189555032300,7.6610322265625,0.49785518646240234,0.2577851414680481,-0.12400564551353455
1733461189565064400,7.671064453125,0.5076290369033813,0.35246923565864563,-0.10018189996480942
1733461189575052000,7.681052001953125,0.4960225820541382,0.35613444447517395,-0.0910189226269722
1733461189585053200,7.69105322265625,0.45875978469848633,0.3017674386501312,-0.09468411654233932
1733461189595041000,7.701041015625,0.3677408695220947,0.18570303916931152,-0.11178833991289139
1733461189605072600,7.71107275390625,0.3127630054950714,0.10873401165008545,-0.12522737681865692
1733461189615030000,7.721030029296875,0.2773328125476837,0.02932153269648552,-0.13255776464939117
1733461189625061400,7.731061279296875,0.2675589919090271,-0.04092797264456749,-0.12889257073402405
1733461189635049500,7.741049560546875,0.26572638750076294,-0.09040805697441101,-0.10873401165008545
1733461189645051000,7.75105078125,0.2583959996700287,-0.1258382350206375,-0.07147123664617538
1733461189655038500,7.76103857421875,0.24495697021484375,-0.15332718193531036,-0.02687807008624077
1733461189665070000,7.771070068359375,0.2223549485206604,-0.17592918872833252,0.01160643994808197
1733461189675058200,7.78105810546875,0.17348572611808777,-0.13439035415649414,0.05009094998240471
1733461189685058600,7.79105859375,0.16004669666290283,-0.07024950534105301,0.05253441259264946
1733461189695047200,7.801047119140625,0.16493362188339233,0.006108652334660292,0.04459316283464432
1733461189705078300,7.811078369140625,0.18570303916931152,0.0757472887635231,0.021380282938480377
1733461189715036400,7.821036376953125,0.2125810980796814,0.13805554807186127,-0.005497787147760391
1733461189725067800,7.83106787109375,0.2321287989616394,0.1667662113904953,-0.03237585723400116
1733461189735055600,7.8410556640625,0.2278527319431305,0.1722639948129654,-0.054367005825042725
1733461189745057000,7.85105712890625,0.17287486791610718,0.1160643994808197,-0.07880161702632904
1733461189755044600,7.861044677734375,0.11789698898792267,0.039095375686883926,-0.08246681094169617
1733461189765075700,7.87107568359375,0.07819075137376785,-0.04948008432984352,-0.07757988572120667
1733461189775033600,7.88103369140625,0.04764748737215996,-0.10323622822761536,-0.06963863968849182
1733461189785064700,7.891064697265625,0.036651913076639175,-0.09162978827953339,-0.07024950534105301
1733461189795053300,7.90105322265625,0.04948008432984352,-0.016493361443281174,-0.07757988572120667
1733461189805053700,7.9110537109375,0.0806342139840126,0.09651670604944229,-0.08491026610136032
1733461189815042300,7.921042236328125,0.15943582355976105,0.27122417092323303,-0.08002334833145142
1733461189825073400,7.931073486328125,0.21135938167572021,0.3243694305419922,-0.07391469180583954
1733461189835031300,7.94103125,0.26572638750076294,0.29504790902137756,-0.07269296050071716
1733461189845063000,7.95106298828125,0.29504790902137756,0.21074850857257843,-0.07880161702632904
1733461189855050800,7.96105078125,0.29138273000717163,0.12278391420841217,-0.09529497474431992
1733461189865052200,7.97105224609375,0.24007004499435425,0.04948008432984352,-0.10751228034496307
1733461189875039700,7.981039794921875,0.15515977144241333,-0.009162978269159794,-0.11301007121801376
1733461189885070300,7.9910703125,0.031154127791523933,-0.06230825558304787,-0.10690141469240189
1733461189895029000,8.001029052734374,-0.15515977144241333,-0.2028072625398636,-0.08552113175392151
1733461189905060400,8.011060302734375,-0.23090706765651703,-0.29138273000717163,-0.09407325088977814
1733461189915048400,8.02104833984375,-0.2571742534637451,-0.30604347586631775,-0.13255776464939117
1733461189925080000,8.031080078125,-0.2541199326515198,-0.21380282938480377,-0.20036379992961884
1733461189935037200,8.041037109375,-0.24617868661880493,-0.04398229718208313,-0.2724458873271942
1733461189945069000,8.051069091796874,-0.2278527319431305,0.13500121235847473,-0.32559117674827576
1733461189955057000,8.061056884765625,-0.20341812074184418,0.3029891550540924,-0.35613444447517395
1733461189965058000,8.07105810546875,-0.1411098688840866,0.5381723046302795,-0.3689626157283783
1733461189975046100,8.081046142578124,-0.11178833991289139,0.6786713004112244,-0.35063666105270386
1733461189985077800,8.091077880859375,-0.11789698898792267,0.7458664774894714,-0.29077184200286865
1733461189995035000,8.101034912109375,-0.18387043476104736,0.6579018831253052,-0.16493362188339233
1733461190005066500,8.11106640625,-0.32620203495025635,0.37690386176109314,0.04642575979232788
1733461190015054600,8.1210546875,-0.5180137157440186,-0.0757472887635231,0.32681289315223694
1733461190025055700,8.1310556640625,-0.684779942035675,-0.6310238242149353,0.616973876953125
1733461190035043600,8.141043701171874,-0.7929030656814575,-1.2479976415634155,0.9327912330627441
1733461190045074000,8.151073974609375,-0.7929030656814575,-1.3298536539077759,1.0030407905578613
1733461190055032300,8.1610322265625,-0.7147123217582703,-1.176526427268982,0.9627236127853394
1733461190065063200,8.171063232421876,-0.5326744914054871,-0.8576548099517822,0.8295549750328064
1733461190075052000,8.181052001953125,-0.28466320037841797,-0.44776421785354614,0.6450737118721008
1733461190085052000,8.191052001953125,-0.033597588539123535,-0.013439035043120384,0.4386012554168701
1733461190095041000,8.201041015625,0.16920967400074005,0.38179078698158264,0.22846360504627228
1733461190105072600,8.21107275390625,0.2974913716316223,0.6102544069290161,0.030543262138962746
1733461190115029200,8.221029296875,0.403781920671463,0.5992587804794312,-0.19792033731937408
1733461190125061400,8.231061279296876,0.38606682419776917,0.4642575979232788,-0.30970868468284607
1733461190135049000,8.241049072265625,0.3029891550540924,0.30054569244384766,-0.3988949954509735
1733461190145049000,8.251049072265625,0.1814269721508026,0.1661553531885147,-0.4593706727027893
1733461190155038200,8.2610380859375,0.04153883829712868,0.09040805697441101,-0.4813618063926697
1733461190165069600,8.271069580078125,-0.09162978827953339,0.07880161702632904,-0.4605923891067505
1733461190175057700,8.2810576171875,-0.2076941877603531,0.10567969083786011,-0.40194934606552124
1733461190185058800,8.291058837890626,-0.3646865487098694,0.17287486791610718,-0.26511552929878235
1733461190195046700,8.301046630859375,-0.45875978469848633,0.18020524084568024,-0.16737708449363708
1733461190205078300,8.311078369140626,-0.5424483418464661,0.1459967941045761,-0.08002334833145142
1733461190215036200,8.3210361328125,-0.6010913848876953,0.06658431142568588,-0.012828170321881771
1733461190225068000,8.331068115234375,-0.6285803318023682,-0.021380282938480377,0.02687807008624077
1733461190235055600,8.3410556640625,-0.6224716901779175,-0.08002334833145142,0.042760565876960754
1733461190245056300,8.35105615234375,-0.5913175344467163,-0.10262536257505417,0.04398229718208313
1733461190255044600,8.361044677734375,-0.5094616413116455,-0.09834930300712585,0.03481931984424591
1733461190265075200,8.3710751953125,-0.4282165467739105,-0.07391469180583954,0.022602014243602753
1733461190275033600,8.38103369140625,-0.3396410644054413,-0.02687807008624077,0.010995574295520782
1733461190285064400,8.391064453125,-0.25045475363731384,0.029932396486401558,0.00427605677396059
1733461190295053300,8.40105322265625,-0.16310101747512817,0.06902777403593063,-0.009162978269159794
1733461190305054200,8.41105419921875,-0.08735372871160507,0.07880161702632904,-0.03176499158143997
1733461190315042300,8.421042236328125,-0.025656340643763542,0.05314527451992035,-0.07330382615327835
1733461190325073700,8.43107373046875,0.018936822190880775,0.012217304669320583,-0.11667526513338089
1733461190335031300,8.44103125,0.05375614017248154,-0.03481931984424591,-0.17104226350784302
1733461190345062400,8.4510625,0.060475658625364304,-0.04337143152952194,-0.19547687470912933
1733461190355050800,8.46105078125,0.07330382615327835,-0.02382374368607998,-0.21991148591041565
1733461190365051400,8.471051513671876,0.08735372871160507,0.039095375686883926,-0.26022860407829285
1733461190375039700,8.481039794921875,0.10201449692249298,0.15332718193531036,-0.3072652220726013
1733461190385070600,8.491070556640626,0.11789698898792267,0.3029891550540924,-0.3384193480014801
1733461190395028700,8.50102880859375,0.12889257073402405,0.4447098970413208,-0.34147366881370544
1733461190405060600,8.511060546875,0.10201449692249298,0.5320636034011841,-0.2675589919090271
1733461190415048400,8.52104833984375,0.06352998316287994,0.4905247986316681,-0.18509216606616974
1733461190425080000,8.531080078125,-0.00427605677396059,0.3732386529445648,-0.10323622822761536
1733461190435037400,8.541037353515625,-0.07452555745840073,0.21502456068992615,-0.04398229718208313
1733461190445068300,8.551068359375,-0.12889257073402405,0.05375614017248154,-0.024434609338641167
1733461190455056600,8.561056640625,-0.16493362188339233,-0.07208210229873657,-0.029932396486401558
1733461190465057300,8.571057373046875,-0.18509216606616974,-0.13377949595451355,-0.04764748737215996
1733461190475046000,8.5810458984375,-0.19975294172763824,-0.17104226350784302,-0.07513642311096191
1733461190485077200,8.5910771484375,-0.17776179313659668,-0.19058994948863983,-0.08429940044879913
1733461190495035000,8.601034912109375,-0.1368338167667389,-0.182648703455925,-0.08429940044879913
1733461190505066000,8.61106591796875,-0.08429940044879913,-0.13500121235847473,-0.09162978827953339
1733461190515054600,8.6210546875,-0.04337143152952194,-0.02871066704392433,-0.11911872029304504
1733461190525055500,8.631055419921875,-0.02321287989616394,0.13866640627384186,-0.16065755486488342
1733461190535043300,8.641043212890626,-0.039706241339445114,0.3378084897994995,-0.2015855312347412
1733461190545075200,8.6510751953125,-0.08674286305904388,0.5253441333770752,-0.23640485107898712
1733461190555032300,8.6610322265625,-0.19120082259178162,0.6780604124069214,-0.2840523421764374
1733461190565064200,8.671064208984374,-0.2669481039047241,0.6682865619659424,-0.3084869384765625
1733461190575052000,8.681052001953125,-0.3384193480014801,0.6023131608963013,-0.3225368559360504
1733461190585053000,8.691052978515625,-0.36224308609962463,0.5387831330299377,-0.33047810196876526
1733461190595041000,8.701041015625,-0.31520646810531616,0.5149593949317932,-0.33475416898727417
1733461190605071400,8.7110712890625,-0.1973094791173935,0.5241223573684692,-0.32620203495025635
1733461190615030000,8.721030029296875,-0.02871066704392433,0.4996877610683441,-0.2773328125476837
1733461190625060000,8.73106005859375,0.19303341209888458,0.26572638750076294,-0.06719517707824707
1733461190635049500,8.741049560546875,0.242513507604599,-0.00366519158706069,0.18509216606616974
1733461190645049900,8.7510498046875,0.2119702398777008,-0.27977627515792847,0.5222898125648499
1733461190655038500,8.76103857421875,0.1160643994808197,-0.47708576917648315,0.8979719281196594
1733461190665069600,8.771069580078125,-0.025045474991202354,-0.5968153476715088,1.2486085891723633
1733461190675058200,8.78105810546875,-0.15027284622192383,-0.6688974499702454,1.4966198205947876
1733461190685058000,8.79105810546875,-0.24007004499435425,-0.6878342628479004,1.6029103994369507
1733461190695047200,8.801047119140625,-0.3078760802745819,-0.645684540271759,1.4593570232391357
1733461190705079800,8.811079833984374,-0.28955012559890747,-0.6444628238677979,1.1844676733016968
1733461190715036200,8.8210361328125,-0.23090706765651703,-0.6621779203414917,0.8295549750328064
1733461190725068500,8.831068603515625,-0.1368338167667389,-0.6542366743087769,0.45814892649650574
1733461190735055600,8.8410556640625,-0.022602014243602753,-0.5998696684837341,0.12889257073402405
1733461190745057800,8.851057861328124,0.0861319974064827,-0.4893030524253845,-0.10812314599752426
1733461190755044600,8.861044677734375,0.17959438264369965,-0.3433062732219696,-0.23273965716362
1733461190765075200,8.8710751953125,0.2736676335334778,-0.17898350954055786,-0.2687807083129883
1733461190775033600,8.88103369140625,0.42088615894317627,0.13072516024112701,-0.24556782841682434
1733461190785064200,8.891064208984375,0.48808133602142334,0.33475416898727417,-0.23518311977386475
1733461190795053300,8.90105322265625,0.513126790523529,0.4648684561252594,-0.23945917189121246
1733461190805054500,8.911054443359374,0.5247332453727722,0.48685958981513977,-0.252287358045578
1733461190815042300,8.921042236328125,0.5204572081565857,0.4129449129104614,-0.27122417092323303
1733461190825074000,8.931073974609374,0.4996877610683441,0.2730567753314972,-0.2932153046131134
1733461190835031300,8.94103125,0.47708576917648315,0.09712757170200348,-0.3066543638706207
1733461190845063000,8.95106298828125,0.44715335965156555,-0.19608774781227112,-0.2840523421764374
1733461190855050800,8.96105078125,0.4398229718208313,-0.34025195240974426,-0.23029619455337524
1733461190865052200,8.97105224609375,0.44715335965156555,-0.413555771112442,-0.16432274878025055
1733461190875039700,8.981039794921875,0.45814892649650574,-0.4092797040939331,-0.10751228034496307
1733461190885071600,8.991071533203124,0.46792277693748474,-0.3530801236629486,-0.08002334833145142
1733461190895028700,9.00102880859375,0.4697553813457489,-0.28527405858039856,-0.0806342139840126
1733461190905060900,9.011060791015625,0.4599815309047699,-0.23396138846874237,-0.09957103431224823
1733461190915048400,9.02104833984375,0.4245513379573822,-0.1771509200334549,-0.13072516024112701
1733461190925080300,9.031080322265625,0.3781255781650543,-0.14233160018920898,-0.1319468915462494
1733461190935037200,9.041037109375,0.32131510972976685,-0.1160643994808197,-0.10751228034496307
1733461190945069300,9.0510693359375,0.26511552929878235,-0.10323622822761536,-0.060475658625364304
1733461190955057000,9.061056884765625,0.21074850857257843,-0.09224065393209457,0.0012217304902151227
1733461190965058300,9.071058349609375,0.14844025671482086,-0.07330382615327835,0.054367005825042725
1733461190975046000,9.0810458984375,0.08796459436416626,-0.051312681287527084,0.07819075137376785
1733461190985077500,9.091077392578125,0.02871066704392433,-0.0354301854968071,0.06658431142568588
1733461190995035100,9.10103515625,-0.06902777403593063,0.0012217304902151227,-0.01160643994808197
1733461191005066800,9.111066650390624,-0.13377949595451355,0.0354301854968071,-0.08002334833145142
1733461191015054600,9.1210546875,-0.1814269721508026,0.07757988572120667,-0.14049901068210602
1733461191025055200,9.13105517578125,-0.2070833146572113,0.09773843735456467,-0.17898350954055786
1733461191035043600,9.141043701171874,-0.22113321721553802,0.07757988572120667,-0.20341812074184418
1733461191045105200,9.151105224609376,-0.21319197118282318,0.04886921867728233,-0.21624629199504852
1733461191055032600,9.161032470703125,-0.18631389737129211,0.03787364438176155,-0.20891591906547546
1733461191065064000,9.17106396484375,-0.10812314599752426,0.07452555745840073,-0.19364428520202637
1733461191075052000,9.181052001953125,-0.04764748737215996,0.11789698898792267,-0.1875356286764145
1733461191085052700,9.191052734375,0.0012217304902151227,0.16065755486488342,-0.1771509200334549
1733461191095041000,9.201041015625,0.021380282938480377,0.17348572611808777,-0.15271630883216858
1733461191105072600,9.21107275390625,0.007941247895359993,0.1466076523065567,-0.11056660860776901
1733461191115029200,9.221029296875,-0.03787364438176155,0.08246681094169617,-0.05009094998240471
1733461191125061400,9.231061279296876,-0.10751228034496307,-0.0024434609804302454,0.01710422709584236
1733461191135049000,9.241049072265625,-0.19303341209888458,-0.09712757170200348,0.1258382350206375
1733461191145049900,9.2510498046875,-0.2724458873271942,-0.22968533635139465,0.19547687470912933
1733461191155038200,9.2610380859375,-0.24862214922904968,-0.2926044464111328,0.24434609711170197
1733461191165069000,9.271069091796875,-0.16737708449363708,-0.304210901260376,0.2535090744495392
1733461191175057700,9.2810576171875,-0.06780604273080826,-0.26633724570274353,0.2321287989616394
1733461191185058300,9.291058349609376,0.01710422709584236,-0.19914206862449646,0.1966986060142517
1733461191195046700,9.301046630859375,0.06658431142568588,-0.10995574295520782,0.16004669666290283
1733461191205078300,9.311078369140626,0.08979719132184982,0.007941247895359993,0.1313360333442688
1733461191215036200,9.3210361328125,0.07819075137376785,0.24190263450145721,0.11178833991289139
1733461191225067800,9.33106787109375,0.03787364438176155,0.37079519033432007,0.11484266817569733
1733461191235055600,9.3410556640625,-0.02076941914856434,0.40072759985923767,0.152105450630188
1733461191245056800,9.351056884765624,-0.08552113175392151,0.32070425152778625,0.22846360504627228
1733461191255044600,9.361044677734375,-0.14416420459747314,0.13805554807186127,0.3286454975605011
1733461191265076500,9.371076416015624,-0.19486601650714874,-0.13439035415649414,0.42638394236564636
1733461191275033900,9.381033935546874,-0.23640485107898712,-0.4355469346046448,0.5070181488990784
1733461191285065500,9.3910654296875,-0.24068090319633484,-0.808174729347229,0.5699372887611389
1733461191295053300,9.40105322265625,-0.2125810980796814,-0.9340129494667053,0.5864306092262268
1733461191305053000,9.411052978515626,-0.14905111491680145,-0.9395107626914978,0.5894849896430969
1733461191315042300,9.421042236328125,-0.05253441259264946,-0.8411614298820496,0.5766568183898926
1733461191325072600,9.43107275390625,0.06536258012056351,-0.6780604124069214,0.5461135506629944
1733461191335031300,9.44103125,0.19425514340400696,-0.46181413531303406,0.4899139404296875
1733461191345062400,9.4510625,0.29993483424186707,-0.2119702398777008,0.3988949954509735
1733461191355050800,9.46105078125,0.34758231043815613,0.04214970022439957,0.2638937830924988
1733461191365051000,9.47105078125,0.251676470041275,0.3597996234893799,-0.03176499158143997
1733461191375039700,9.481039794921875,0.10690141469240189,0.44593164324760437,-0.24678955972194672
1733461191385071400,9.4910712890625,-0.03176499158143997,0.4184426963329315,-0.4349360466003418
1733461191395028700,9.50102880859375,-0.16004669666290283,0.3396410644054413,-0.5699372887611389
1733461191405060400,9.511060302734375,-0.24129177629947662,0.25961771607398987,-0.646295428276062
1733461191415048400,9.52104833984375,-0.2571742534637451,0.2223549485206604,-0.6572909951210022
1733461191425078800,9.531078857421875,-0.21013765037059784,0.2474004179239273,-0.6108652353286743
1733461191435037400,9.541037353515625,-0.07635815441608429,0.3176499307155609,-0.4331034719944
1733461191445068500,9.551068603515626,0.02932153269648552,0.33169981837272644,-0.2742784917354584
1733461191455056600,9.561056640625,0.12217304855585098,0.3090978264808655,-0.11362093687057495
1733461191465057300,9.571057373046875,0.18570303916931152,0.2767219543457031,-0.0012217304902151227
1733461191475046000,9.5810458984375,0.21930062770843506,0.2675589919090271,0.039706241339445114
1733461191485077000,9.591076904296875,0.24190263450145721,0.2840523421764374,0.01160643994808197
1733461191495035000,9.601034912109375,0.2681698501110077,0.2968805134296417,-0.04948008432984352
1733461191505066000,9.61106591796875,0.32131510972976685,0.2638937830924988,-0.1258382350206375
1733461191515054600,9.6210546875,0.37262779474258423,0.2021963894367218,-0.1313360333442688
1733461191525054700,9.6310546875,0.42638394236564636,0.1215621829032898,-0.1007927656173706
1733461191535043600,9.641043701171874,0.4697553813457489,0.039095375686883926,-0.04398229718208313
1733461191545075200,9.6510751953125,0.5002986192703247,-0.05253441259264946,0.010995574295520782
1733461191555032300,9.6610322265625,0.5247332453727722,-0.1160643994808197,0.0403171069920063
1733461191565063400,9.6710634765625,0.5375614166259766,-0.14782938361167908,0.03726277872920036
1733461191575052000,9.681052001953125,0.5424483418464661,-0.1661553531885147,-0.021380282938480377
1733461191585052700,9.691052734375,0.5369505286216736,-0.12828169763088226,-0.18509216606616974
1733461191595041000,9.701041015625,0.5241223573684692,-0.012828170321881771,-0.30543261766433716
1733461191605072600,9.71107275390625,0.49846604466438293,0.1771509200334549,-0.39645153284072876
1733461191615030000,9.721030029296875,0.4599815309047699,0.34025195240974426,-0.42760565876960754
1733461191625062000,9.731061767578124,0.41172316670417786,0.4147774875164032,-0.394618958234787
1733461191635049500,9.741049560546875,0.34697145223617554,0.4153883755207062,-0.3066543638706207
1733461191645050600,9.751050537109375,0.2730567753314972,0.3646865487098694,-0.20097467303276062
1733461191655038500,9.76103857421875,0.1514945775270462,0.27000242471694946,-0.07880161702632904
1733461191665069600,9.771069580078125,0.09529497474431992,0.19975294172763824,-0.04214970022439957
1733461191675058200,9.78105810546875,0.0507018156349659,0.12950342893600464,-0.033597588539123535
1733461191685058600,9.79105859375,0.021380282938480377,0.05742133408784866,-0.03787364438176155
1733461191695047200,9.801047119140625,0.00366519158706069,-0.012828170321881771,-0.03726277872920036
1733461191705078500,9.81107861328125,-0.007941247895359993,-0.0708603709936142,-0.03420845419168472
1733461191715036200,9.8210361328125,-0.006719517521560192,-0.09712757170200348,-0.03848451003432274
1733461191725067000,9.83106689453125,0.02871066704392433,-0.06658431142568588,-0.059864792972803116
1733461191735056000,9.841055908203124,0.06414084881544113,-0.03420845419168472,-0.08429940044879913
1733461191745056300,9.85105615234375,0.10690141469240189,-0.01466076634824276,-0.11239920556545258
1733461191755044600,9.861044677734375,0.14905111491680145,-0.006108652334660292,-0.14844025671482086
1733461191765075700,9.87107568359375,0.16982053220272064,0.019547687843441963,-0.1875356286764145
1733461191775033600,9.88103369140625,0.17287486791610718,0.045204028487205505,-0.22357667982578278
1733461191785065000,9.89106494140625,0.14782938361167908,0.07696902006864548,-0.251676470041275
1733461191795053300,9.90105322265625,0.10018189996480942,0.1007927656173706,-0.2669481039047241
1733461191805054200,9.91105419921875,0.003054326167330146,0.12767083942890167,-0.27061331272125244
1733461191815042300,9.921042236328125,-0.07819075137376785,0.16737708449363708,-0.2590068578720093
1733461191825074000,9.931073974609374,-0.17837265133857727,0.20097467303276062,-0.24129177629947662
1733461191835031300,9.94103125,-0.28649580478668213,0.242513507604599,-0.20891591906547546
1733461191845063200,9.951063232421875,-0.38240164518356323,0.25595253705978394,-0.16249015927314758
1733461191855050800,9.96105078125,-0.4605923891067505,0.22968533635139465,-0.10751228034496307
1733461191865052200,9.97105224609375,-0.513737678527832,0.2028072625398636,-0.051312681287527084
1733461191875039700,9.981039794921875,-0.4966334402561188,0.16859880089759827,-0.0006108652451075613
1733461191885071600,9.991071533203124,-0.4343251883983612,0.1612684279680252,0.009162978269159794
1733461191895028700,10.00102880859375,-0.33536502718925476,0.16004669666290283,0.018936822190880775
1733461191905060600,10.011060546875,-0.20097467303276062,0.13561208546161652,0.05009094998240471
1733461191915048400,10.02104833984375,-0.05803219974040985,0.054367005825042725,0.10873401165008545
1733461191925079300,10.031079345703125,0.06230825558304787,-0.06658431142568588,0.19058994948863983
1733461191935037200,10.041037109375,0.15393804013729095,-0.19547687470912933,0.2993239760398865
1733461191945068500,10.051068603515626,0.1014036312699318,-0.3836233615875244,0.484416127204895
1733461191955057000,10.061056884765625,-0.08307767659425735,-0.4544837474822998,0.5772676467895508
1733461191965059000,10.07105908203125,-0.34025195240974426,-0.4343251883983612,0.6035348773002625
1733461191975046000,10.0810458984375,-0.6053674817085266,-0.25106561183929443,0.5265658497810364
1733461191985077200,10.0910771484375,-0.8283332586288452,0.039706241339445114,0.33047810196876526
1733461191995035100,10.10103515625,-0.9492846131324768,0.2675589919090271,0.09407325088977814
1733461192005067800,10.11106787109375,-0.9535606503486633,0.38240164518356323,-0.11301007121801376
1733461192015054600,10.1210546875,-0.901637077331543,0.37262779474258423,-0.2541199326515198
1733461192025056800,10.131056884765625,-0.7470881938934326,0.13988813757896423,-0.30970868468284607
1733461192035043600,10.141043701171874,-0.588874101638794,-0.07696902006864548,-0.27611109614372253
1733461192045076200,10.151076171875,-0.40622538328170776,-0.30482175946235657,-0.20952677726745605
1733461192055032600,10.161032470703125,-0.20402899384498596,-0.4691445231437683,-0.11789698898792267
1733461192065063000,10.17106298828125,0.003054326167330146,-0.503963828086853,-0.016493361443281174
1733461192075052000,10.181052001953125,0.18936823308467865,-0.3842342495918274,0.07757988572120667
1733461192085052000,10.191052001953125,0.3579670190811157,-0.1765400618314743,0.13988813757896423
1733461192095041000,10.201041015625,0.5705481171607971,0.12767083942890167,0.15515977144241333
1733461192105072400,10.211072265625,0.6633996367454529,0.294437050819397,0.13072516024112701
1733461192115029200,10.221029296875,0.7079927921295166,0.37262779474258423,0.0861319974064827
1733461192125061400,10.231061279296876,0.7153232097625732,0.33536502718925476,0.03848451003432274
1733461192135049000,10.241049072265625,0.7141014933586121,0.21013765037059784,-0.006719517521560192
1733461192145050600,10.251050537109375,0.6939429044723511,0.06108652427792549,-0.033597588539123535
1733461192155038200,10.2610380859375,0.6597344875335693,-0.04703662544488907,-0.02015855349600315
1733461192165069600,10.271069580078125,0.5974262356758118,-0.11056660860776901,0.08368854224681854
1733461192175057700,10.2810576171875,0.543059229850769,-0.11484266817569733,0.17959438264369965
1733461192185058800,10.291058837890626,0.47280970215797424,-0.12400564551353455,0.26511552929878235
1733461192195046700,10.301046630859375,0.394618958234787,-0.16982053220272064,0.3121521472930908
1733461192205078500,10.31107861328125,0.30054569244384766,-0.24678955972194672,0.3176499307155609
1733461192215036200,10.3210361328125,0.22052235901355743,-0.3323107063770294,0.2871066629886627
1733461192225067800,10.33106787109375,0.16737708449363708,-0.3927863538265228,0.23457226157188416
1733461192235055900,10.341055908203124,0.1319468915462494,-0.4086688458919525,0.17776179313659668
1733461192245056800,10.351056884765624,0.09712757170200348,-0.3597996234893799,0.1007927656173706
1733461192255044600,10.361044677734375,0.07757988572120667,-0.2834414839744568,0.059864792972803116
1733461192265076500,10.371076416015624,0.04459316283464432,-0.1771509200334549,0.03481931984424591
1733461192275033600,10.38103369140625,-0.00427605677396059,-0.054367005825042725,0.02626720629632473
1733461192285065500,10.3910654296875,-0.06536258012056351,0.06352998316287994,0.02626720629632473
1733461192295053300,10.40105322265625,-0.13072516024112701,0.17043140530586243,0.02687807008624077
1733461192305054500,10.411054443359374,-0.182648703455925,0.24129177629947662,0.024434609338641167
1733461192315042300,10.421042236328125,-0.2076941877603531,0.25473082065582275,0.02015855349600315
1733461192325074000,10.431073974609374,-0.21563543379306793,0.23945917189121246,0.019547687843441963
1733461192335031300,10.44103125,-0.21074850857257843,0.20525072515010834,0.022602014243602753
1733461192345062400,10.4510625,-0.1814269721508026,0.1368338167667389,0.03176499158143997
1733461192355050800,10.46105078125,-0.14477506279945374,0.04459316283464432,0.04337143152952194
1733461192365051000,10.47105078125,-0.10506882518529892,-0.0507018156349659,0.051312681287527084
1733461192375039700,10.481039794921875,-0.06780604273080826,-0.12278391420841217,0.05009094998240471
1733461192385070800,10.49107080078125,-0.021991148591041565,-0.15515977144241333,0.02382374368607998
1733461192395028700,10.50102880859375,0.009162978269159794,-0.12522737681865692,-0.018936822190880775
1733461192405059800,10.511059814453125,0.0354301854968071,-0.07452555745840073,-0.07024950534105301
1733461192415048400,10.52104833984375,0.056810468435287476,-0.033597588539123535,-0.10995574295520782
1733461192425079600,10.53107958984375,0.07208210229873657,0.00366519158706069,-0.1215621829032898
1733461192435037400,10.541037353515625,0.06719517707824707,0.004886921960860491,-0.0861319974064827
1733461192445068500,10.551068603515626,0.04764748737215996,-0.03420845419168472,-0.004886921960860491
1733461192455057000,10.561056884765625,0.007941247895359993,-0.09834930300712585,0.09896016865968704
1733461192465057300,10.571057373046875,-0.054367005825042725,-0.2125810980796814,0.2535090744495392
1733461192475046000,10.5810458984375,-0.08368854224681854,-0.2669481039047241,0.33475416898727417
1733461192485077000,10.591076904296875,-0.10873401165008545,-0.3084869384765625,0.3988949954509735
1733461192495035000,10.601034912109375,-0.0910189226269722,-0.38606682419776917,0.4502076804637909
1733461192505066000,10.61106591796875,-0.012217304669320583,-0.5070181488990784,0.5051855444908142
1733461192515054600,10.6210546875,0.11178833991289139,-0.6633996367454529,0.5479460954666138
1733461192525054200,10.63105419921875,0.2174680233001709,-0.7715228199958801,0.5845980644226074
1733461192535043300,10.641043212890626,0.2125810980796814,-0.6224716901779175,0.6597344875335693
1733461192545076000,10.651075927734375,0.02626720629632473,-0.2993239760398865,0.7709119319915771
1733461192555032300,10.6610322265625,-0.2987131178379059,0.09773843735456467,0.9437867999076843
1733461192565065000,10.67106494140625,-0.6994407176971436,0.3903428912162781,1.1557570695877075
1733461192575052000,10.681052001953125,-1.0867292881011963,0.2632829248905182,1.310916781425476
1733461192585052000,10.691052001953125,-1.370781660079956,-0.2382374405860901,1.3182471990585327
1733461192595041000,10.701041015625,-1.5289957523345947,-0.9468411207199097,1.0971139669418335
1733461192605071600,10.711071533203125,-1.4648548364639282,-1.7482963800430298,0.2974913716316223
1733461192615030000,10.721030029296875,-1.129489779472351,-1.7366899251937866,-0.4453207552433014
1733461192625062700,10.731062744140624,-0.6047565937042236,-1.1197160482406616,-1.2211196422576904
1733461192635049500,10.741049560546875,-0.015271631069481373,-0.021380282938480377,-1.890017032623291
1733461192645050600,10.751050537109375,0.45692721009254456,1.0989465713500977,-2.320066213607788
1733461192655038500,10.76103857421875,0.7605272531509399,1.8765780925750732,-2.476447820663452
1733461192665069600,10.771069580078125,0.9126327037811279,2.30051851272583,-2.4000895023345947
1733461192675058200,10.78105810546875,0.9040805697441101,2.4080307483673096,-2.1545217037200928
1733461192685058000,10.79105810546875,0.4905247986316681,2.0806069374084473,-1.5601497888565063
1733461192695047200,10.801047119140625,0.029932396486401558,1.5632041692733765,-1.0525208711624146
1733461192705077200,10.8110771484375,-0.5302310585975647,0.8698720932006836,-0.485027015209198
1733461192715036200,10.8210361328125,-1.1087204217910767,0.048258353024721146,0.039706241339445114
1733461192725067300,10.8310673828125,-1.5625933408737183,-0.6823364496231079,0.4251621961593628
1733461192735056000,10.841055908203124,-1.8863518238067627,-1.151481032371521,0.6212499737739563
1733461192745057000,10.85105712890625,-2.0531179904937744,-1.4410310983657837,0.6597344875335693
1733461192755044600,10.861044677734375,-1.984701156616211,-1.7470746040344238,0.6157521605491638
1733461192765075200,10.8710751953125,-1.817324161529541,-1.8099937438964844,0.6139195561408997
1733461192775033600,10.88103369140625,-1.6273449659347534,-1.730581283569336,0.6615670323371887
1733461192785065200,10.891065185546875,-1.4465289115905762,-1.541213035583496,0.7428121566772461
1733461192795053300,10.90105322265625,-1.2705997228622437,-1.2443325519561768,0.8307767510414124
1733461192805054000,10.911053955078126,-1.0891727209091187,-0.8423831462860107,0.8967501521110535
1733461192815042300,10.921042236328125,-0.901637077331543,-0.33719760179519653,0.93095862865448
1733461192825074000,10.931073974609374,-0.656069278717041,0.5412266254425049,0.9108000993728638
1733461192835031300,10.94103125,-0.5186246037483215,0.9841039180755615,0.8613200187683105
1733461192845061600,10.9510615234375,-0.3646865487098694,1.166752576828003,0.7721336483955383
1733461192855050800,10.96105078125,-0.2217440903186798,1.1704177856445312,0.6401867866516113
1733461192865050600,10.971050537109376,-0.11301007121801376,1.1050552129745483,0.475253164768219
1733461192875039700,10.981039794921875,-0.02321287989616394,0.998153805732727,0.31581732630729675
1733461192885071400,10.9910712890625,0.04948008432984352,0.8381071090698242,0.20891591906547546
1733461192895028700,11.00102880859375,0.08857546001672745,0.6878342628479004,0.1258382350206375
1733461192905060400,11.011060302734375,0.056810468435287476,0.5265658497810364,0.009162978269159794
1733461192915048400,11.02104833984375,-0.004886921960860491,0.45142942667007446,-0.04214970022439957
1733461192925080000,11.031080078125,-0.06841690838336945,0.41111230850219727,-0.03726277872920036
1733461192935037400,11.041037353515625,-0.1160643994808197,0.3854559659957886,0.025045474991202354
1733461192945069000,11.051069091796874,-0.11972958594560623,0.4141666293144226,0.12400564551353455
1733461192955057000,11.061056884765625,-0.07757988572120667,0.5363397002220154,0.22540926933288574
1733461192965056800,11.071056884765625,-0.005497787147760391,0.759305477142334,0.29626965522766113
1733461192975046000,11.0810458984375,0.12278391420841217,1.1331549882888794,0.3219259977340698
1733461192985076500,11.091076416015625,0.2125810980796814,1.2919800281524658,0.28038713335990906
1733461192995035000,11.101034912109375,0.2883284091949463,1.3103059530258179,0.20525072515010834
1733461193005065500,11.1110654296875,0.3335324227809906,1.1636983156204224,0.11728613078594208
1733461193015054600,11.1210546875,0.3335324227809906,0.8686503767967224,0.04764748737215996
1733461193025055500,11.131055419921875,0.26511552929878235,0.455705463886261,0.015882495790719986
1733461193035043600,11.141043701171874,0.13316862285137177,-0.018325956538319588,0.00733038317412138
1733461193045102000,11.15110205078125,-0.07147123664617538,-0.646295428276062,0.018325956538319588
1733461193055032600,11.161032470703125,-0.13439035415649414,-0.8991936445236206,0.030543262138962746
1733461193065063000,11.17106298828125,-0.13072516024112701,-0.9327912330627441,0.0403171069920063
1733461193075052000,11.181052001953125,-0.0959058403968811,-0.7476990818977356,0.04398229718208313
1733461193085052200,11.19105224609375,-0.04703662544488907,-0.45692721009254456,0.05803219974040985
1733461193095041300,11.201041259765624,0.015271631069481373,-0.1973094791173935,0.10323622822761536
1733461193105071600,11.211071533203125,0.08185594528913498,-0.033597588539123535,0.17409659922122955
1733461193115029200,11.221029296875,0.13927727937698364,0.033597588539123535,0.2431243658065796
1733461193125060000,11.23106005859375,0.21074850857257843,-0.03420845419168472,0.30970868468284607
1733461193135049000,11.241049072265625,0.2785545587539673,-0.13988813757896423,0.31581732630729675
1733461193145050400,11.25105029296875,0.3335324227809906,-0.22357667982578278,0.2834414839744568
1733461193155038200,11.2610380859375,0.36163222789764404,-0.2626720666885376,0.23457226157188416
1733461193165069800,11.27106982421875,0.3628539443016052,-0.2919935882091522,0.18387043476104736
1733461193175057700,11.2810576171875,0.3433062732219696,-0.34697145223617554,0.14233160018920898
1733461193185058800,11.291058837890626,0.3170390725135803,-0.4288274049758911,0.09834930300712585
1733461193195046700,11.301046630859375,0.2889392673969269,-0.5552765130996704,0.013439035043120384
1733461193205078300,11.311078369140626,0.27611109614372253,-0.6102544069290161,-0.04764748737215996
1733461193215036200,11.3210361328125,0.26572638750076294,-0.626747727394104,-0.09957103431224823
1733461193225067000,11.33106689453125,0.2528982162475586,-0.5760459303855896,-0.12461651116609573
1733461193235055900,11.341055908203124,0.2431243658065796,-0.46853363513946533,-0.12095131725072861
1733461193245056300,11.35105615234375,0.2370157092809677,-0.3243694305419922,-0.09407325088977814
1733461193255044600,11.361044677734375,0.22907446324825287,-0.16065755486488342,-0.06536258012056351
1733461193265075700,11.37107568359375,0.22113321721553802,0.07147123664617538,-0.04398229718208313
1733461193275033600,11.38103369140625,0.21441370248794556,0.17409659922122955,-0.04703662544488907
1733461193285065000,11.39106494140625,0.21930062770843506,0.22296582162380219,-0.06352998316287994
1733461193295053300,11.40105322265625,0.22968533635139465,0.24495697021484375,-0.08002334833145142
1733461193305054500,11.411054443359374,0.2272418737411499,0.2376265823841095,-0.09162978827953339
1733461193315042300,11.421042236328125,0.21930062770843506,0.17898350954055786,-0.08429940044879913
1733461193325074000,11.431073974609374,0.2028072625398636,0.06963863968849182,-0.06841690838336945
1733461193335031300,11.44103125,0.19120082259178162,-0.036651913076639175,-0.054367005825042725
1733461193345063000,11.45106298828125,0.17837265133857727,-0.14477506279945374,-0.04886921867728233
1733461193355050800,11.46105078125,0.16493362188339233,-0.1569923609495163,-0.06414084881544113
1733461193365052000,11.471052001953124,0.1771509200334549,-0.13255776464939117,-0.08491026610136032
1733461193375039700,11.481039794921875,0.192422553896904,-0.06963863968849182,-0.10567969083786011
1733461193385071900,11.49107177734375,0.20952677726745605,-0.006719517521560192,-0.12339477986097336
1733461193395028700,11.50102880859375,0.23029619455337524,0.05314527451992035,-0.13744467496871948
1733461193405060600,11.511060546875,0.24129177629947662,0.11239920556545258,-0.15515977144241333
1733461193415048400,11.52104833984375,0.23518311977386475,0.18631389737129211,-0.17348572611808777
1733461193425080000,11.531080078125,0.2125810980796814,0.2064724564552307,-0.16982053220272064
1733461193435037400,11.541037353515625,0.17959438264369965,0.2028072625398636,-0.14844025671482086
1733461193445069000,11.551069091796874,0.12400564551353455,0.16065755486488342,-0.1062905490398407
1733461193455056600,11.561056640625,0.051312681287527084,0.06658431142568588,-0.04398229718208313
1733461193465058000,11.57105810546875,-0.013439035043120384,-0.05742133408784866,0.03176499158143997
1733461193475046000,11.5810458984375,-0.05314527451992035,-0.15577064454555511,0.09651670604944229
1733461193485077000,11.591076904296875,-0.07880161702632904,-0.21930062770843506,0.14538592100143433
1733461193495035000,11.601034912109375,-0.06536258012056351,-0.23579397797584534,0.1569923609495163
1733461193505066000,11.61106591796875,-0.04153883829712868,-0.23151792585849762,0.1569923609495163
1733461193515054600,11.6210546875,0.009162978269159794,-0.2278527319431305,0.1472185254096985
1733461193525055000,11.631054931640625,0.06475171446800232,-0.21074850857257843,0.12400564551353455
1733461193535043300,11.641043212890626,0.11178833991289139,-0.15882496535778046,0.08674286305904388
1733461193545074400,11.651074462890625,0.15393804013729095,-0.0959058403968811,0.04214970022439957
1733461193555032300,11.6610322265625,0.17959438264369965,-0.04337143152952194,-0.004886921960860491
1733461193565064400,11.671064453125,0.16798794269561768,-0.03298672288656235,-0.05497787147760391
1733461193575052000,11.681052001953125,0.152105450630188,-0.10018189996480942,-0.06352998316287994
1733461193585053200,11.69105322265625,0.12400564551353455,-0.182648703455925,-0.05375614017248154
1733461193595041000,11.701041015625,0.09834930300712585,-0.23579397797584534,-0.05009094998240471
1733461193605072600,11.71107275390625,0.07024950534105301,-0.24495697021484375,-0.0555887371301651
1733461193615030300,11.7210302734375,0.045204028487205505,-0.22357667982578278,-0.06658431142568588
1733461193625061600,11.7310615234375,0.036651913076639175,-0.1875356286764145,-0.0910189226269722
1733461193635049500,11.741049560546875,0.05375614017248154,-0.10812314599752426,-0.15760323405265808
1733461193645050600,11.751050537109375,0.05497787147760391,-0.03237585723400116,-0.19853121042251587
1733461193655038700,11.761038818359374,0.02932153269648552,0.015882495790719986,-0.21135938167572021
1733461193665070300,11.7710703125,-0.0024434609804302454,-0.012217304669320583,-0.1869247704744339
1733461193675058200,11.78105810546875,-0.01771509274840355,-0.06963863968849182,-0.14233160018920898
1733461193685058600,11.79105859375,-0.007941247895359993,-0.10690141469240189,-0.10934487730264664
1733461193695047200,11.801047119140625,0.01038470957428217,-0.10995574295520782,-0.11789698898792267
1733461193705078300,11.811078369140626,0.08552113175392151,-0.05925392732024193,-0.17043140530586243
1733461193715036200,11.8210361328125,0.13866640627384186,-0.018325956538319588,-0.19364428520202637
1733461193725067000,11.83106689453125,0.1820378452539444,0.01710422709584236,-0.1869247704744339
1733461193735056000,11.841055908203124,0.19608774781227112,0.05375614017248154,-0.152105450630188
1733461193745056800,11.851056884765624,0.19486601650714874,0.10445795953273773,-0.09346238523721695
1733461193755044600,11.861044677734375,0.18325957655906677,0.15943582355976105,-0.025045474991202354
1733461193765076500,11.871076416015624,0.1722639948129654,0.16493362188339233,0.039095375686883926
1733461193775033600,11.88103369140625,0.16859880089759827,0.12522737681865692,0.0806342139840126
1733461193785065500,11.8910654296875,0.13988813757896423,0.04092797264456749,0.09896016865968704
1733461193795053300,11.90105322265625,0.11484266817569733,-0.022602014243602753,0.08979719132184982
1733461193805054200,11.91105419921875,0.09773843735456467,-0.08429940044879913,0.06536258012056351
1733461193815042300,11.921042236328125,0.0806342139840126,-0.12522737681865692,0.02321287989616394
1733461193825073400,11.931073486328126,0.08246681094169617,-0.14844025671482086,-0.019547687843441963
1733461193835031300,11.94103125,0.09407325088977814,-0.15393804013729095,-0.0507018156349659
1733461193845062100,11.951062255859375,0.11056660860776901,-0.12034045159816742,-0.06902777403593063
1733461193855050800,11.96105078125,0.1111774742603302,-0.00427605677396059,-0.07330382615327835
1733461193865052200,11.97105224609375,0.10812314599752426,0.08124507963657379,-0.06169738993048668
1733461193875039700,11.981039794921875,0.09712757170200348,0.14844025671482086,-0.03726277872920036
1733461193885071400,11.9910712890625,0.07330382615327835,0.1569923609495163,-0.013439035043120384
1733461193895028700,12.00102880859375,0.024434609338641167,0.03787364438176155,0.025656340643763542
1733461193905060400,12.011060302734375,0.00427605677396059,-0.23945917189121246,0.17959438264369965
1733461193915048400,12.02104833984375,0.007941247895359993,-0.23640485107898712,0.20402899384498596
1733461193925079300,12.031079345703125,-0.007941247895359993,0.0006108652451075613,0.14905111491680145
1733461193935037400,12.041037353515625,0.015882495790719986,0.15577064454555511,0.09468411654233932
1733461193945068300,12.051068359375,0.07208210229873657,0.24007004499435425,0.04459316283464432
1733461193955057000,12.061056884765625,0.10201449692249298,0.2681698501110077,-0.014049900695681572
1733461193965057500,12.0710576171875,0.12461651116609573,0.2217440903186798,-0.06352998316287994
1733461193975046000,12.0810458984375,0.14416420459747314,0.1459967941045761,-0.11484266817569733
1733461193985077800,12.091077880859375,0.13377949595451355,0.06780604273080826,-0.15393804013729095
1733461193995035000,12.101034912109375,0.10995574295520782,-0.01771509274840355,-0.17531833052635193
1733461194005066800,12.111066650390624,0.08368854224681854,-0.10567969083786011,-0.19058994948863983
1733461194015054600,12.1210546875,0.07635815441608429,-0.12767083942890167,-0.1918116807937622
1733461194025055500,12.131055419921875,0.0806342139840126,-0.14844025671482086,-0.152105450630188
1733461194035043600,12.141043701171874,0.0910189226269722,-0.1612684279680252,-0.06902777403593063
1733461194045075200,12.1510751953125,0.11362093687057495,-0.13866640627384186,0.02687807008624077
1733461194055032300,12.1610322265625,0.13072516024112701,-0.07330382615327835,0.07147123664617538
