time,seconds_elapsed,z,y,x
1733461182385142500,0.491142578125,0.0006108652451075613,-0.03787364438176155,0.015882495790719986
1733461182395100000,0.501099853515625,-0.0006108652451075613,-0.02687807008624077,0.021380282938480377
1733461182405130800,0.511130859375,-0.009773843921720982,-0.00427605677396059,0.018325956538319588
1733461182415119400,0.521119384765625,-0.01466076634824276,0.015882495790719986,0.0024434609804302454
1733461182425151000,0.53115087890625,-0.021991148591041565,0.03298672288656235,-0.01771509274840355
1733461182435108400,0.5411083984375,-0.02871066704392433,0.036651913076639175,-0.036041051149368286
1733461182445140000,0.551139892578125,-0.03420845419168472,0.019547687843441963,-0.04703662544488907
1733461182455128000,0.561128173828125,-0.033597588539123535,-0.0006108652451075613,-0.04764748737215996
1733461182465129000,0.57112890625,-0.03237585723400116,-0.018936822190880775,-0.03726277872920036
1733461182475117000,0.581116943359375,-0.02932153269648552,-0.021991148591041565,-0.02076941914856434
1733461182485148700,0.591148681640625,-0.031154127791523933,0.0006108652451075613,0.00366519158706069
1733461182495106000,0.60110595703125,-0.039095375686883926,0.00855211354792118,0.016493361443281174
1733461182505137700,0.6111376953125,-0.05253441259264946,0.013439035043120384,0.018325956538319588
1733461182515125500,0.62112548828125,-0.06841690838336945,0.009773843921720982,0.014049900695681572
1733461182525126700,0.631126708984375,-0.08185594528913498,0.006719517521560192,0.009162978269159794
1733461182535114500,0.641114501953125,-0.09773843735456467,0.0012217304902151227,0.00733038317412138
1733461182545146000,0.65114599609375,-0.1111774742603302,-0.004886921960860491,0.01771509274840355
1733461182555103500,0.661103515625,-0.11667526513338089,-0.00427605677396059,0.04886921867728233
1733461182565135000,0.671135009765625,-0.11301007121801376,-0.004886921960860491,0.06719517707824707
1733461182575123200,0.681123291015625,-0.11178833991289139,-0.019547687843441963,0.08246681094169617
1733461182585124400,0.691124267578125,-0.10384709388017654,-0.039095375686883926,0.08918632566928864
1733461182595112200,0.7011123046875,-0.10018189996480942,-0.06352998316287994,0.08979719132184982
1733461182605143800,0.711143798828125,-0.08979719132184982,-0.08674286305904388,0.08552113175392151
1733461182615101200,0.72110107421875,-0.07024950534105301,-0.09346238523721695,0.07757988572120667
1733461182625132800,0.7311328125,-0.03420845419168472,-0.056810468435287476,0.05742133408784866
1733461182635120600,0.74112060546875,-0.01038470957428217,-0.02321287989616394,0.04092797264456749
1733461182645121800,0.751121826171875,0.00733038317412138,0.006108652334660292,0.02626720629632473
1733461182655109600,0.761109619140625,0.014049900695681572,0.02076941914856434,0.012828170321881771
1733461182665141200,0.771141357421875,0.00733038317412138,0.016493361443281174,0.009162978269159794
1733461182675129300,0.78112939453125,-0.00366519158706069,-0.00427605677396059,0.006108652334660292
1733461182685130500,0.791130615234375,-0.015271631069481373,-0.03176499158143997,0.006719517521560192
1733461182695118300,0.801118408203125,-0.02626720629632473,-0.051312681287527084,0.0024434609804302454
1733461182705150000,0.81114990234375,-0.03848451003432274,-0.05253441259264946,-0.001832595793530345
1733461182715107000,0.821107177734375,-0.0403171069920063,-0.03298672288656235,0
1733461182725139000,0.831138916015625,-0.039095375686883926,-0.0012217304902151227,0.0012217304902151227
1733461182735126800,0.841126708984375,-0.036041051149368286,0.02626720629632473,0.005497787147760391
1733461182745128200,0.851128173828125,-0.033597588539123535,0.04092797264456749,0.006719517521560192
1733461182755115800,0.86111572265625,-0.031154127791523933,0.04337143152952194,0.01038470957428217
1733461182765147600,0.871147705078125,-0.030543262138962746,0.03848451003432274,0.01466076634824276
1733461182775104800,0.881104736328125,-0.03787364438176155,0.007941247895359993,0.030543262138962746
1733461182785136600,0.89113671875,-0.0507018156349659,-0.0354301854968071,0.04764748737215996
1733461182795124200,0.901124267578125,-0.0659734457731247,-0.07452555745840073,0.06658431142568588
1733461182805125400,0.91112548828125,-0.0806342139840126,-0.09957103431224823,0.08124507963657379
1733461182815113200,0.92111328125,-0.08857546001672745,-0.09529497474431992,0.08796459436416626
1733461182825145000,0.93114501953125,-0.09162978827953339,-0.06780604273080826,0.09224065393209457
1733461182835102200,0.941102294921875,-0.08979719132184982,-0.048258353024721146,0.09712757170200348
1733461182845134000,0.951134033203125,-0.07757988572120667,-0.06108652427792549,0.09896016865968704
1733461182855122000,0.961121826171875,-0.07941248267889023,-0.08185594528913498,0.1007927656173706
1733461182865122800,0.971122802734375,-0.0861319974064827,-0.10018189996480942,0.09957103431224823
1733461182875111000,0.98111083984375,-0.09712757170200348,-0.13866640627384186,0.09529497474431992
1733461182885142500,0.991142578125,-0.1014036312699318,-0.1966986060142517,0.08552113175392151
1733461182895100000,1.001099853515625,-0.11239920556545258,-0.25534167885780334,0.07757988572120667
1733461182905131500,1.011131591796875,-0.11178833991289139,-0.29504790902137756,0.0757472887635231
1733461182915119600,1.02111962890625,-0.10751228034496307,-0.29626965522766113,0.0757472887635231
1733461182925151200,1.031151123046875,-0.10323622822761536,-0.2217440903186798,0.0757472887635231
1733461182935108400,1.0411083984375,-0.09346238523721695,-0.12400564551353455,0.07391469180583954
1733461182945140200,1.05114013671875,-0.08002334833145142,-0.029932396486401558,0.06536258012056351
1733461182955128000,1.061128173828125,-0.08124507963657379,0.01466076634824276,0.0507018156349659
1733461182965129500,1.07112939453125,-0.09407325088977814,0.02076941914856434,0.030543262138962746
1733461182975117300,1.081117431640625,-0.10690141469240189,0.021991148591041565,0.009773843921720982
1733461182985148700,1.091148681640625,-0.10812314599752426,0.02321287989616394,-0.00733038317412138
1733461182995106300,1.101106201171875,-0.10506882518529892,0.03237585723400116,-0.02382374368607998
1733461183005138000,1.111137939453125,-0.10018189996480942,0.04703662544488907,-0.021380282938480377
1733461183015125800,1.121125732421875,-0.09224065393209457,0.06352998316287994,-0.006108652334660292
1733461183025127000,1.131126953125,-0.08735372871160507,0.05864306539297104,0.01771509274840355
1733461183035114800,1.14111474609375,-0.08491026610136032,0.033597588539123535,0.042760565876960754
1733461183045175000,1.151175048828125,-0.0861319974064827,0.010995574295520782,0.05742133408784866
1733461183055103700,1.161103759765625,-0.08857546001672745,0.0024434609804302454,0.06841690838336945
1733461183065135400,1.17113525390625,-0.08674286305904388,0.01160643994808197,0.07819075137376785
1733461183075123200,1.181123291015625,-0.08491026610136032,0.0006108652451075613,0.08857546001672745
1733461183085124400,1.191124267578125,-0.08124507963657379,-0.03420845419168472,0.10323622822761536
1733461183095112400,1.201112548828125,-0.06841690838336945,-0.07880161702632904,0.12095131725072861
1733461183105144000,1.21114404296875,-0.04642575979232788,-0.11056660860776901,0.1319468915462494
1733461183115099600,1.221099609375,-0.018936822190880775,-0.09896016865968704,0.12889257073402405
1733461183125131800,1.2311318359375,0.007941247895359993,-0.042760565876960754,0.11056660860776901
1733461183135119600,1.24111962890625,0.02626720629632473,0.03176499158143997,0.08491026610136032
1733461183145120800,1.251120849609375,0.03237585723400116,0.10201449692249298,0.05925392732024193
1733461183155108600,1.261108642578125,0.029932396486401558,0.09162978827953339,0.05925392732024193
1733461183165140500,1.271140380859375,0.018325956538319588,0.04642575979232788,0.07147123664617538
1733461183175128300,1.28112841796875,0.001832595793530345,-0.015271631069481373,0.08918632566928864
1733461183185129500,1.29112939453125,-0.004886921960860491,-0.08552113175392151,0.09957103431224823
1733461183195117300,1.301117431640625,-0.004886921960860491,-0.13866640627384186,0.10201449692249298
1733461183205149000,1.31114892578125,0.006719517521560192,-0.16432274878025055,0.09346238523721695
1733461183215107000,1.321107177734375,0.048258353024721146,-0.13866640627384186,0.06108652427792549
1733461183225138700,1.331138671875,0.07147123664617538,-0.09040805697441101,0.02932153269648552
1733461183235126800,1.341126708984375,0.09468411654233932,-0.03298672288656235,0.0024434609804302454
1733461183245128000,1.3511279296875,0.09834930300712585,0.025045474991202354,-0.009162978269159794
1733461183255115800,1.36111572265625,0.06902777403593063,0.05864306539297104,-0.0024434609804302454
1733461183265147400,1.3711474609375,0.02871066704392433,0.05803219974040985,0.01710422709584236
1733461183275104800,1.381104736328125,-0.019547687843441963,0.024434609338641167,0.04153883829712868
1733461183285136400,1.391136474609375,-0.07024950534105301,-0.04459316283464432,0.06780604273080826
1733461183295124500,1.40112451171875,-0.0708603709936142,-0.08002334833145142,0.06719517707824707
1733461183305124600,1.41112451171875,-0.0507018156349659,-0.08918632566928864,0.051312681287527084
1733461183315113200,1.42111328125,-0.01710422709584236,-0.06963863968849182,0.02626720629632473
1733461183325144000,1.43114404296875,0.012217304669320583,-0.04398229718208313,0.006108652334660292
1733461183335102200,1.441102294921875,0.04214970022439957,-0.02076941914856434,-0.005497787147760391
1733461183345134000,1.451134033203125,0.0555887371301651,-0.006719517521560192,-0.003054326167330146
1733461183355122000,1.461121826171875,0.054367005825042725,-0.01466076634824276,0.00733038317412138
1733461183365123000,1.471123046875,0.03237585723400116,-0.060475658625364304,0.03176499158143997
1733461183375111200,1.481111083984375,0.01710422709584236,-0.10262536257505417,0.04459316283464432
1733461183385142500,1.491142578125,0.004886921960860491,-0.13500121235847473,0.048258353024721146
1733461183395100000,1.501099853515625,-0.003054326167330146,-0.14844025671482086,0.04214970022439957
1733461183405131500,1.511131591796875,-0.001832595793530345,-0.14844025671482086,0.03237585723400116
1733461183415119400,1.521119384765625,0.0012217304902151227,-0.13744467496871948,0.025045474991202354
1733461183425150200,1.531150146484375,0.009162978269159794,-0.12278391420841217,0.022602014243602753
1733461183435108400,1.5411083984375,0.014049900695681572,-0.1362229436635971,0.04459316283464432
1733461183445139500,1.551139404296875,0.015882495790719986,-0.17776179313659668,0.0659734457731247
1733461183455128000,1.561128173828125,0.012217304669320583,-0.22663100063800812,0.07635815441608429
1733461183465128400,1.57112841796875,0.018936822190880775,-0.252287358045578,0.07696902006864548
1733461183475117000,1.581116943359375,0.02015855349600315,-0.23029619455337524,0.06719517707824707
1733461183485148200,1.591148193359375,0.018325956538319588,-0.17898350954055786,0.04581489413976669
1733461183495106000,1.60110595703125,0.01466076634824276,-0.12522737681865692,0.025656340643763542
1733461183505137700,1.6111376953125,0.009162978269159794,-0.06841690838336945,0.00427605677396059
1733461183515125500,1.62112548828125,0.004886921960860491,-0.05192354694008827,-0.009162978269159794
1733461183525126400,1.63112646484375,-0.0006108652451075613,-0.05192354694008827,-0.019547687843441963
1733461183535114500,1.641114501953125,-0.015271631069481373,-0.06414084881544113,-0.02687807008624077
1733461183545146000,1.65114599609375,-0.039706241339445114,-0.08368854224681854,-0.02871066704392433
1733461183555103700,1.661103759765625,-0.06719517707824707,-0.10506882518529892,-0.022602014243602753
1733461183565134600,1.671134521484375,-0.08796459436416626,-0.12522737681865692,-0.01038470957428217
1733461183575123200,1.681123291015625,-0.0910189226269722,-0.15577064454555511,0.004886921960860491
1733461183585123600,1.69112353515625,-0.06658431142568588,-0.2217440903186798,0.03237585723400116
1733461183595112200,1.7011123046875,-0.036041051149368286,-0.25473082065582275,0.05009094998240471
1733461183605143300,1.711143310546875,-0.0006108652451075613,-0.26939156651496887,0.056810468435287476
1733461183615101200,1.72110107421875,0.02687807008624077,-0.24923302233219147,0.04398229718208313
1733461183625132000,1.731132080078125,0.04337143152952194,-0.1820378452539444,0.012828170321881771
1733461183635121000,1.741120849609375,0.04153883829712868,-0.07269296050071716,-0.033597588539123535
1733461183645121000,1.75112109375,0.01160643994808197,0.03787364438176155,-0.07696902006864548
1733461183655109600,1.761109619140625,-0.059864792972803116,0.10690141469240189,-0.10934487730264664
1733461183665140700,1.771140625,-0.12950342893600464,0.0757472887635231,-0.10812314599752426
1733461183675129300,1.78112939453125,-0.20036379992961884,0.00855211354792118,-0.09957103431224823
1733461183685130000,1.7911298828125,-0.23579397797584534,-0.04764748737215996,-0.09529497474431992
1733461183695118300,1.801118408203125,-0.2577851414680481,-0.042760565876960754,-0.09712757170200348
1733461183705149400,1.8111494140625,-0.25045475363731384,-0.0006108652451075613,-0.10567969083786011
1733461183715107000,1.821107177734375,-0.21563543379306793,0.04703662544488907,-0.11239920556545258
1733461183725138400,1.831138427734375,-0.14538592100143433,0.09285151958465576,-0.12217304855585098
1733461183735126800,1.841126708984375,-0.10018189996480942,0.09529497474431992,-0.11728613078594208
1733461183745127400,1.85112744140625,-0.05619960278272629,0.07269296050071716,-0.10934487730264664
1733461183755115800,1.86111572265625,-0.02382374368607998,0.036651913076639175,-0.09468411654233932
1733461183765147000,1.87114697265625,-0.015882495790719986,-0.007941247895359993,-0.07330382615327835
1733461183775105000,1.88110498046875,-0.03420845419168472,-0.06780604273080826,-0.045204028487205505
1733461183785135600,1.891135498046875,-0.06475171446800232,-0.13866640627384186,-0.010995574295520782
1733461183795124200,1.901124267578125,-0.09407325088977814,-0.19486601650714874,0.02015855349600315
1733461183805124900,1.911124755859375,-0.09529497474431992,-0.1722639948129654,0.03237585723400116
1733461183815113200,1.92111328125,-0.0757472887635231,-0.09712757170200348,0.00427605677396059
1733461183825144300,1.931144287109375,-0.03176499158143997,-0.025045474991202354,-0.04642575979232788
1733461183835102200,1.941102294921875,0.02076941914856434,0.02076941914856434,-0.10323622822761536
1733461183845133300,1.95113330078125,0.05803219974040985,0.01710422709584236,-0.15393804013729095
1733461183855122000,1.961121826171875,0.07757988572120667,-0.019547687843441963,-0.19364428520202637
1733461183865122300,1.971122314453125,0.08002334833145142,-0.08429940044879913,-0.23457226157188416
1733461183875111000,1.98111083984375,0.07024950534105301,-0.12217304855585098,-0.2724458873271942
1733461183885142000,1.99114208984375,0.0757472887635231,-0.09957103431224823,-0.26572638750076294
1733461183895100200,2.00110009765625,0.08307767659425735,-0.05864306539297104,-0.23396138846874237
1733461183905130800,2.011130859375,0.08857546001672745,-0.02687807008624077,-0.17348572611808777
1733461183915119600,2.02111962890625,0.10323622822761536,-0.018936822190880775,-0.11056660860776901
1733461183925150500,2.031150390625,0.11423180252313614,-0.02626720629632473,-0.05497787147760391
1733461183935108400,2.0411083984375,0.12950342893600464,-0.04948008432984352,-0.01710422709584236
1733461183945139700,2.0511396484375,0.12461651116609573,-0.10384709388017654,0.0012217304902151227
1733461183955128000,2.061128173828125,0.10262536257505417,-0.1466076523065567,-0.0006108652451075613
1733461183965128400,2.07112841796875,0.06536258012056351,-0.19425514340400696,-0.00733038317412138
1733461183975117300,2.081117431640625,0.02076941914856434,-0.23335053026676178,-0.012828170321881771
1733461183985148400,2.0911484375,-0.039095375686883926,-0.25595253705978394,-0.02932153269648552
1733461183995106300,2.101106201171875,-0.0861319974064827,-0.2638937830924988,-0.05742133408784866
1733461184005137400,2.111137451171875,-0.13316862285137177,-0.2431243658065796,-0.08368854224681854
1733461184015125800,2.121125732421875,-0.1765400618314743,-0.21991148591041565,-0.0959058403968811
1733461184025126100,2.131126220703125,-0.1875356286764145,-0.2028072625398636,-0.09468411654233932
1733461184035114800,2.14111474609375,-0.1722639948129654,-0.2070833146572113,-0.0806342139840126
1733461184045145900,2.151145751953125,-0.1411098688840866,-0.21502456068992615,-0.051312681287527084
1733461184055103700,2.161103759765625,-0.11239920556545258,-0.21502456068992615,-0.00733038317412138
1733461184065134800,2.171134765625,-0.09346238523721695,-0.2028072625398636,0.0507018156349659
1733461184075123500,2.18112353515625,-0.08246681094169617,-0.20036379992961884,0.10384709388017654
1733461184085123800,2.191123779296875,-0.07696902006864548,-0.2070833146572113,0.14538592100143433
1733461184095112400,2.201112548828125,-0.06963863968849182,-0.2174680233001709,0.16371189057826996
1733461184105143300,2.211143310546875,-0.06963863968849182,-0.20952677726745605,0.14966198801994324
1733461184115099400,2.221099365234375,-0.07208210229873657,-0.18509216606616974,0.12828169763088226
1733461184125131800,2.2311318359375,-0.09651670604944229,-0.1466076523065567,0.12400564551353455
1733461184135120000,2.241119873046875,-0.13866640627384186,-0.12767083942890167,0.14049901068210602
1733461184145120800,2.251120849609375,-0.1869247704744339,-0.14844025671482086,0.17959438264369965
1733461184155108900,2.26110888671875,-0.22296582162380219,-0.2174680233001709,0.22113321721553802
1733461184165140700,2.271140625,-0.19547687470912933,-0.3390302062034607,0.23579397797584534
1733461184175128300,2.28112841796875,-0.16065755486488342,-0.3701843321323395,0.19120082259178162
1733461184185129500,2.29112939453125,-0.1160643994808197,-0.3139847218990326,0.11667526513338089
1733461184195117300,2.301117431640625,-0.07757988572120667,-0.16310101747512817,0.03848451003432274
1733461184205149000,2.31114892578125,-0.07513642311096191,0.0507018156349659,-0.003054326167330146
1733461184215107000,2.321107177734375,-0.10018189996480942,0.24495697021484375,0.00733038317412138
1733461184225138700,2.331138671875,-0.1472185254096985,0.3219259977340698,0.07269296050071716
1733461184235126800,2.341126708984375,-0.19425514340400696,0.2736676335334778,0.18509216606616974
1733461184245127700,2.351127685546875,-0.2632829248905182,0.05375614017248154,0.4086688458919525
1733461184255115800,2.36111572265625,-0.28466320037841797,-0.16859880089759827,0.5595525503158569
1733461184265147400,2.3711474609375,-0.26633724570274353,-0.3830125033855438,0.6835582256317139
1733461184275104800,2.381104736328125,-0.23029619455337524,-0.5161811113357544,0.7611380815505981
1733461184285135600,2.391135498046875,-0.18509216606616974,-0.5650503635406494,0.7776314616203308
1733461184295124200,2.401124267578125,-0.11789698898792267,-0.5534439086914062,0.7391469478607178
1733461184305124900,2.411124755859375,-0.039706241339445114,-0.4813618063926697,0.656069278717041
1733461184315113200,2.42111328125,0.11728613078594208,-0.30054569244384766,0.46792277693748474
1733461184325144300,2.431144287109375,0.22663100063800812,-0.1014036312699318,0.31031954288482666
1733461184335102500,2.4411025390625,0.32009339332580566,0.1612684279680252,0.13988813757896423
1733461184345133000,2.451133056640625,0.3738495409488678,0.4306600093841553,-0.02932153269648552
1733461184355122000,2.461121826171875,0.394008070230484,0.5894849896430969,-0.17592918872833252
1733461184365121800,2.471121826171875,0.3897320330142975,0.5839871764183044,-0.29138273000717163
1733461184375111000,2.48111083984375,0.3530801236629486,0.45875978469848633,-0.37568211555480957
1733461184385141200,2.491141357421875,0.2125810980796814,0.1875356286764145,-0.46792277693748474
1733461184395100200,2.50110009765625,0.06536258012056351,0.029932396486401558,-0.5180137157440186
1733461184405130200,2.511130126953125,-0.11362093687057495,-0.06719517707824707,-0.5613851547241211
1733461184415119600,2.52111962890625,-0.2889392673969269,-0.09957103431224823,-0.5955936312675476
1733461184425150000,2.53114990234375,-0.4202753007411957,-0.05864306539297104,-0.6206390857696533
1733461184435108400,2.5411083984375,-0.4996877610683441,0.04642575979232788,-0.6334672570228577
1733461184445140200,2.55114013671875,-0.5418374538421631,0.18997909128665924,-0.627358615398407
1733461184455128000,2.561128173828125,-0.543059229850769,0.34208452701568604,-0.588263213634491
1733461184465129000,2.57112890625,-0.5070181488990784,0.4966334402561188,-0.4709770977497101
1733461184475117000,2.581116943359375,-0.494189977645874,0.5015203952789307,-0.37201693654060364
1733461184485148200,2.591148193359375,-0.4893030524253845,0.42088615894317627,-0.2675589919090271
1733461184495106000,2.60110595703125,-0.4746423065662384,0.26939156651496887,-0.18081611394882202
1733461184505137200,2.61113720703125,-0.4605923891067505,0.0910189226269722,-0.12095131725072861
1733461184515125500,2.62112548828125,-0.44715335965156555,-0.056810468435287476,-0.09224065393209457
1733461184525126100,2.631126220703125,-0.4190535545349121,-0.12339477986097336,-0.09224065393209457
1733461184535114500,2.641114501953125,-0.32498031854629517,-0.07513642311096191,-0.14844025671482086
1733461184545145600,2.6511455078125,-0.2370157092809677,0.024434609338641167,-0.19914206862449646
1733461184555103500,2.661103515625,-0.14782938361167908,0.12767083942890167,-0.242513507604599
1733461184565134600,2.671134521484375,-0.07819075137376785,0.2168571650981903,-0.25534167885780334
1733461184575123200,2.681123291015625,-0.03420845419168472,0.26939156651496887,-0.2431243658065796
1733461184585124000,2.6911240234375,0,0.2968805134296417,-0.21013765037059784
1733461184595112400,2.701112548828125,0.01160643994808197,0.29138273000717163,-0.16920967400074005
1733461184605143800,2.711143798828125,-0.012828170321881771,0.16554448008537292,-0.11056660860776901
1733461184615101200,2.72110107421875,-0.03848451003432274,0.00855211354792118,-0.08796459436416626
1733461184625132800,2.7311328125,-0.04703662544488907,-0.15027284622192383,-0.0757472887635231
1733461184635120600,2.74112060546875,-0.05009094998240471,-0.23273965716362,-0.0757472887635231
1733461184645121000,2.75112109375,-0.04642575979232788,-0.20830504596233368,-0.07757988572120667
1733461184655109600,2.761109619140625,-0.027488935738801956,-0.10506882518529892,-0.07452555745840073
1733461184665140700,2.771140625,-0.009162978269159794,0.03726277872920036,-0.05742133408784866
1733461184675129300,2.78112939453125,0.006719517521560192,0.13561208546161652,-0.030543262138962746
1733461184685129700,2.791129638671875,0.009162978269159794,0.17531833052635193,0.01466076634824276
1733461184695118000,2.8011181640625,0.0012217304902151227,0.12339477986097336,0.02321287989616394
1733461184705149000,2.81114892578125,-0.018325956538319588,0.05009094998240471,0.01466076634824276
1733461184715107000,2.821107177734375,-0.036651913076639175,-0.015882495790719986,0
1733461184725138200,2.83113818359375,-0.05375614017248154,-0.056810468435287476,-0.014049900695681572
1733461184735126800,2.841126708984375,-0.06841690838336945,-0.059864792972803116,-0.019547687843441963
1733461184745127400,2.85112744140625,-0.07452555745840073,-0.03298672288656235,-0.018936822190880775
1733461184755115800,2.86111572265625,-0.02871066704392433,0.054367005825042725,-0.02015855349600315
1733461184765147000,2.87114697265625,0.01771509274840355,0.1270599663257599,-0.025656340643763542
1733461184775104800,2.881104736328125,0.059864792972803116,0.1667662113904953,-0.03176499158143997
1733461184785136400,2.891136474609375,0.08002334833145142,0.15943582355976105,-0.031154127791523933
1733461184795124200,2.901124267578125,0.07147123664617538,0.09896016865968704,-0.021991148591041565
1733461184805125400,2.91112548828125,0.03420845419168472,0.028099801391363144,-0.013439035043120384
1733461184815113200,2.92111328125,-0.03420845419168472,0.0012217304902151227,-0.01466076634824276
1733461184825145000,2.93114501953125,-0.14355333149433136,0.07513642311096191,-0.04337143152952194
1733461184835102200,2.941102294921875,-0.21930062770843506,0.17043140530586243,-0.06536258012056351
1733461184845134000,2.951134033203125,-0.2883284091949463,0.23884831368923187,-0.06414084881544113
1733461184855122000,2.961121826171875,-0.3286454975605011,0.2632829248905182,-0.03787364438176155
1733461184865123000,2.971123046875,-0.3500257730484009,0.26939156651496887,0.009162978269159794
1733461184875111000,2.98111083984375,-0.3433062732219696,0.2822197377681732,0.0507018156349659
1733461184885142800,2.991142822265625,-0.3090978264808655,0.30115658044815063,0.07391469180583954
1733461184895100200,3.00110009765625,-0.2571742534637451,0.2938261926174164,0.07330382615327835
1733461184905130200,3.011130126953125,-0.14049901068210602,0.22663100063800812,0.04092797264456749
1733461184915119600,3.02111962890625,-0.0354301854968071,0.16310101747512817,0.010995574295520782
1733461184925151200,3.031151123046875,0.06352998316287994,0.09162978827953339,-0.005497787147760391
1733461184935108600,3.041108642578125,0.13072516024112701,-0.016493361443281174,0.02076941914856434
1733461184945140200,3.05114013671875,0.14355333149433136,-0.16859880089759827,0.11972958594560623
1733461184955128000,3.061128173828125,0.11301007121801376,-0.3628539443016052,0.2974913716316223
1733461184965129200,3.071129150390625,0.08368854224681854,-0.5845980644226074,0.5161811113357544
1733461184975117300,3.081117431640625,0.07269296050071716,-0.7715228199958801,0.807563841342926
1733461184985148700,3.091148681640625,0.08552113175392151,-0.7531968355178833,0.9126327037811279
1733461184995106300,3.101106201171875,0.10018189996480942,-0.6377432942390442,0.9266825914382935
1733461185005138000,3.111137939453125,0.11423180252313614,-0.48197266459465027,0.8460483551025391
1733461185015125800,3.121125732421875,0.11789698898792267,-0.375071257352829,0.6884451508522034
1733461185025125600,3.131125732421875,0.11423180252313614,-0.37140607833862305,0.4862487316131592
1733461185035114500,3.141114501953125,0.11239920556545258,-0.44837507605552673,0.2730567753314972
1733461185045174800,3.1511748046875,0.12339477986097336,-0.5534439086914062,0.0012217304902151227
1733461185055103700,3.161103759765625,0.14538592100143433,-0.5161811113357544,-0.10567969083786011
1733461185065135400,3.17113525390625,0.16004669666290283,-0.36529740691185,-0.14233160018920898
1733461185075123200,3.181123291015625,0.15943582355976105,-0.15760323405265808,-0.11850785464048386
1733461185085124600,3.19112451171875,0.16065755486488342,0.056810468435287476,-0.060475658625364304
1733461185095112400,3.201112548828125,0.15821409225463867,0.24373523890972137,-0.007941247895359993
1733461185105144000,3.21114404296875,0.15332718193531036,0.38117989897727966,0.01160643994808197
1733461185115099600,3.221099609375,0.13927727937698364,0.46242499351501465,-0.004886921960860491
1733461185125131800,3.2311318359375,0.0806342139840126,0.4440990388393402,-0.0659734457731247
1733461185135120000,3.241119873046875,0.04214970022439957,0.33597588539123535,-0.10812314599752426
1733461185145121000,3.25112109375,0.00427605677396059,0.15821409225463867,-0.13744467496871948
1733461185155108600,3.261108642578125,-0.01771509274840355,-0.05314527451992035,-0.15332718193531036
1733461185165140200,3.27114013671875,-0.02626720629632473,-0.22540926933288574,-0.15882496535778046
1733461185175128300,3.28112841796875,-0.03176499158143997,-0.33658674359321594,-0.14233160018920898
1733461185185129200,3.291129150390625,-0.033597588539123535,-0.39217549562454224,-0.10506882518529892
1733461185195117300,3.301117431640625,-0.04337143152952194,-0.413555771112442,-0.033597588539123535
1733461185205149000,3.31114892578125,-0.05009094998240471,-0.40683624148368835,-0.0012217304902151227
1733461185215107000,3.321107177734375,-0.0507018156349659,-0.37140607833862305,0.01466076634824276
1733461185225138200,3.33113818359375,-0.051312681287527084,-0.30543261766433716,0.013439035043120384
1733461185235126800,3.341126708984375,-0.048258353024721146,-0.23579397797584534,0.004886921960860491
1733461185245127200,3.351127197265625,-0.03848451003432274,-0.18936823308467865,-0.00366519158706069
1733461185255115800,3.36111572265625,-0.02687807008624077,-0.17348572611808777,-0.010995574295520782
1733461185265147000,3.37114697265625,-0.00366519158706069,-0.1771509200334549,-0.022602014243602753
1733461185275104800,3.381104736328125,0.009162978269159794,-0.17104226350784302,-0.03726277872920036
1733461185285136000,3.391135986328125,0.019547687843441963,-0.13988813757896423,-0.04948008432984352
1733461185295124200,3.401124267578125,0.015271631069481373,-0.08918632566928864,-0.05497787147760391
1733461185305125600,3.411125732421875,0,-0.042760565876960754,-0.05253441259264946
1733461185315113500,3.421113525390625,-0.028099801391363144,-0.019547687843441963,-0.05314527451992035
1733461185325144800,3.431144775390625,-0.0757472887635231,-0.01771509274840355,-0.05742133408784866
1733461185335102500,3.4411025390625,-0.1362229436635971,-0.042760565876960754,-0.06963863968849182
1733461185345133300,3.45113330078125,-0.2015855312347412,-0.10506882518529892,-0.11789698898792267
1733461185355122000,3.461121826171875,-0.21013765037059784,-0.1111774742603302,-0.17287486791610718
1733461185365122600,3.47112255859375,-0.182648703455925,-0.07147123664617538,-0.24373523890972137
1733461185375111200,3.481111083984375,-0.1215621829032898,0.010995574295520782,-0.3219259977340698
1733461185385141800,3.491141845703125,-0.0507018156349659,0.10384709388017654,-0.394618958234787
1733461185395100000,3.501099853515625,0.006719517521560192,0.18570303916931152,-0.44654250144958496
1733461185405131500,3.511131591796875,0.0354301854968071,0.28099802136421204,-0.44654250144958496
1733461185415119600,3.52111962890625,-0.02871066704392433,0.4178318381309509,-0.3225368559360504
1733461185425151200,3.531151123046875,-0.15332718193531036,0.48380526900291443,-0.15577064454555511
1733461185435108400,3.5411083984375,-0.3182607889175415,0.44226643443107605,0.045204028487205505
1733461185445140200,3.55114013671875,-0.4795292317867279,0.22846360504627228,0.22357667982578278
1733461185455128000,3.561128173828125,-0.6029239892959595,-0.10201449692249298,0.33719760179519653
1733461185465129200,3.571129150390625,-0.66584312915802,-0.4355469346046448,0.375071257352829
1733461185475117000,3.581116943359375,-0.656680166721344,-0.6536257863044739,0.33658674359321594
1733461185485148200,3.591148193359375,-0.5400048494338989,-0.6407976150512695,0.1765400618314743
1733461185495106000,3.60110595703125,-0.4080579876899719,-0.38728857040405273,0.039095375686883926
1733461185505137700,3.6111376953125,-0.242513507604599,-0.0006108652451075613,-0.07391469180583954
1733461185515125500,3.62112548828125,-0.1014036312699318,0.40622538328170776,-0.11239920556545258
1733461185525126700,3.631126708984375,-0.018325956538319588,0.7257078886032104,-0.051312681287527084
1733461185535114500,3.641114501953125,0.012217304669320583,0.8332201838493347,0.08796459436416626
1733461185545146400,3.651146484375,-0.0354301854968071,0.6939429044723511,0.2779437005519867
1733461185555103500,3.661103515625,-0.16432274878025055,0.3139847218990326,0.485027015209198
1733461185565135000,3.671135009765625,-0.4282165467739105,-0.50335294008255,0.7910705208778381
1733461185575123200,3.681123291015625,-0.5363397002220154,-1.0268645286560059,0.9584475755691528
1733461185585124000,3.6911240234375,-0.5797111392021179,-1.3628404140472412,1.0702359676361084
1733461185595112200,3.7011123046875,-0.5607742667198181,-1.5039502382278442,1.1056660413742065
1733461185605142500,3.711142578125,-0.45265114307403564,-1.50211763381958,1.064738154411316
1733461185615101000,3.721100830078125,-0.23579397797584534,-1.3353514671325684,0.9462302923202515
1733461185625133600,3.731133544921875,0.05253441259264946,-0.9761626720428467,0.7440338730812073
1733461185635120600,3.74112060546875,0.4917465150356293,-0.14416420459747314,0.30482175946235657
1733461185645120800,3.751120849609375,0.6884451508522034,0.45814892649650574,-0.05619960278272629
1733461185655109600,3.761109619140625,0.759916365146637,0.9590584635734558,-0.394008070230484
1733461185665140200,3.77114013671875,0.7305948138237,1.226617455482483,-0.6444628238677979
1733461185675129300,3.78112939453125,0.6041457056999207,1.2583824396133423,-0.7776314616203308
1733461185685129200,3.791129150390625,0.40744712948799133,1.1129964590072632,-0.8112290501594543
1733461185695118000,3.8011181640625,0.16737708449363708,0.8533787727355957,-0.7739662528038025
1733461185705148700,3.811148681640625,-0.18020524084568024,0.37629300355911255,-0.6401867866516113
1733461185715107000,3.821107177734375,-0.35063666105270386,0.08979719132184982,-0.5393940210342407
1733461185725139000,3.831138916015625,-0.45142942667007446,-0.09040805697441101,-0.43188172578811646
1733461185735126800,3.841126708984375,-0.48869219422340393,-0.13500121235847473,-0.31459560990333557
1733461185745128000,3.8511279296875,-0.4807509481906891,-0.07147123664617538,-0.19058994948863983
1733461185755115800,3.86111572265625,-0.44654250144958496,0.056810468435287476,-0.06902777403593063
1733461185765147000,3.87114697265625,-0.3952298164367676,0.19914206862449646,0.03237585723400116
1733461185775105000,3.88110498046875,-0.32559117674827576,0.3139847218990326,0.09224065393209457
1733461185785136000,3.89113623046875,-0.20586158335208893,0.40133845806121826,0.08185594528913498
1733461185795124200,3.901124267578125,-0.13927727937698364,0.38606682419776917,0.010995574295520782
1733461185805124600,3.91112451171875,-0.0757472887635231,0.2932153046131134,-0.09162978827953339
1733461185815113500,3.921113525390625,-0.028099801391363144,0.14233160018920898,-0.19792033731937408
1733461185825144800,3.931144775390625,-0.0012217304902151227,-0.021991148591041565,-0.2816088795661926
1733461185835102200,3.941102294921875,0.004886921960860491,-0.13927727937698364,-0.3188716471195221
1733461185845133800,3.9511337890625,0.005497787147760391,-0.17531833052635193,-0.3072652220726013
1733461185855122000,3.961121826171875,-0.02932153269648552,-0.12461651116609573,-0.21930062770843506
1733461185865122800,3.971122802734375,-0.04948008432984352,-0.09162978827953339,-0.14905111491680145
1733461185875111000,3.98111083984375,-0.05864306539297104,-0.0708603709936142,-0.10201449692249298
1733461185885141800,3.991141845703125,-0.05253441259264946,-0.04092797264456749,-0.08674286305904388
1733461185895100200,4.00110009765625,-0.03726277872920036,0.00855211354792118,-0.09468411654233932
1733461185905131000,4.011131103515625,-0.01466076634824276,0.08429940044879913,-0.10995574295520782
1733461185915119600,4.02111962890625,0.014049900695681572,0.1563815027475357,-0.11178833991289139
1733461185925150200,4.031150146484375,0.06536258012056351,0.18570303916931152,-0.07452555745840073
1733461185935108400,4.0411083984375,0.0708603709936142,0.12889257073402405,-0.01710422709584236
1733461185945140200,4.05114013671875,0.05803219974040985,0.009162978269159794,0.056810468435287476
1733461185955128000,4.061128173828125,0.03726277872920036,-0.15027284622192383,0.13316862285137177
1733461185965129200,4.071129150390625,0.018936822190880775,-0.3072652220726013,0.19547687470912933
1733461185975117300,4.081117431640625,-0.006719517521560192,-0.43127086758613586,0.22968533635139465
1733461185985148200,4.091148193359375,-0.01160643994808197,-0.5283984541893005,0.21624629199504852
1733461185995106300,4.101106201171875,0.007941247895359993,-0.5534439086914062,0.16004669666290283
1733461186005137200,4.11113720703125,0.05497787147760391,-0.41722095012664795,0.028099801391363144
1733461186015125800,4.121125732421875,0.07941248267889023,-0.24617868661880493,-0.05803219974040985
1733461186025127000,4.131126953125,0.09162978827953339,-0.06475171446800232,-0.11484266817569733
1733461186035114500,4.141114501953125,0.08918632566928864,0.0959058403968811,-0.12889257073402405
1733461186045146000,4.15114599609375,0.06291911751031876,0.21441370248794556,-0.11239920556545258
1733461186055103700,4.161103759765625,0.019547687843441963,0.29016098380088806,-0.07819075137376785
1733461186065135000,4.171135009765625,-0.045204028487205505,0.33536502718925476,-0.05192354694008827
1733461186075123200,4.181123291015625,-0.13805554807186127,0.3384193480014801,-0.06841690838336945
1733461186085124400,4.191124267578125,-0.17898350954055786,0.3127630054950714,-0.1258382350206375
1733461186095112400,4.201112548828125,-0.2174680233001709,0.242513507604599,-0.20952677726745605
1733461186105144000,4.21114404296875,-0.23518311977386475,0.13561208546161652,-0.3066543638706207
1733461186115099400,4.221099365234375,-0.2168571650981903,0.06291911751031876,-0.403781920671463
1733461186125131800,4.2311318359375,-0.15027284622192383,0.06475171446800232,-0.4899139404296875
1733461186135120000,4.241119873046875,-0.0555887371301651,0.10384709388017654,-0.5381723046302795
1733461186145121000,4.25112109375,0.033597588539123535,0.12950342893600464,-0.5051855444908142
1733461186155108900,4.26110888671875,0.0757472887635231,0.006108652334660292,-0.21624629199504852
1733461186165140200,4.27114013671875,0.013439035043120384,-0.22052235901355743,0.1459967941045761
1733461186175128300,4.28112841796875,-0.10262536257505417,-0.5442809462547302,0.5821545720100403
1733461186185129500,4.29112939453125,-0.2168571650981903,-0.9077457785606384,0.9767735004425049
1733461186195117300,4.301117431640625,-0.27611109614372253,-1.1850786209106445,1.2455542087554932
1733461186205147600,4.311147705078125,-0.29504790902137756,-1.2504411935806274,1.3628404140472412
1733461186215107000,4.321107177734375,-0.27977627515792847,-1.1343767642974854,1.3298536539077759
1733461186225137700,4.3311376953125,-0.19120082259178162,-0.8222246170043945,1.0714576244354248
1733461186235126800,4.341126708984375,-0.08429940044879913,-0.645684540271759,0.8191702961921692
1733461186245129000,4.35112890625,0.04398229718208313,-0.5241223573684692,0.5424483418464661
1733461186255115800,4.36111572265625,0.15332718193531036,-0.43188172578811646,0.2736676335334778
1733461186265146000,4.37114599609375,0.2223549485206604,-0.32681289315223694,0.05009094998240471
1733461186275104800,4.381104736328125,0.2742784917354584,-0.2125810980796814,-0.09162978827953339
1733461186285136600,4.39113671875,0.3280346393585205,-0.09407325088977814,-0.14416420459747314
1733461186295124200,4.401124267578125,0.3781255781650543,0.10873401165008545,-0.1160643994808197
1733461186305125600,4.411125732421875,0.39095374941825867,0.242513507604599,-0.08674286305904388
1733461186315113500,4.421113525390625,0.38728857040405273,0.3378084897994995,-0.06780604273080826
1733461186325145300,4.431145263671875,0.3799581825733185,0.394008070230484,-0.06108652427792549
1733461186335102500,4.4411025390625,0.35613444447517395,0.4141666293144226,-0.06475171446800232
1733461186345134000,4.451134033203125,0.3280346393585205,0.41722095012664795,-0.07147123664617538
1733461186355122000,4.461121826171875,0.2883284091949463,0.3634648323059082,-0.06963863968849182
1733461186365122800,4.471122802734375,0.23884831368923187,0.2730567753314972,-0.05925392732024193
1733461186375111000,4.48111083984375,0.14477506279945374,0.06658431142568588,-0.04703662544488907
1733461186385142500,4.491142578125,0.08246681094169617,-0.09834930300712585,-0.036651913076639175
1733461186395100200,4.50110009765625,0.04153883829712868,-0.24862214922904968,-0.01466076634824276
1733461186405131800,4.5111318359375,0.030543262138962746,-0.34086281061172485,0.016493361443281174
1733461186415119600,4.52111962890625,0.04092797264456749,-0.3579670190811157,0.04948008432984352
1733461186425150200,4.531150146484375,0.05864306539297104,-0.3029891550540924,0.07757988572120667
1733461186435108400,4.5411083984375,0.09346238523721695,-0.2119702398777008,0.1007927656173706
1733461186445140200,4.55114013671875,0.13744467496871948,-0.09346238523721695,0.12034045159816742
1733461186455128000,4.561128173828125,0.13439035415649414,-0.05864306539297104,0.1258382350206375
1733461186465129200,4.571129150390625,0.10812314599752426,-0.06841690838336945,0.12767083942890167
1733461186475117000,4.581116943359375,0.05864306539297104,-0.10506882518529892,0.13255776464939117
1733461186485148700,4.591148681640625,-0.001832595793530345,-0.14844025671482086,0.1466076523065567
1733461186495106000,4.60110595703125,-0.06108652427792549,-0.1814269721508026,0.1563815027475357
1733461186505137700,4.6111376953125,-0.11789698898792267,-0.19608774781227112,0.1563815027475357
1733461186515125500,4.62112548828125,-0.1814269721508026,-0.16432274878025055,0.13316862285137177
1733461186525126100,4.631126220703125,-0.21013765037059784,-0.11667526513338089,0.09407325088977814
1733461186535114500,4.641114501953125,-0.2272418737411499,-0.06475171446800232,0.039095375686883926
1733461186545145600,4.6511455078125,-0.23884831368923187,-0.00855211354792118,-0.024434609338641167
1733461186555103500,4.661103515625,-0.24678955972194672,0.045204028487205505,-0.0806342139840126
1733461186565134800,4.671134765625,-0.25595253705978394,0.0806342139840126,-0.11239920556545258
1733461186575123200,4.681123291015625,-0.25106561183929443,0.09224065393209457,-0.11484266817569733
1733461186585124000,4.6911240234375,-0.24068090319633484,0.0757472887635231,-0.09040805697441101
1733461186595112200,4.7011123046875,-0.2125810980796814,0.03481931984424591,-0.03848451003432274
1733461186605143600,4.7111435546875,-0.17837265133857727,0.009162978269159794,-0.015271631069481373
1733461186615101200,4.72110107421875,-0.1466076523065567,-0.018936822190880775,-0.015271631069481373
1733461186625132000,4.731132080078125,-0.1313360333442688,-0.045204028487205505,-0.03787364438176155
1733461186635120600,4.74112060546875,-0.13988813757896423,-0.05742133408784866,-0.06719517707824707
1733461186645121800,4.751121826171875,-0.17959438264369965,-0.06108652427792549,-0.07941248267889023
1733461186655109600,4.761109619140625,-0.23884831368923187,-0.05864306539297104,-0.07024950534105301
1733461186665141200,4.771141357421875,-0.32559117674827576,-0.06780604273080826,-0.00733038317412138
1733461186675129300,4.78112939453125,-0.35674530267715454,-0.08918632566928864,0.03787364438176155
1733461186685130000,4.7911298828125,-0.36529740691185,-0.09896016865968704,0.0757472887635231
1733461186695118000,4.8011181640625,-0.3543018400669098,-0.11850785464048386,0.0910189226269722
1733461186705150200,4.811150146484375,-0.3274237811565399,-0.17592918872833252,0.0659734457731247
1733461186715107000,4.821107177734375,-0.2926044464111328,-0.28955012559890747,-0.01466076634824276
1733461186725137700,4.8311376953125,-0.26633724570274353,-0.403781920671463,-0.1514945775270462
1733461186735126800,4.841126708984375,-0.29504790902137756,-0.44654250144958496,-0.394618958234787
1733461186745126400,4.85112646484375,-0.3384193480014801,-0.34636059403419495,-0.485027015209198
1733461186755115800,4.86111572265625,-0.34697145223617554,-0.1508837193250656,-0.4398229718208313
1733461186765147400,4.8711474609375,-0.3176499307155609,0.13744467496871948,-0.24129177629947662
1733461186775104800,4.881104736328125,-0.2889392673969269,0.41722095012664795,0.054367005825042725
1733461186785135900,4.891135986328125,-0.3023782968521118,0.5742133259773254,0.36163222789764404
1733461186795124200,4.901124267578125,-0.3646865487098694,0.5632177591323853,0.6041457056999207
1733461186805124600,4.91112451171875,-0.4386012554168701,0.39217549562454224,0.7214318513870239
1733461186815113500,4.921113525390625,-0.5943718552589417,-0.039706241339445114,0.6108652353286743
1733461186825144300,4.931144287109375,-0.675616979598999,-0.3481931984424591,0.37568211555480957
1733461186835102200,4.941102294921875,-0.7134906053543091,-0.5864306092262268,0.07757988572120667
1733461186845134300,4.95113427734375,-0.7061602473258972,-0.6878342628479004,-0.2125810980796814
1733461186855122000,4.961121826171875,-0.6805039048194885,-0.636521577835083,-0.4343251883983612
1733461186865123000,4.971123046875,-0.6359107494354248,-0.47280970215797424,-0.5510004758834839
1733461186875111000,4.98111083984375,-0.578489363193512,-0.2382374405860901,-0.5613851547241211
1733461186885142500,4.991142578125,-0.5308418869972229,0.16737708449363708,-0.4190535545349121
1733461186895100200,5.00110009765625,-0.5473352670669556,0.38606682419776917,-0.28527405858039856
1733461186905131800,5.0111318359375,-0.5919284224510193,0.5393940210342407,-0.1472185254096985
1733461186915119600,5.02111962890625,-0.6927211880683899,0.5968153476715088,-0.02382374368607998
1733461186925151200,5.031151123046875,-0.8411614298820496,0.5326744914054871,0.08002334833145142
1733461186935108600,5.041108642578125,-1.0005972385406494,0.3384193480014801,0.1466076523065567
1733461186945140200,5.05114013671875,-1.1545352935791016,0.04642575979232788,0.16554448008537292
1733461186955128000,5.061128173828125,-1.3103059530258179,-0.42149701714515686,0.09651670604944229
1733461186965128700,5.071128662109375,-1.320690631866455,-0.6548475623130798,0.004886921960860491
1733461186975117300,5.081117431640625,-1.2712105512619019,-0.7764097452163696,-0.10995574295520782
1733461186985147600,5.091147705078125,-1.1636983156204224,-0.7605272531509399,-0.2125810980796814
1733461186995106300,5.101106201171875,-0.9914342761039734,-0.5962044596672058,-0.2590068578720093
1733461187005137400,5.111137451171875,-0.7770205736160278,-0.2993239760398865,-0.22113321721553802
1733461187015125800,5.121125732421875,-0.5760459303855896,0.06352998316287994,-0.10323622822761536
1733461187025127200,5.131127197265625,-0.44226643443107605,0.37262779474258423,0.03787364438176155
1733461187035114800,5.14111474609375,-0.3799581825733185,0.49235737323760986,0.13561208546161652
1733461187045173500,5.151173583984375,-0.38667771220207214,0.36163222789764404,0.059864792972803116
1733461187055103700,5.161103759765625,-0.43615779280662537,0.14294247329235077,-0.1661553531885147
1733461187065134000,5.171134033203125,-0.5082398653030396,-0.0861319974064827,-0.50335294008255
1733461187075123200,5.181123291015625,-0.5791002511978149,-0.2272418737411499,-0.8497135639190674
1733461187085124400,5.191124267578125,-0.6053674817085266,-0.21441370248794556,-1.084285855293274
1733461187095112200,5.2011123046875,-0.5937610268592834,-0.059864792972803116,-1.1215485334396362
1733461187105144000,5.21114404296875,-0.5540547966957092,0.35185837745666504,-0.8038986921310425
1733461187115099400,5.221099365234375,-0.543059229850769,0.5222898125648499,-0.4294382631778717
1733461187125131800,5.2311318359375,-0.5705481171607971,0.5051855444908142,-0.01160643994808197
1733461187135120000,5.241119873046875,-0.6603453159332275,0.33169981837272644,0.3604104816913605
1733461187145121000,5.25112109375,-0.7916813492774963,0.036041051149368286,0.6304129362106323
1733461187155108600,5.261108642578125,-0.9254608750343323,-0.2889392673969269,0.7623597979545593
1733461187165139200,5.27113916015625,-1.0506882667541504,-0.5595525503158569,0.7641924023628235
1733461187175128300,5.28112841796875,-1.19912850856781,-0.7867944240570068,0.6291912198066711
1733461187185128400,5.29112841796875,-1.281595230102539,-0.7935139536857605,0.5406157374382019
1733461187195117600,5.30111767578125,-1.3585642576217651,-0.7281513810157776,0.49785518646240234
1733461187205148000,5.31114794921875,-1.4043792486190796,-0.6346889734268188,0.4960225820541382
1733461187215107000,5.321107177734375,-1.4172073602676392,-0.53328537940979,0.5057964324951172
1733461187225139200,5.33113916015625,-1.4074335098266602,-0.40622538328170776,0.49785518646240234
1733461187235126800,5.341126708984375,-1.379333734512329,-0.25473082065582275,0.46303585171699524
1733461187245128200,5.351128173828125,-1.341460108757019,-0.08429940044879913,0.394008070230484
1733461187255115800,5.36111572265625,-1.2858713865280151,0.1459967941045761,0.21563543379306793
1733461187265147400,5.3711474609375,-1.2467759847640991,0.2687807083129883,0.06108652427792549
1733461187275104800,5.381104736328125,-1.2345587015151978,0.37751471996307373,-0.07696902006864548
1733461187285136600,5.39113671875,-1.2522737979888916,0.4544837474822998,-0.15760323405265808
1733461187295124200,5.401124267578125,-1.2754865884780884,0.4697553813457489,-0.1771509200334549
1733461187305125600,5.411125732421875,-1.3078625202178955,0.4251621961593628,-0.16249015927314758
1733461187315113500,5.421113525390625,-1.3536773920059204,0.32070425152778625,-0.14049901068210602
1733461187325145000,5.43114501953125,-1.423926830291748,0.09346238523721695,-0.14294247329235077
1733461187335102200,5.441102294921875,-1.4465289115905762,-0.039706241339445114,-0.1716531366109848
1733461187345134000,5.451134033203125,-1.4636331796646118,-0.11545353382825851,-0.19792033731937408
1733461187355122000,5.461121826171875,-1.463022232055664,-0.1459967941045761,-0.21135938167572021
1733461187365123000,5.471123046875,-1.4367550611495972,-0.1563815027475357,-0.2278527319431305
1733461187375111000,5.48111083984375,-1.387274980545044,-0.13927727937698364,-0.23457226157188416
1733461187385142500,5.491142578125,-1.3151928186416626,-0.0910189226269722,-0.23151792585849762
1733461187395100000,5.501099853515625,-1.189354658126831,0.06108652427792549,-0.19120082259178162
1733461187405131800,5.5111318359375,-1.1429288387298584,0.14233160018920898,-0.12034045159816742
1733461187415119600,5.52111962890625,-1.1453723907470703,0.13500121235847473,-0.03726277872920036
1733461187425151200,5.531151123046875,-1.19607412815094,0.036651913076639175,0.02932153269648552
1733461187435108400,5.5411083984375,-1.2736539840698242,-0.09651670604944229,0.06414084881544113
1733461187445140200,5.55114013671875,-1.3469579219818115,-0.20402899384498596,0.05314527451992035
1733461187455128000,5.561128173828125,-1.4049900770187378,-0.23945917189121246,0.0006108652451075613
1733461187465129000,5.57112890625,-1.436144232749939,-0.21013765037059784,-0.06658431142568588
1733461187475117000,5.581116943359375,-1.451415777206421,-0.08918632566928864,-0.1466076523065567
1733461187485149000,5.59114892578125,-1.4385876655578613,-0.013439035043120384,-0.1618792861700058
1733461187495106000,5.60110595703125,-1.4049900770187378,0.030543262138962746,-0.14355333149433136
1733461187505136600,5.61113671875,-1.3432927131652832,0.029932396486401558,-0.10567969083786011
1733461187515125500,5.62112548828125,-1.2620476484298706,0.00733038317412138,-0.06291911751031876
1733461187525125600,5.631125732421875,-1.1734721660614014,-0.021991148591041565,-0.013439035043120384
1733461187535114500,5.641114501953125,-1.0873401165008545,-0.06291911751031876,0.04092797264456749
1733461187545146600,5.651146728515625,-0.978606104850769,-0.11972958594560623,0.09834930300712585
1733461187555103500,5.661103515625,-0.9297369122505188,-0.1362229436635971,0.11972958594560623
1733461187565135400,5.67113525390625,-0.9059131741523743,-0.15393804013729095,0.12461651116609573
1733461187575123200,5.681123291015625,-0.8851437568664551,-0.18020524084568024,0.11911872029304504
1733461187585124400,5.691124267578125,-0.8643743395805359,-0.20402899384498596,0.10506882518529892
1733461187595112200,5.7011123046875,-0.8539896011352539,-0.2028072625398636,0.07635815441608429
1733461187605144000,5.71114404296875,-0.856433093547821,-0.18509216606616974,0.03481931984424591
1733461187615101000,5.721100830078125,-0.8674286603927612,-0.152105450630188,-0.04214970022439957
1733461187625133000,5.731133056640625,-0.8827002644538879,-0.12095131725072861,-0.09834930300712585
1733461187635120600,5.74112060546875,-0.8949176073074341,-0.10018189996480942,-0.15332718193531036
1733461187645122000,5.7511220703125,-0.8930850028991699,-0.09529497474431992,-0.18814650177955627
1733461187655109600,5.761109619140625,-0.8802568316459656,-0.10262536257505417,-0.19547687470912933
1733461187665141500,5.7711416015625,-0.8637634515762329,-0.11301007121801376,-0.1765400618314743
1733461187675129300,5.78112939453125,-0.8478809595108032,-0.1007927656173706,-0.14355333149433136
1733461187685130500,5.791130615234375,-0.826500654220581,-0.06780604273080826,-0.11484266817569733
1733461187695118000,5.8011181640625,-0.8063421249389648,0.006108652334660292,-0.10018189996480942
1733461187705150200,5.811150146484375,-0.8020660877227783,0.031154127791523933,-0.10506882518529892
1733461187715107300,5.821107421875,-0.7959573864936829,0.00427605677396059,-0.11728613078594208
1733461187725139200,5.83113916015625,-0.789237916469574,-0.054367005825042725,-0.12828169763088226
1733461187735126800,5.841126708984375,-0.7733554244041443,-0.10812314599752426,-0.13316862285137177
1733461187745127000,5.851126953125,-0.7452555894851685,-0.13439035415649414,-0.13316862285137177
1733461187755115800,5.86111572265625,-0.7043276429176331,-0.12400564551353455,-0.13744467496871948
1733461187765146400,5.871146484375,-0.6102544069290161,-0.05742133408784866,-0.14905111491680145
1733461187775104800,5.881104736328125,-0.5296201705932617,-0.004886921960860491,-0.15515977144241333
1733461187785135000,5.891135009765625,-0.44165557622909546,0.04398229718208313,-0.1459967941045761
1733461187795124200,5.901124267578125,-0.33658674359321594,0.0861319974064827,-0.11667526513338089
1733461187805124400,5.911124267578125,-0.21013765037059784,0.11789698898792267,-0.07696902006864548
1733461187815113500,5.921113525390625,-0.09162978827953339,0.14294247329235077,-0.025045474991202354
1733461187825143600,5.9311435546875,-0.004886921960860491,0.10445795953273773,0.025656340643763542
1733461187835102200,5.941102294921875,0.060475658625364304,-0.13805554807186127,0.0757472887635231
1733461187845134000,5.951134033203125,0.0757472887635231,-0.3341432809829712,0.06902777403593063
1733461187855122000,5.961121826171875,0.06414084881544113,-0.4612032473087311,0.04459316283464432
1733461187865122800,5.971122802734375,0.028099801391363144,-0.4801400899887085,0.03176499158143997
1733461187875111000,5.98111083984375,-0.019547687843441963,-0.384845107793808,0.06108652427792549
1733461187885142500,5.991142578125,-0.05803219974040985,-0.22052235901355743,0.13255776464939117
1733461187895100200,6.00110009765625,-0.09529497474431992,-0.028099801391363144,0.2217440903186798
1733461187905131500,6.011131591796875,-0.13866640627384186,0.12278391420841217,0.2981022298336029
1733461187915119600,6.02111962890625,-0.16798794269561768,0.12828169763088226,0.3286454975605011
1733461187925150500,6.031150390625,-0.15882496535778046,-0.015271631069481373,0.27550023794174194
1733461187935108400,6.0411083984375,-0.13805554807186127,-0.19914206862449646,0.1869247704744339
1733461187945139700,6.0511396484375,-0.09162978827953339,-0.3292563557624817,0.08918632566928864
1733461187955128000,6.061128173828125,-0.021380282938480377,-0.3787364661693573,0.012828170321881771
1733461187965128700,6.071128662109375,0.07696902006864548,-0.3194825351238251,-0.019547687843441963
1733461187975117300,6.081117431640625,0.18387043476104736,-0.17898350954055786,-0.0012217304902151227
1733461187985148400,6.0911484375,0.3243694305419922,0.06780604273080826,0.0757472887635231
1733461187995106300,6.101106201171875,0.3805690407752991,0.17531833052635193,0.11423180252313614
1733461188005138000,6.111137939453125,0.403781920671463,0.21380282938480377,0.11545353382825851
1733461188015125800,6.121125732421875,0.3952298164367676,0.21502456068992615,0.07696902006864548
1733461188025127000,6.131126953125,0.3579670190811157,0.17409659922122955,0.00366519158706069
1733461188035114800,6.14111474609375,0.2987131178379059,0.08735372871160507,-0.09224065393209457
1733461188045146600,6.151146728515625,0.2376265823841095,-0.010995574295520782,-0.18448130786418915
1733461188055103700,6.161103759765625,0.18570303916931152,-0.11667526513338089,-0.26633724570274353
1733461188065135400,6.17113525390625,0.1814269721508026,-0.13316862285137177,-0.26939156651496887
1733461188075123200,6.181123291015625,0.18997909128665924,-0.12095131725072861,-0.23151792585849762
1733461188085124400,6.191124267578125,0.2015855312347412,-0.09773843735456467,-0.16920967400074005
1733461188095112400,6.201112548828125,0.2076941877603531,-0.09162978827953339,-0.09957103431224823
1733461188105144000,6.21114404296875,0.19425514340400696,-0.11545353382825851,-0.04337143152952194
1733461188115099400,6.221099365234375,0.15882496535778046,-0.16310101747512817,-0.006719517521560192
1733461188125132000,6.231132080078125,0.1062905490398407,-0.23090706765651703,0.018325956538319588
1733461188135119600,6.24111962890625,0.031154127791523933,-0.33292156457901,0.051312681287527084
1733461188145121000,6.25112109375,-0.00366519158706069,-0.38667771220207214,0.07696902006864548
1733461188155108900,6.26110888671875,-0.025656340643763542,-0.4349360466003418,0.10934487730264664
1733461188165140200,6.27114013671875,-0.029932396486401558,-0.4911356568336487,0.14233160018920898
1733461188175128300,6.28112841796875,-0.014049900695681572,-0.5619960427284241,0.1618792861700058
1733461188185128400,6.29112841796875,0.028099801391363144,-0.6328563690185547,0.14233160018920898
1733461188195117300,6.301117431640625,0.09957103431224823,-0.6664539575576782,0.06780604273080826
1733461188205148000,6.31114794921875,0.23396138846874237,-0.5369505286216736,-0.15943582355976105
1733461188215107000,6.321107177734375,0.2968805134296417,-0.3127630054950714,-0.3500257730484009
1733461188225138000,6.331137939453125,0.3292563557624817,-0.014049900695681572,-0.5345070958137512
1733461188235126800,6.341126708984375,0.32559117674827576,0.3078760802745819,-0.6860016584396362
1733461188245128000,6.3511279296875,0.29016098380088806,0.588874101638794,-0.7855727076530457
1733461188255115800,6.36111572265625,0.21563543379306793,0.7874053120613098,-0.8222246170043945
1733461188265147400,6.3711474609375,0.11667526513338089,0.8833111524581909,-0.799011766910553
1733461188275104800,6.381104736328125,-0.036651913076639175,0.8362745046615601,-0.6426302194595337
1733461188285136400,6.391136474609375,-0.12950342893600464,0.6481280326843262,-0.47830748558044434
1733461188295124200,6.401124267578125,-0.1918116807937622,0.32986724376678467,-0.2926044464111328
1733461188305124900,6.411124755859375,-0.2119702398777008,-0.05497787147760391,-0.10812314599752426
1733461188315113200,6.42111328125,-0.17959438264369965,-0.4331034719944,0.06108652427792549
1733461188325144600,6.43114453125,-0.11362093687057495,-0.7031059265136719,0.2064724564552307
1733461188335102500,6.4411025390625,-0.031154127791523933,-0.8295549750328064,0.32559117674827576
1733461188345133600,6.451133544921875,0.08246681094169617,-0.8106181621551514,0.423329621553421
1733461188355122000,6.461121826171875,0.26083946228027344,-0.5913175344467163,0.5491678714752197
1733461188365122300,6.471122314453125,0.34758231043815613,-0.4105014503002167,0.6163630485534668
1733461188375111000,6.48111083984375,0.3952298164367676,-0.26450464129447937,0.6536257863044739
1733461188385141800,6.491141845703125,0.40683624148368835,-0.182648703455925,0.6493497490882874
1733461188395100000,6.501099853515625,0.3799581825733185,-0.15882496535778046,0.5919284224510193
1733461188405131800,6.5111318359375,0.3286454975605011,-0.18020524084568024,0.47708576917648315
1733461188415119600,6.52111962890625,0.25534167885780334,-0.22663100063800812,0.3194825351238251
1733461188425151200,6.531151123046875,0.13805554807186127,-0.2590068578720093,0.05742133408784866
1733461188435108400,6.5411083984375,0.07696902006864548,-0.1771509200334549,-0.08552113175392151
1733461188445140000,6.551139892578125,0.03176499158143997,0.014049900695681572,-0.17287486791610718
1733461188455127800,6.5611279296875,-0.001832595793530345,0.2541199326515198,-0.19914206862449646
1733461188465129000,6.57112890625,-0.04459316283464432,0.43799036741256714,-0.1869247704744339
1733461188475117000,6.581116943359375,-0.09773843735456467,0.5491678714752197,-0.16432274878025055
1733461188485148700,6.591148681640625,-0.1661553531885147,0.5876523852348328,-0.14355333149433136
1733461188495106300,6.601106201171875,-0.27550023794174194,0.49357911944389343,-0.13072516024112701
1733461188505137000,6.611136962890625,-0.33536502718925476,0.32498031854629517,-0.1264491081237793
1733461188515125500,6.62112548828125,-0.3543018400669098,0.07819075137376785,-0.12278391420841217
1733461188525125400,6.63112548828125,-0.3127630054950714,-0.18325957655906677,-0.11239920556545258
1733461188535114500,6.641114501953125,-0.2272418737411499,-0.36529740691185,-0.08185594528913498
1733461188545145000,6.65114501953125,-0.12339477986097336,-0.45204028487205505,-0.03787364438176155
1733461188555103500,6.661103515625,-0.021991148591041565,-0.46731191873550415,0.016493361443281174
1733461188565134600,6.671134521484375,0.07330382615327835,-0.41111230850219727,0.07024950534105301
1733461188575123200,6.681123291015625,0.16310101747512817,-0.2076941877603531,0.17043140530586243
1733461188585123600,6.69112353515625,0.18631389737129211,-0.05803219974040985,0.24068090319633484
1733461188595112200,6.7011123046875,0.17592918872833252,0.030543262138962746,0.30543261766433716
1733461188605143800,6.711143798828125,0.1319468915462494,-0.006108652334660292,0.3439171314239502
1733461188615101000,6.721100830078125,0.06902777403593063,-0.13927727937698364,0.3445279896259308
1733461188625132300,6.73113232421875,0.012828170321881771,-0.2773328125476837,0.31031954288482666
1733461188635120600,6.74112060546875,-0.01160643994808197,-0.34025195240974426,0.2565633952617645
1733461188645121300,6.751121337890625,0.018936822190880775,-0.26939156651496887,0.17043140530586243
1733461188655109600,6.761109619140625,0.08918632566928864,-0.16554448008537292,0.10812314599752426
1733461188665141200,6.771141357421875,0.1569923609495163,-0.00733038317412138,0.05009094998240471
1733461188675129300,6.78112939453125,0.1820378452539444,0.17287486791610718,0.009162978269159794
1733461188685130500,6.791130615234375,0.16432274878025055,0.29504790902137756,-0.001832595793530345
1733461188695118000,6.8011181640625,0.10995574295520782,0.31093040108680725,0.009773843921720982
1733461188705149700,6.811149658203125,0.025656340643763542,0.22968533635139465,0.029932396486401558
1733461188715107000,6.821107177734375,-0.1270599663257599,0.051312681287527084,0.051312681287527084
1733461188725139000,6.831138916015625,-0.22540926933288574,-0.01466076634824276,0.05253441259264946
1733461188735126800,6.841126708984375,-0.3078760802745819,0.003054326167330146,0.05864306539297104
1733461188745128000,6.8511279296875,-0.37201693654060364,0.09896016865968704,0.09957103431224823
1733461188755115800,6.86111572265625,-0.4056145250797272,0.21380282938480377,0.19853121042251587
1733461188765147400,6.8711474609375,-0.4202753007411957,0.2779437005519867,0.3646865487098694
1733461188775104800,6.881104736328125,-0.4056145250797272,0.2431243658065796,0.5803219676017761
1733461188785136400,6.891136474609375,-0.3628539443016052,0.1014036312699318,0.8124507665634155
1733461188795124200,6.901124267578125,-0.29565876722335815,-0.22357667982578278,1.0708467960357666
1733461188805125400,6.91112548828125,-0.25045475363731384,-0.41722095012664795,1.1160508394241333
1733461188815113500,6.921113525390625,-0.1973094791173935,-0.5552765130996704,1.0390818119049072
1733461188825144300,6.931144287109375,-0.11728613078594208,-0.6114761233329773,0.8588765263557434
1733461188835102200,6.941102294921875,-0.009773843921720982,-0.5662720799446106,0.6126978397369385
1733461188845133300,6.95113330078125,0.13072516024112701,-0.41111230850219727,0.3433062732219696
1733461188855122000,6.961121826171875,0.2877175211906433,-0.1563815027475357,0.0959058403968811
1733461188865122800,6.971122802734375,0.4789183437824249,0.30482175946235657,-0.16065755486488342
1733461188875111000,6.98111083984375,0.5338962078094482,0.4508185386657715,-0.26022860407829285
1733461188885142800,6.991142822265625,0.5424483418464661,0.384845107793808,-0.31520646810531616
1733461188895100200,7.00110009765625,0.4948008358478546,0.18325957655906677,-0.33597588539123535
1733461188905130500,7.011130615234375,0.375071257352829,-0.04398229718208313,-0.32986724376678467
1733461188915119600,7.02111962890625,0.19914206862449646,-0.2015855312347412,-0.31031954288482666
1733461188925150000,7.03114990234375,-0.004886921960860491,-0.24007004499435425,-0.29016098380088806
1733461188935108400,7.0411083984375,-0.303600013256073,-0.06230825558304787,-0.26511552929878235
1733461188945140200,7.05114013671875,-0.4239404797554016,0.12889257073402405,-0.24617868661880493
1733461188955128000,7.061128173828125,-0.4746423065662384,0.27488934993743896,-0.22296582162380219
1733461188965129500,7.07112939453125,-0.4709770977497101,0.3646865487098694,-0.20036379992961884
1733461188975117300,7.081117431640625,-0.42210787534713745,0.4288274049758911,-0.18509216606616974
1733461188985148200,7.091148193359375,-0.35124751925468445,0.4612032473087311,-0.16982053220272064
1733461188995106300,7.101106201171875,-0.2730567753314972,0.46303585171699524,-0.14966198801994324
1733461189005137200,7.11113720703125,-0.21013765037059784,0.42149701714515686,-0.1160643994808197
1733461189015126000,7.1211259765625,-0.16554448008537292,0.2577851414680481,-0.0507018156349659
1733461189025127000,7.131126953125,-0.14782938361167908,0.10567969083786011,-0.018936822190880775
1733461189035114500,7.141114501953125,-0.1264491081237793,-0.028099801391363144,-0.01710422709584236
1733461189045173000,7.151173095703125,-0.1007927656173706,-0.09346238523721695,-0.0555887371301651
1733461189055103700,7.161103759765625,-0.07696902006864548,-0.09712757170200348,-0.12461651116609573
1733461189065135400,7.17113525390625,-0.056810468435287476,-0.08429940044879913,-0.20891591906547546
1733461189075123200,7.181123291015625,-0.04337143152952194,-0.0659734457731247,-0.29504790902137756
1733461189085124400,7.191124267578125,-0.030543262138962746,-0.01710422709584236,-0.3897320330142975
1733461189095112400,7.201112548828125,-0.019547687843441963,0.06536258012056351,-0.423329621553421
1733461189105143800,7.211143798828125,-0.021380282938480377,0.17287486791610718,-0.42149701714515686
1733461189115099600,7.221099609375,-0.03176499158143997,0.2620611786842346,-0.3927863538265228
1733461189125131800,7.2311318359375,-0.056810468435287476,0.33536502718925476,-0.34636059403419495
1733461189135120000,7.241119873046875,-0.0959058403968811,0.3646865487098694,-0.3017674386501312
1733461189145121000,7.25112109375,-0.1319468915462494,0.35552358627319336,-0.26939156651496887
1733461189155108900,7.26110888671875,-0.19364428520202637,0.3335324227809906,-0.23090706765651703
1733461189165140500,7.271140380859375,-0.23273965716362,0.294437050819397,-0.18875735998153687
1733461189175128300,7.28112841796875,-0.26083946228027344,0.19608774781227112,-0.12095131725072861
1733461189185129700,7.291129638671875,-0.2773328125476837,0.054367005825042725,-0.030543262138962746
1733461189195117300,7.301117431640625,-0.26083946228027344,-0.09529497474431992,0.07147123664617538
1733461189205148700,7.311148681640625,-0.21135938167572021,-0.182648703455925,0.16310101747512817
1733461189215107000,7.321107177734375,-0.15332718193531036,-0.18387043476104736,0.21380282938480377
1733461189225138200,7.33113818359375,-0.08429940044879913,-0.1160643994808197,0.21930062770843506
1733461189235126800,7.341126708984375,0.019547687843441963,-0.016493361443281174,0.15943582355976105
1733461189245127200,7.351127197265625,0.06230825558304787,0.019547687843441963,0.11301007121801376
1733461189255115800,7.36111572265625,0.08185594528913498,0.02015855349600315,0.09224065393209457
1733461189265147400,7.3711474609375,0.06902777403593063,-0.0012217304902151227,0.10567969083786011
1733461189275104800,7.381104736328125,0.02321287989616394,-0.02382374368607998,0.13439035415649414
1733461189285136400,7.391136474609375,-0.05253441259264946,-0.05925392732024193,0.16249015927314758
1733461189295124500,7.40112451171875,-0.1270599663257599,-0.10018189996480942,0.17104226350784302
1733461189305125600,7.411125732421875,-0.21441370248794556,-0.07330382615327835,0.1466076523065567
1733461189315113500,7.421113525390625,-0.2474004179239273,0.00366519158706069,0.10445795953273773
1733461189325145000,7.43114501953125,-0.25595253705978394,0.06475171446800232,0.04886921867728233
1733461189335102200,7.441102294921875,-0.24190263450145721,0.06475171446800232,-0.00855211354792118
1733461189345134000,7.451134033203125,-0.2076941877603531,0.018325956538319588,-0.05619960278272629
1733461189355122000,7.461121826171875,-0.14294247329235077,-0.04337143152952194,-0.08674286305904388
1733461189365123000,7.471123046875,-0.04337143152952194,-0.07696902006864548,-0.07819075137376785
1733461189375111000,7.48111083984375,0.12950342893600464,-0.05375614017248154,0.059864792972803116
1733461189385142500,7.491142578125,0.20830504596233368,-0.07880161702632904,0.2718350291252136
1733461189395100200,7.50110009765625,0.2168571650981903,-0.18997909128665924,0.5546656250953674
1733461189405131500,7.511131591796875,0.18448130786418915,-0.37201693654060364,0.8478809595108032
1733461189415119600,7.52111962890625,0.13988813757896423,-0.5729916095733643,1.0922271013259888
1733461189425150500,7.531150390625,0.09773843735456467,-0.7031059265136719,1.2223412990570068
1733461189435108400,7.5411083984375,0.07269296050071716,-0.6939429044723511,1.2247848510742188
1733461189445139000,7.551138916015625,0.06719517707824707,-0.5583308339118958,1.1074986457824707
1733461189455128000,7.561128173828125,0.07269296050071716,-0.3341432809829712,0.7849618196487427
1733461189465128000,7.5711279296875,0.056810468435287476,-0.2926044464111328,0.5436700582504272
1733461189475117000,7.581116943359375,0.036041051149368286,-0.3677408695220947,0.3219259977340698
1733461189485147400,7.5911474609375,0.018936822190880775,-0.48258355259895325,0.13561208546161652
1733461189495106000,7.60110595703125,0.012217304669320583,-0.5479460954666138,-0.006719517521560192
1733461189505136600,7.61113671875,0.02626720629632473,-0.5406157374382019,-0.1007927656173706
1733461189515125500,7.62112548828125,0.06841690838336945,-0.48319441080093384,-0.1569923609495163
1733461189525125400,7.63112548828125,0.18325957655906677,-0.31642818450927734,-0.18448130786418915
1733461189535114500,7.641114501953125,0.2926044464111328,-0.15882496535778046,-0.16982053220272064
1733461189545145900,7.651145751953125,0.39645153284072876,0.03298672288656235,-0.13927727937698364
1733461189555103500,7.661103515625,0.44837507605552673,0.2119702398777008,-0.10384709388017654
1733461189565135400,7.67113525390625,0.45814892649650574,0.3066543638706207,-0.08002334833145142
1733461189575123200,7.681123291015625,0.44654250144958496,0.31031954288482666,-0.0708603709936142
1733461189585124400,7.691124267578125,0.4092797040939331,0.25595253705978394,-0.07452555745840073
1733461189595112200,7.7011123046875,0.3182607889175415,0.13988813757896423,-0.09162978827953339
1733461189605143800,7.711143798828125,0.2632829248905182,0.06291911751031876,-0.10506882518529892
1733461189615101000,7.721100830078125,0.2278527319431305,-0.016493361443281174,-0.11239920556545258
1733461189625132500,7.731132568359375,0.21807889640331268,-0.08674286305904388,-0.10873401165008545
1733461189635120600,7.74112060546875,0.21624629199504852,-0.1362229436635971,-0.08857546001672745
1733461189645122000,7.7511220703125,0.20891591906547546,-0.1716531366109848,-0.051312681287527084
1733461189655109600,7.761109619140625,0.19547687470912933,-0.19914206862449646,-0.006719517521560192
1733461189665141200,7.771141357421875,0.17287486791610718,-0.2217440903186798,0.03176499158143997
1733461189675129300,7.78112939453125,0.12400564551353455,-0.18020524084568024,0.07024950534105301
1733461189685129500,7.79112939453125,0.11056660860776901,-0.1160643994808197,0.07269296050071716
1733461189695118000,7.8011181640625,0.11545353382825851,-0.039706241339445114,0.06475171446800232
1733461189705149400,7.8111494140625,0.1362229436635971,0.029932396486401558,0.04153883829712868
1733461189715107300,7.821107421875,0.16310101747512817,0.09224065393209457,0.01466076634824276
1733461189725139000,7.831138916015625,0.182648703455925,0.12095131725072861,-0.012217304669320583
1733461189735126800,7.841126708984375,0.17837265133857727,0.1264491081237793,-0.03420845419168472
1733461189745128000,7.8511279296875,0.12339477986097336,0.07024950534105301,-0.05864306539297104
1733461189755115800,7.86111572265625,0.06841690838336945,-0.006719517521560192,-0.06230825558304787
1733461189765147000,7.87114697265625,0.02871066704392433,-0.09529497474431992,-0.05742133408784866
1733461189775104800,7.881104736328125,-0.001832595793530345,-0.14905111491680145,-0.04948008432984352
1733461189785135900,7.891135986328125,-0.012828170321881771,-0.13744467496871948,-0.05009094998240471
1733461189795124500,7.90112451171875,0,-0.06230825558304787,-0.05742133408784866
1733461189805124900,7.911124755859375,0.031154127791523933,0.0507018156349659,-0.06475171446800232
1733461189815113500,7.921113525390625,0.10995574295520782,0.22540926933288574,-0.059864792972803116
1733461189825144300,7.931144287109375,0.1618792861700058,0.2785545587539673,-0.05375614017248154
1733461189835102200,7.941102294921875,0.21624629199504852,0.24923302233219147,-0.05253441259264946
1733461189845134000,7.951134033203125,0.24556782841682434,0.16493362188339233,-0.05864306539297104
1733461189855122000,7.961121826171875,0.24190263450145721,0.07696902006864548,-0.07513642311096191
1733461189865123300,7.971123291015625,0.19058994948863983,0.00366519158706069,-0.08735372871160507
1733461189875111000,7.98111083984375,0.10567969083786011,-0.05497787147760391,-0.09285151958465576
1733461189885141200,7.991141357421875,-0.018325956538319588,-0.10812314599752426,-0.08674286305904388
1733461189895100200,8.00110009765625,-0.20463985204696655,-0.24862214922904968,-0.06536258012056351
1733461189905131500,8.011131591796875,-0.28038713335990906,-0.33719760179519653,-0.07391469180583954
1733461189915119600,8.02111962890625,-0.3066543638706207,-0.35185837745666504,-0.11239920556545258
1733461189925151200,8.031151123046875,-0.303600013256073,-0.25961771607398987,-0.18020524084568024
1733461189935108400,8.0411083984375,-0.29565876722335815,-0.08979719132184982,-0.252287358045578
1733461189945140500,8.051140380859374,-0.2773328125476837,0.08918632566928864,-0.30543261766433716
1733461189955128000,8.061128173828125,-0.2528982162475586,0.2571742534637451,-0.33597588539123535
1733461189965129200,8.071129150390625,-0.19058994948863983,0.49235737323760986,-0.3488040566444397
1733461189975117300,8.081117431640624,-0.1612684279680252,0.6328563690185547,-0.33047810196876526
1733461189985149000,8.09114892578125,-0.16737708449363708,0.7000515460968018,-0.27061331272125244
1733461189995106300,8.101106201171875,-0.23335053026676178,0.6120869517326355,-0.14477506279945374
1733461190005138000,8.111137939453124,-0.37568211555480957,0.33108896017074585,0.06658431142568588
1733461190015125800,8.121125732421875,-0.5674937963485718,-0.1215621829032898,0.34697145223617554
1733461190025127000,8.131126953125,-0.7342600226402283,-0.6768386960029602,0.637132465839386
1733461190035114500,8.141114501953124,-0.8423831462860107,-1.29381263256073,0.9529497623443604
1733461190045145000,8.15114501953125,-0.8423831462860107,-1.3756685256958008,1.0231993198394775
1733461190055103700,8.161103759765625,-0.7641924023628235,-1.2223412990570068,0.9828822016716003
1733461190065134000,8.171134033203124,-0.5821545720100403,-0.9034696817398071,0.8497135639190674
1733461190075123200,8.181123291015625,-0.3341432809829712,-0.49357911944389343,0.665232241153717
1733461190085123000,8.191123046875,-0.08307767659425735,-0.05925392732024193,0.45875978469848633
1733461190095112400,8.201112548828124,0.11972958594560623,0.33597588539123535,0.24862214922904968
1733461190105144000,8.21114404296875,0.2480112910270691,0.5644394755363464,0.0507018156349659
1733461190115099400,8.221099365234375,0.3543018400669098,0.5534439086914062,-0.17776179313659668
1733461190125131800,8.2311318359375,0.33658674359321594,0.4184426963329315,-0.28955012559890747
1733461190135120000,8.241119873046875,0.2535090744495392,0.25473082065582275,-0.3787364661693573
1733461190145119700,8.25111962890625,0.1319468915462494,0.12034045159816742,-0.4392121136188507
1733461190155108900,8.26110888671875,-0.007941247895359993,0.04459316283464432,-0.4612032473087311
1733461190165140500,8.271140380859375,-0.1411098688840866,0.03298672288656235,-0.4404338300228119
1733461190175128300,8.28112841796875,-0.2571742534637451,0.059864792972803116,-0.38179078698158264
1733461190185129500,8.29112939453125,-0.4141666293144226,0.1270599663257599,-0.24495697021484375
1733461190195117300,8.301117431640625,-0.5082398653030396,0.13439035415649414,-0.1472185254096985
1733461190205149000,8.31114892578125,-0.5919284224510193,0.10018189996480942,-0.059864792972803116
1733461190215107000,8.321107177734374,-0.6505714654922485,0.02076941914856434,0.00733038317412138
1733461190225139200,8.33113916015625,-0.6780604124069214,-0.06719517707824707,0.04703662544488907
1733461190235126800,8.341126708984374,-0.6719517707824707,-0.1258382350206375,0.06291911751031876
1733461190245127400,8.35112744140625,-0.6407976150512695,-0.14844025671482086,0.06414084881544113
1733461190255115800,8.36111572265625,-0.5589417219161987,-0.14416420459747314,0.05497787147760391
1733461190265146400,8.371146484375,-0.47769662737846375,-0.11972958594560623,0.042760565876960754
1733461190275104800,8.381104736328124,-0.3891211748123169,-0.07269296050071716,0.031154127791523933
1733461190285135400,8.39113525390625,-0.29993483424186707,-0.015882495790719986,0.024434609338641167
1733461190295124500,8.40112451171875,-0.2125810980796814,0.02321287989616394,0.010995574295520782
1733461190305125400,8.41112548828125,-0.1368338167667389,0.03298672288656235,-0.01160643994808197
1733461190315113500,8.421113525390625,-0.07513642311096191,0.00733038317412138,-0.05314527451992035
1733461190325144600,8.43114453125,-0.030543262138962746,-0.033597588539123535,-0.09651670604944229
1733461190335102200,8.441102294921874,0.00427605677396059,-0.0806342139840126,-0.1508837193250656
1733461190345133300,8.45113330078125,0.010995574295520782,-0.08918632566928864,-0.17531833052635193
1733461190355122000,8.461121826171874,0.02382374368607998,-0.06963863968849182,-0.19975294172763824
1733461190365122600,8.47112255859375,0.03787364438176155,-0.006719517521560192,-0.24007004499435425
1733461190375111000,8.48111083984375,0.05253441259264946,0.10751228034496307,-0.2871066629886627
1733461190385142000,8.49114208984375,0.06841690838336945,0.2571742534637451,-0.3182607889175415
1733461190395100000,8.501099853515624,0.07941248267889023,0.3988949954509735,-0.32131510972976685
1733461190405131800,8.5111318359375,0.05253441259264946,0.4862487316131592,-0.2474004179239273
1733461190415119400,8.521119384765624,0.014049900695681572,0.4447098970413208,-0.16493362188339233
1733461190425151200,8.531151123046875,-0.05375614017248154,0.3274237811565399,-0.08307767659425735
1733461190435108400,8.5411083984375,-0.12400564551353455,0.16920967400074005,-0.02382374368607998
1733461190445139500,8.551139404296874,-0.17837265133857727,0.007941247895359993,-0.00427605677396059
1733461190455127800,8.5611279296875,-0.21441370248794556,-0.11789698898792267,-0.009773843921720982
1733461190465128400,8.57112841796875,-0.23457226157188416,-0.17959438264369965,-0.027488935738801956
1733461190475117000,8.581116943359374,-0.24923302233219147,-0.2168571650981903,-0.05497787147760391
1733461190485148400,8.5911484375,-0.2272418737411499,-0.23640485107898712,-0.06414084881544113
1733461190495106300,8.601106201171875,-0.18631389737129211,-0.22846360504627228,-0.06414084881544113
1733461190505137200,8.61113720703125,-0.13377949595451355,-0.18081611394882202,-0.07147123664617538
1733461190515125500,8.62112548828125,-0.09285151958465576,-0.07452555745840073,-0.09896016865968704
1733461190525126700,8.631126708984375,-0.07269296050071716,0.09285151958465576,-0.14049901068210602
1733461190535114500,8.641114501953124,-0.08918632566928864,0.2919935882091522,-0.1814269721508026
1733461190545146000,8.65114599609375,-0.1362229436635971,0.4795292317867279,-0.21624629199504852
1733461190555103500,8.661103515625,-0.24068090319633484,0.6322455406188965,-0.2638937830924988
1733461190565135000,8.671135009765624,-0.31642818450927734,0.6224716901779175,-0.2883284091949463
1733461190575123200,8.681123291015625,-0.3878994286060333,0.5564982295036316,-0.3023782968521118
1733461190585124400,8.691124267578125,-0.41172316670417786,0.49296826124191284,-0.31031954288482666
1733461190595112200,8.7011123046875,-0.3646865487098694,0.4691445231437683,-0.31459560990333557
1733461190605142500,8.711142578125,-0.24678955972194672,0.47830748558044434,-0.30604347586631775
1733461190615101000,8.721100830078125,-0.07819075137376785,0.4538728892803192,-0.2571742534637451
1733461190625131300,8.73113134765625,0.14355333149433136,0.21991148591041565,-0.04703662544488907
1733461190635120600,8.74112060546875,0.19303341209888458,-0.04948008432984352,0.20525072515010834
1733461190645121000,8.75112109375,0.16249015927314758,-0.32559117674827576,0.5424483418464661
1733461190655109600,8.761109619140624,0.06658431142568588,-0.5229006409645081,0.9181304574012756
1733461190665140700,8.771140625,-0.07452555745840073,-0.6426302194595337,1.2687671184539795
1733461190675129300,8.78112939453125,-0.19975294172763824,-0.7147123217582703,1.5167783498764038
1733461190685129000,8.79112890625,-0.28955012559890747,-0.7336491346359253,1.623068928718567
1733461190695118000,8.8011181640625,-0.35735616087913513,-0.6914994716644287,1.4795156717300415
1733461190705150700,8.811150634765625,-0.3390302062034607,-0.6902777552604675,1.2046263217926025
1733461190715107300,8.821107421875,-0.28038713335990906,-0.7079927921295166,0.8497135639190674
1733461190725139700,8.8311396484375,-0.18631389737129211,-0.7000515460968018,0.47830748558044434
1733461190735126800,8.841126708984374,-0.07208210229873657,-0.645684540271759,0.14905111491680145
1733461190745129000,8.85112890625,0.036651913076639175,-0.5351179838180542,-0.08796459436416626
1733461190755115800,8.86111572265625,0.13011430203914642,-0.3891211748123169,-0.2125810980796814
1733461190765146400,8.871146484375,0.22418753802776337,-0.22479841113090515,-0.24862214922904968
1733461190775104800,8.881104736328124,0.37140607833862305,0.08491026610136032,-0.22540926933288574
1733461190785135400,8.89113525390625,0.4386012554168701,0.2889392673969269,-0.21502456068992615
1733461190795124500,8.90112451171875,0.46364670991897583,0.4190535545349121,-0.21930062770843506
1733461190805125600,8.911125732421874,0.475253164768219,0.44104471802711487,-0.2321287989616394
1733461190815113500,8.921113525390625,0.4709770977497101,0.36713001132011414,-0.25106561183929443
1733461190825145000,8.93114501953125,0.4502076804637909,0.2272418737411499,-0.2730567753314972
1733461190835102500,8.9411025390625,0.42760565876960754,0.051312681287527084,-0.28649580478668213
1733461190845134000,8.951134033203125,0.39767327904701233,-0.24190263450145721,-0.2638937830924988
1733461190855122000,8.961121826171874,0.3903428912162781,-0.38606682419776917,-0.21013765037059784
1733461190865123300,8.971123291015624,0.39767327904701233,-0.4593706727027893,-0.14416420459747314
1733461190875111000,8.98111083984375,0.4086688458919525,-0.4550946056842804,-0.08735372871160507
1733461190885142500,8.991142578125,0.4184426963329315,-0.3988949954509735,-0.059864792972803116
1733461190895100200,9.00110009765625,0.4202753007411957,-0.33108896017074585,-0.060475658625364304
1733461190905131800,9.0111318359375,0.4105014503002167,-0.27977627515792847,-0.07941248267889023
1733461190915119600,9.02111962890625,0.375071257352829,-0.22296582162380219,-0.11056660860776901
1733461190925151500,9.0311513671875,0.3286454975605011,-0.18814650177955627,-0.11178833991289139
1733461190935108400,9.0411083984375,0.2718350291252136,-0.1618792861700058,-0.08735372871160507
1733461190945140500,9.051140380859374,0.21563543379306793,-0.14905111491680145,-0.0403171069920063
1733461190955128000,9.061128173828125,0.1612684279680252,-0.13805554807186127,0.021380282938480377
1733461190965129500,9.07112939453125,0.09896016865968704,-0.11911872029304504,0.07452555745840073
1733461190975117300,9.081117431640624,0.03848451003432274,-0.09712757170200348,0.09834930300712585
1733461190985148700,9.091148681640625,-0.02076941914856434,-0.08124507963657379,0.08674286305904388
1733461190995106300,9.101106201171875,-0.11850785464048386,-0.04459316283464432,0.00855211354792118
1733461191005138200,9.11113818359375,-0.18325957655906677,-0.01038470957428217,-0.059864792972803116
1733461191015125800,9.121125732421875,-0.23090706765651703,0.03176499158143997,-0.12034045159816742
1733461191025126400,9.13112646484375,-0.2565633952617645,0.05192354694008827,-0.15882496535778046
1733461191035114800,9.14111474609375,-0.27061331272125244,0.03176499158143997,-0.18325957655906677
1733461191045176000,9.151176025390624,-0.2626720666885376,0.003054326167330146,-0.19608774781227112
1733461191055103700,9.161103759765625,-0.23579397797584534,-0.007941247895359993,-0.18875735998153687
1733461191065135000,9.171135009765624,-0.15760323405265808,0.02871066704392433,-0.17348572611808777
1733461191075123200,9.181123291015625,-0.09712757170200348,0.07208210229873657,-0.16737708449363708
1733461191085123800,9.191123779296875,-0.048258353024721146,0.11484266817569733,-0.1569923609495163
1733461191095112400,9.201112548828124,-0.028099801391363144,0.12767083942890167,-0.13255776464939117
1733461191105144000,9.21114404296875,-0.04153883829712868,0.1007927656173706,-0.09040805697441101
1733461191115099400,9.221099365234375,-0.08735372871160507,0.036651913076639175,-0.029932396486401558
1733461191125132000,9.231132080078124,-0.1569923609495163,-0.048258353024721146,0.03726277872920036
1733461191135120000,9.241119873046875,-0.242513507604599,-0.14294247329235077,0.1459967941045761
1733461191145120500,9.25112060546875,-0.3219259977340698,-0.27550023794174194,0.21563543379306793
1733461191155108900,9.26110888671875,-0.2981022298336029,-0.3384193480014801,0.26450464129447937
1733461191165139700,9.2711396484375,-0.2168571650981903,-0.3500257730484009,0.2736676335334778
1733461191175128300,9.28112841796875,-0.11728613078594208,-0.3121521472930908,0.252287358045578
1733461191185128700,9.291128662109376,-0.03237585723400116,-0.24495697021484375,0.2168571650981903
1733461191195117300,9.301117431640625,0.01710422709584236,-0.15577064454555511,0.18020524084568024
1733461191205149000,9.31114892578125,0.0403171069920063,-0.03787364438176155,0.1514945775270462
1733461191215107300,9.321107421875,0.02871066704392433,0.19608774781227112,0.1319468915462494
1733461191225139000,9.331138916015625,-0.01160643994808197,0.32498031854629517,0.13500121235847473
1733461191235126800,9.341126708984374,-0.07024950534105301,0.3549126982688904,0.1722639948129654
1733461191245128000,9.3511279296875,-0.13500121235847473,0.27488934993743896,0.24862214922904968
1733461191255115800,9.36111572265625,-0.19364428520202637,0.09224065393209457,0.3488040566444397
1733461191265147400,9.3711474609375,-0.24434609711170197,-0.18020524084568024,0.44654250144958496
1733461191275105000,9.38110498046875,-0.28588494658470154,-0.4813618063926697,0.5271766781806946
1733461191285136400,9.391136474609375,-0.29016098380088806,-0.8539896011352539,0.5900958180427551
1733461191295124500,9.40112451171875,-0.2620611786842346,-0.979827880859375,0.6065891981124878
1733461191305124400,9.411124267578124,-0.19853121042251587,-0.9853256344795227,0.6096435189247131
1733461191315113500,9.421113525390625,-0.10201449692249298,-0.8869763612747192,0.5968153476715088
1733461191325143800,9.431143798828124,0.015882495790719986,-0.7238753437995911,0.5662720799446106
1733461191335102500,9.4411025390625,0.14477506279945374,-0.5076290369033813,0.5100724697113037
1733461191345133300,9.45113330078125,0.25045475363731384,-0.2577851414680481,0.4190535545349121
1733461191355122000,9.461121826171874,0.2981022298336029,-0.00366519158706069,0.2840523421764374
1733461191365122000,9.4711220703125,0.2021963894367218,0.3139847218990326,-0.01160643994808197
1733461191375111000,9.48111083984375,0.05742133408784866,0.4001167416572571,-0.22663100063800812
1733461191385142500,9.491142578125,-0.08124507963657379,0.37262779474258423,-0.4147774875164032
1733461191395100000,9.501099853515624,-0.20952677726745605,0.2938261926174164,-0.5497786998748779
1733461191405131500,9.511131591796875,-0.29077184200286865,0.21380282938480377,-0.6261368989944458
1733461191415119600,9.52111962890625,-0.3066543638706207,0.1765400618314743,-0.637132465839386
1733461191425150000,9.53114990234375,-0.25961771607398987,0.2015855312347412,-0.5907067060470581
1733461191435108400,9.5411083984375,-0.1258382350206375,0.2718350291252136,-0.4129449129104614
1733461191445139500,9.551139404296874,-0.02015855349600315,0.28588494658470154,-0.2541199326515198
1733461191455128000,9.561128173828125,0.07269296050071716,0.2632829248905182,-0.09346238523721695
1733461191465128400,9.57112841796875,0.1362229436635971,0.23090706765651703,0.018936822190880775
1733461191475117000,9.581116943359374,0.16982053220272064,0.2217440903186798,0.059864792972803116
1733461191485148200,9.591148193359375,0.192422553896904,0.2382374405860901,0.03176499158143997
1733461191495106000,9.60110595703125,0.21868975460529327,0.25106561183929443,-0.02932153269648552
1733461191505137000,9.611136962890624,0.2718350291252136,0.21807889640331268,-0.10567969083786011
1733461191515125500,9.62112548828125,0.323147714138031,0.1563815027475357,-0.1111774742603302
1733461191525126000,9.6311259765625,0.37690386176109314,0.0757472887635231,-0.0806342139840126
1733461191535114500,9.641114501953124,0.4202753007411957,-0.006719517521560192,-0.02382374368607998
1733461191545146400,9.651146484375,0.4508185386657715,-0.09834930300712585,0.031154127791523933
1733461191555103500,9.661103515625,0.475253164768219,-0.1618792861700058,0.060475658625364304
1733461191565134600,9.671134521484374,0.48808133602142334,-0.19364428520202637,0.05742133408784866
1733461191575123200,9.681123291015625,0.49296826124191284,-0.2119702398777008,-0.0012217304902151227
1733461191585123800,9.691123779296875,0.48747047781944275,-0.17409659922122955,-0.16493362188339233
1733461191595112200,9.7011123046875,0.4746423065662384,-0.05864306539297104,-0.28527405858039856
1733461191605143800,9.711143798828125,0.4489859640598297,0.1313360333442688,-0.37629300355911255
1733461191615101200,9.72110107421875,0.4105014503002167,0.294437050819397,-0.40744712948799133
1733461191625133000,9.731133056640624,0.36224308609962463,0.3689626157283783,-0.3744603991508484
1733461191635120600,9.74112060546875,0.2974913716316223,0.3695734739303589,-0.28649580478668213
1733461191645121800,9.751121826171875,0.22357667982578278,0.3188716471195221,-0.18081611394882202
1733461191655109600,9.761109619140624,0.10201449692249298,0.22418753802776337,-0.05864306539297104
1733461191665140700,9.771140625,0.04581489413976669,0.15393804013729095,-0.021991148591041565
1733461191675129300,9.78112939453125,0.0012217304902151227,0.08368854224681854,-0.013439035043120384
1733461191685129700,9.791129638671874,-0.028099801391363144,0.01160643994808197,-0.01771509274840355
1733461191695118000,9.8011181640625,-0.04581489413976669,-0.05864306539297104,-0.01710422709584236
1733461191705149700,9.811149658203124,-0.05742133408784866,-0.11667526513338089,-0.014049900695681572
1733461191715107300,9.821107421875,-0.05619960278272629,-0.14294247329235077,-0.018325956538319588
1733461191725138200,9.83113818359375,-0.02076941914856434,-0.11239920556545258,-0.039706241339445114
1733461191735126800,9.841126708984374,0.01466076634824276,-0.08002334833145142,-0.06414084881544113
1733461191745127400,9.85112744140625,0.05742133408784866,-0.060475658625364304,-0.09224065393209457
1733461191755115800,9.86111572265625,0.09957103431224823,-0.05192354694008827,-0.12828169763088226
1733461191765147000,9.87114697265625,0.12034045159816742,-0.02626720629632473,-0.16737708449363708
1733461191775104800,9.881104736328124,0.12339477986097336,-0.0006108652451075613,-0.20341812074184418
1733461191785136400,9.891136474609375,0.09834930300712585,0.031154127791523933,-0.23151792585849762
1733461191795124500,9.90112451171875,0.0507018156349659,0.05497787147760391,-0.24678955972194672
1733461191805125400,9.91112548828125,-0.04642575979232788,0.08185594528913498,-0.25045475363731384
1733461191815113500,9.921113525390625,-0.12767083942890167,0.1215621829032898,-0.23884831368923187
1733461191825145000,9.93114501953125,-0.2278527319431305,0.15515977144241333,-0.22113321721553802
1733461191835102200,9.941102294921874,-0.33597588539123535,0.1966986060142517,-0.18875735998153687
1733461191845134000,9.951134033203125,-0.43188172578811646,0.21013765037059784,-0.14233160018920898
1733461191855122000,9.961121826171874,-0.5100724697113037,0.18387043476104736,-0.08735372871160507
1733461191865123000,9.971123046875,-0.5632177591323853,0.1569923609495163,-0.031154127791523933
1733461191875111000,9.98111083984375,-0.5461135506629944,0.12278391420841217,0.019547687843441963
1733461191885142500,9.991142578125,-0.48380526900291443,0.11545353382825851,0.02932153269648552
1733461191895100200,10.00110009765625,-0.384845107793808,0.11423180252313614,0.039095375686883926
1733461191905131800,10.0111318359375,-0.25045475363731384,0.08979719132184982,0.07024950534105301
1733461191915119600,10.02111962890625,-0.10751228034496307,0.00855211354792118,0.12889257073402405
1733461191925150500,10.031150390625,0.012828170321881771,-0.11239920556545258,0.21074850857257843
1733461191935108400,10.0411083984375,0.10445795953273773,-0.24129177629947662,0.3194825351238251
1733461191945139700,10.0511396484375,0.05192354694008827,-0.4294382631778717,0.504574716091156
1733461191955128000,10.061128173828125,-0.13255776464939117,-0.5002986192703247,0.5974262356758118
1733461191965130200,10.071130126953125,-0.3897320330142975,-0.4801400899887085,0.6236934065818787
1733461191975117300,10.081117431640624,-0.6548475623130798,-0.2968805134296417,0.5467243790626526
1733461191985148400,10.0911484375,-0.8778133392333984,-0.006108652334660292,0.35063666105270386
1733461191995106300,10.101106201171875,-0.99876469373703,0.2217440903186798,0.11423180252313614
1733461192005139000,10.111138916015625,-1.0030407905578613,0.33658674359321594,-0.09285151958465576
1733461192015125800,10.121125732421875,-0.9511171579360962,0.32681289315223694,-0.23396138846874237
1733461192025128000,10.1311279296875,-0.7965682744979858,0.09407325088977814,-0.28955012559890747
1733461192035114800,10.14111474609375,-0.6383541822433472,-0.12278391420841217,-0.25595253705978394
1733461192045147400,10.1511474609375,-0.455705463886261,-0.35063666105270386,-0.18936823308467865
1733461192055103700,10.161103759765625,-0.2535090744495392,-0.5149593949317932,-0.09773843735456467
1733461192065134000,10.171134033203124,-0.04642575979232788,-0.5497786998748779,0.00366519158706069
1733461192075123200,10.181123291015625,0.13988813757896423,-0.4300491213798523,0.09773843735456467
1733461192085123000,10.191123046875,0.3084869384765625,-0.2223549485206604,0.16004669666290283
1733461192095112200,10.2011123046875,0.5210680365562439,0.08185594528913498,0.17531833052635193
1733461192105143600,10.2111435546875,0.6139195561408997,0.24862214922904968,0.1508837193250656
1733461192115099400,10.221099365234375,0.6585127115249634,0.32681289315223694,0.1062905490398407
1733461192125132000,10.231132080078124,0.66584312915802,0.28955012559890747,0.05864306539297104
1733461192135120000,10.241119873046875,0.6646214127540588,0.16432274878025055,0.013439035043120384
1733461192145121000,10.25112109375,0.6444628238677979,0.015271631069481373,-0.013439035043120384
1733461192155108900,10.26110888671875,0.6102544069290161,-0.09285151958465576,0
1733461192165140500,10.271140380859375,0.5479460954666138,-0.1563815027475357,0.10384709388017654
1733461192175128300,10.28112841796875,0.49357911944389343,-0.16065755486488342,0.19975294172763824
1733461192185129700,10.291129638671874,0.423329621553421,-0.16982053220272064,0.28527405858039856
1733461192195117300,10.301117431640625,0.34513887763023376,-0.21563543379306793,0.3323107063770294
1733461192205149200,10.311149169921874,0.25106561183929443,-0.2926044464111328,0.3378084897994995
1733461192215107300,10.321107421875,0.17104226350784302,-0.3781255781650543,0.3072652220726013
1733461192225139000,10.331138916015625,0.11789698898792267,-0.4386012554168701,0.25473082065582275
1733461192235126800,10.341126708984374,0.08246681094169617,-0.4544837474822998,0.19792033731937408
1733461192245128000,10.3511279296875,0.04764748737215996,-0.4056145250797272,0.12095131725072861
1733461192255115800,10.36111572265625,0.028099801391363144,-0.3292563557624817,0.08002334833145142
1733461192265147400,10.3711474609375,-0.004886921960860491,-0.22296582162380219,0.05497787147760391
1733461192275104800,10.381104736328124,-0.05375614017248154,-0.10018189996480942,0.04642575979232788
1733461192285136400,10.391136474609375,-0.11484266817569733,0.01771509274840355,0.04642575979232788
1733461192295124500,10.40112451171875,-0.18020524084568024,0.12461651116609573,0.04703662544488907
1733461192305125600,10.411125732421874,-0.2321287989616394,0.19547687470912933,0.04459316283464432
1733461192315113500,10.421113525390625,-0.2571742534637451,0.20891591906547546,0.0403171069920063
1733461192325145300,10.431145263671874,-0.26511552929878235,0.19364428520202637,0.039706241339445114
1733461192335102200,10.441102294921874,-0.26022860407829285,0.15943582355976105,0.042760565876960754
1733461192345133600,10.451133544921875,-0.23090706765651703,0.0910189226269722,0.05192354694008827
1733461192355122000,10.461121826171874,-0.19425514340400696,-0.0012217304902151227,0.06352998316287994
1733461192365121800,10.471121826171874,-0.15454891324043274,-0.09651670604944229,0.07147123664617538
1733461192375111000,10.48111083984375,-0.11728613078594208,-0.16859880089759827,0.07024950534105301
1733461192385142000,10.49114208984375,-0.07147123664617538,-0.20097467303276062,0.04398229718208313
1733461192395100200,10.50110009765625,-0.0403171069920063,-0.17104226350784302,0.0012217304902151227
1733461192405131000,10.511131103515625,-0.014049900695681572,-0.12034045159816742,-0.05009094998240471
1733461192415119400,10.521119384765624,0.00733038317412138,-0.07941248267889023,-0.08979719132184982
1733461192425150500,10.531150390625,0.022602014243602753,-0.04214970022439957,-0.1014036312699318
1733461192435108400,10.5411083984375,0.01771509274840355,-0.04092797264456749,-0.0659734457731247
1733461192445139500,10.551139404296874,-0.001832595793530345,-0.08002334833145142,0.015271631069481373
1733461192455128000,10.561128173828125,-0.04153883829712868,-0.14416420459747314,0.11911872029304504
1733461192465128700,10.571128662109375,-0.10384709388017654,-0.2583959996700287,0.2736676335334778
1733461192475117000,10.581116943359374,-0.13316862285137177,-0.3127630054950714,0.3549126982688904
1733461192485148200,10.591148193359375,-0.15821409225463867,-0.3543018400669098,0.4190535545349121
1733461192495106000,10.60110595703125,-0.14049901068210602,-0.43188172578811646,0.4703662395477295
1733461192505137400,10.611137451171874,-0.06169738993048668,-0.5528330206871033,0.5253441333770752
1733461192515125500,10.62112548828125,0.06230825558304787,-0.7092145681381226,0.5681046843528748
1733461192525125400,10.63112548828125,0.16798794269561768,-0.817337691783905,0.6047565937042236
1733461192535114500,10.641114501953124,0.16310101747512817,-0.6682865619659424,0.6798930168151855
1733461192545147100,10.651147216796875,-0.02321287989616394,-0.34513887763023376,0.7910705208778381
1733461192555103500,10.661103515625,-0.3481931984424591,0.05192354694008827,0.9639453291893005
1733461192565136100,10.67113623046875,-0.7489207983016968,0.3445279896259308,1.1759155988693237
1733461192575123200,10.681123291015625,-1.1362093687057495,0.2174680233001709,1.3310753107070923
1733461192585123000,10.691123046875,-1.4202617406845093,-0.2840523421764374,1.338405728340149
1733461192595112200,10.7011123046875,-1.578475832939148,-0.9926560521125793,1.1172724962234497
1733461192605142800,10.711142822265625,-1.5143349170684814,-1.7941112518310547,0.3176499307155609
1733461192615101000,10.721100830078125,-1.1789699792861938,-1.7825047969818115,-0.4251621961593628
1733461192625133600,10.731133544921875,-0.6542366743087769,-1.1655309200286865,-1.2009611129760742
1733461192635120600,10.74112060546875,-0.06475171446800232,-0.06719517707824707,-1.8698585033416748
1733461192645121800,10.751121826171875,0.40744712948799133,1.0531316995620728,-2.299907684326172
1733461192655110000,10.76110986328125,0.7110471725463867,1.8307631015777588,-2.456289052963257
1733461192665140700,10.771140625,0.8631525635719299,2.2547035217285156,-2.3799309730529785
1733461192675129300,10.78112939453125,0.8546004891395569,2.362215995788574,-2.1343631744384766
1733461192685129000,10.79112890625,0.44104471802711487,2.034792184829712,-1.5399912595748901
1733461192695118000,10.8011181640625,-0.019547687843441963,1.5173892974853516,-1.0323622226715088
1733461192705148700,10.811148681640624,-0.5797111392021179,0.8240572214126587,-0.4648684561252594
1733461192715107300,10.821107421875,-1.1582005023956299,0.0024434609804302454,0.059864792972803116
1733461192725138200,10.83113818359375,-1.6120734214782715,-0.7281513810157776,0.4453207552433014
1733461192735126800,10.841126708984374,-1.935831904411316,-1.197295904159546,0.6414085030555725
1733461192745128200,10.851128173828124,-2.102598190307617,-1.4868459701538086,0.6798930168151855
1733461192755115800,10.86111572265625,-2.0341813564300537,-1.7928894758224487,0.6359107494354248
1733461192765146400,10.871146484375,-1.8668042421340942,-1.8558086156845093,0.6340781450271606
1733461192775105000,10.88110498046875,-1.6768250465393066,-1.7763961553573608,0.6817256212234497
1733461192785136400,10.891136474609375,-1.4960089921951294,-1.587027907371521,0.7629706859588623
1733461192795124500,10.90112451171875,-1.3200798034667969,-1.2901474237442017,0.8509352803230286
1733461192805125000,10.911125,-1.1386528015136719,-0.8881980776786804,0.9169087409973145
1733461192815113500,10.921113525390625,-0.9511171579360962,-0.3830125033855438,0.9511171579360962
1733461192825145000,10.93114501953125,-0.7055493593215942,0.4954117238521576,0.93095862865448
1733461192835102500,10.9411025390625,-0.5681046843528748,0.9382890462875366,0.8814785480499268
1733461192845133000,10.951133056640625,-0.4141666293144226,1.120937705039978,0.7922922372817993
1733461192855122000,10.961121826171874,-0.27122417092323303,1.1246029138565063,0.6603453159332275
1733461192865121800,10.971121826171874,-0.16249015927314758,1.0592403411865234,0.4954117238521576
1733461192875111000,10.98111083984375,-0.07269296050071716,0.9523389339447021,0.33597588539123535
1733461192885142500,10.991142578125,0,0.7922922372817993,0.22907446324825287
1733461192895100200,11.00110009765625,0.039095375686883926,0.6420193910598755,0.1459967941045761
1733461192905131500,11.011131591796875,0.00733038317412138,0.4807509481906891,0.02932153269648552
1733461192915119600,11.02111962890625,-0.054367005825042725,0.4056145250797272,-0.021991148591041565
1733461192925151200,11.031151123046875,-0.11789698898792267,0.36529740691185,-0.01710422709584236
1733461192935108400,11.0411083984375,-0.16554448008537292,0.3396410644054413,0.045204028487205505
1733461192945140200,11.05114013671875,-0.16920967400074005,0.3683517575263977,0.14416420459747314
1733461192955128000,11.061128173828125,-0.1270599663257599,0.4905247986316681,0.24556782841682434
1733461192965128000,11.0711279296875,-0.05497787147760391,0.7134906053543091,0.31642818450927734
1733461192975117300,11.081117431640624,0.07330382615327835,1.0873401165008545,0.34208452701568604
1733461192985147400,11.0911474609375,0.16310101747512817,1.246165156364441,0.30054569244384766
1733461192995106300,11.101106201171875,0.23884831368923187,1.264491081237793,0.22540926933288574
1733461193005136600,11.11113671875,0.2840523421764374,1.1178834438323975,0.13744467496871948
1733461193015125800,11.121125732421875,0.2840523421764374,0.8228355050086975,0.06780604273080826
1733461193025126700,11.131126708984375,0.21563543379306793,0.4098905920982361,0.036041051149368286
1733461193035114500,11.141114501953124,0.08368854224681854,-0.06414084881544113,0.027488935738801956
1733461193045173200,11.15117333984375,-0.12095131725072861,-0.6921103000640869,0.03848451003432274
1733461193055103700,11.161103759765625,-0.18387043476104736,-0.9450085163116455,0.0507018156349659
1733461193065134000,11.171134033203124,-0.18020524084568024,-0.978606104850769,0.060475658625364304
1733461193075123200,11.181123291015625,-0.14538592100143433,-0.7935139536857605,0.06414084881544113
1733461193085123000,11.191123046875,-0.09651670604944229,-0.5027421116828918,0.07819075137376785
1733461193095112400,11.201112548828124,-0.03420845419168472,-0.2431243658065796,0.12339477986097336
1733461193105142800,11.211142822265625,0.03237585723400116,-0.07941248267889023,0.19425514340400696
1733461193115099600,11.221099609375,0.08979719132184982,-0.012217304669320583,0.2632829248905182
1733461193125130500,11.231130615234376,0.1612684279680252,-0.08002334833145142,0.32986724376678467
1733461193135120000,11.241119873046875,0.22907446324825287,-0.18570303916931152,0.33597588539123535
1733461193145121000,11.25112109375,0.2840523421764374,-0.26939156651496887,0.303600013256073
1733461193155108900,11.26110888671875,0.3121521472930908,-0.3084869384765625,0.25473082065582275
1733461193165140500,11.271140380859375,0.313373863697052,-0.3378084897994995,0.20402899384498596
1733461193175128300,11.28112841796875,0.2938261926174164,-0.3927863538265228,0.16249015927314758
1733461193185129500,11.29112939453125,0.2675589919090271,-0.4746423065662384,0.11850785464048386
1733461193195117300,11.301117431640625,0.23945917189121246,-0.6010913848876953,0.033597588539123535
1733461193205149000,11.31114892578125,0.22663100063800812,-0.656069278717041,-0.027488935738801956
1733461193215107300,11.321107421875,0.21624629199504852,-0.6725626587867737,-0.07941248267889023
1733461193225138200,11.33113818359375,0.20341812074184418,-0.6218608021736145,-0.10445795953273773
1733461193235126800,11.341126708984374,0.19364428520202637,-0.5143485069274902,-0.1007927656173706
1733461193245127400,11.35112744140625,0.1875356286764145,-0.3701843321323395,-0.07391469180583954
1733461193255115800,11.36111572265625,0.17959438264369965,-0.2064724564552307,-0.045204028487205505
1733461193265147100,11.371147216796874,0.1716531366109848,0.025656340643763542,-0.02382374368607998
1733461193275104800,11.381104736328124,0.16493362188339233,0.12828169763088226,-0.02687807008624077
1733461193285136100,11.39113623046875,0.16982053220272064,0.1771509200334549,-0.04337143152952194
1733461193295124500,11.40112451171875,0.18020524084568024,0.19914206862449646,-0.059864792972803116
1733461193305125600,11.411125732421874,0.17776179313659668,0.1918116807937622,-0.07147123664617538
1733461193315113200,11.42111328125,0.16982053220272064,0.13316862285137177,-0.06414084881544113
1733461193325145000,11.43114501953125,0.15332718193531036,0.02382374368607998,-0.048258353024721146
1733461193335102500,11.4411025390625,0.1417207419872284,-0.08246681094169617,-0.03420845419168472
1733461193345134000,11.451134033203125,0.12889257073402405,-0.19058994948863983,-0.02871066704392433
1733461193355122000,11.461121826171874,0.11545353382825851,-0.2028072625398636,-0.04398229718208313
1733461193365122800,11.471122802734374,0.12767083942890167,-0.17837265133857727,-0.06475171446800232
1733461193375111000,11.48111083984375,0.14294247329235077,-0.11545353382825851,-0.08552113175392151
1733461193385142800,11.491142822265624,0.16004669666290283,-0.05253441259264946,-0.10323622822761536
1733461193395100000,11.501099853515624,0.18081611394882202,0.00733038317412138,-0.11728613078594208
1733461193405131800,11.5111318359375,0.1918116807937622,0.06658431142568588,-0.13500121235847473
1733461193415119600,11.52111962890625,0.18570303916931152,0.14049901068210602,-0.15332718193531036
1733461193425151200,11.531151123046875,0.16310101747512817,0.16065755486488342,-0.14966198801994324
1733461193435108600,11.541108642578125,0.13011430203914642,0.1569923609495163,-0.12828169763088226
1733461193445140000,11.551139892578124,0.07452555745840073,0.11484266817569733,-0.0861319974064827
1733461193455128000,11.561128173828125,0.001832595793530345,0.02076941914856434,-0.02382374368607998
1733461193465129000,11.57112890625,-0.06291911751031876,-0.10323622822761536,0.05192354694008827
1733461193475117000,11.581116943359374,-0.10262536257505417,-0.2015855312347412,0.11667526513338089
1733461193485148200,11.591148193359375,-0.12828169763088226,-0.26511552929878235,0.16554448008537292
1733461193495106000,11.60110595703125,-0.11484266817569733,-0.2816088795661926,0.1771509200334549
1733461193505137400,11.611137451171874,-0.0910189226269722,-0.2773328125476837,0.1771509200334549
1733461193515125500,11.62112548828125,-0.0403171069920063,-0.2736676335334778,0.16737708449363708
1733461193525126100,11.631126220703125,0.015271631069481373,-0.2565633952617645,0.14416420459747314
1733461193535114500,11.641114501953124,0.06230825558304787,-0.20463985204696655,0.10690141469240189
1733461193545145600,11.6511455078125,0.10445795953273773,-0.1417207419872284,0.06230825558304787
1733461193555103500,11.661103515625,0.13011430203914642,-0.08918632566928864,0.015271631069481373
1733461193565135400,11.67113525390625,0.11850785464048386,-0.07880161702632904,-0.03481931984424591
1733461193575123200,11.681123291015625,0.10262536257505417,-0.1459967941045761,-0.04337143152952194
1733461193585124400,11.691124267578125,0.07452555745840073,-0.22846360504627228,-0.033597588539123535
1733461193595112000,11.70111181640625,0.04886921867728233,-0.2816088795661926,-0.029932396486401558
1733461193605143800,11.711143798828125,0.02076941914856434,-0.29077184200286865,-0.0354301854968071
1733461193615101200,11.72110107421875,-0.00427605677396059,-0.26939156651496887,-0.04642575979232788
1733461193625132800,11.7311328125,-0.012828170321881771,-0.23335053026676178,-0.0708603709936142
1733461193635120600,11.74112060546875,0.00427605677396059,-0.15393804013729095,-0.13744467496871948
1733461193645121800,11.751121826171875,0.005497787147760391,-0.07819075137376785,-0.17837265133857727
1733461193655109600,11.761109619140624,-0.02015855349600315,-0.029932396486401558,-0.19120082259178162
1733461193665141200,11.771141357421875,-0.05192354694008827,-0.05803219974040985,-0.1667662113904953
1733461193675129300,11.78112939453125,-0.06719517707824707,-0.11545353382825851,-0.12217304855585098
1733461193685130000,11.7911298828125,-0.05742133408784866,-0.15271630883216858,-0.08918632566928864
1733461193695118300,11.801118408203125,-0.039095375686883926,-0.15577064454555511,-0.09773843735456467
1733461193705149200,11.811149169921874,0.036041051149368286,-0.10506882518529892,-0.15027284622192383
1733461193715107300,11.821107421875,0.08918632566928864,-0.06414084881544113,-0.17348572611808777
1733461193725138200,11.83113818359375,0.13255776464939117,-0.02871066704392433,-0.1667662113904953
1733461193735126800,11.841126708984374,0.1466076523065567,0.007941247895359993,-0.1319468915462494
1733461193745128000,11.8511279296875,0.14538592100143433,0.05864306539297104,-0.07330382615327835
1733461193755115800,11.86111572265625,0.13377949595451355,0.11362093687057495,-0.004886921960860491
1733461193765147400,11.8711474609375,0.12278391420841217,0.11911872029304504,0.05925392732024193
1733461193775104800,11.881104736328124,0.11911872029304504,0.07941248267889023,0.1007927656173706
1733461193785136600,11.89113671875,0.09040805697441101,-0.004886921960860491,0.11911872029304504
1733461193795124500,11.90112451171875,0.06536258012056351,-0.06841690838336945,0.10995574295520782
1733461193805125400,11.91112548828125,0.048258353024721146,-0.13011430203914642,0.08552113175392151
1733461193815113500,11.921113525390625,0.031154127791523933,-0.17104226350784302,0.04337143152952194
1733461193825144300,11.931144287109374,0.03298672288656235,-0.19425514340400696,0.0006108652451075613
1733461193835102200,11.941102294921874,0.04459316283464432,-0.19975294172763824,-0.030543262138962746
1733461193845133300,11.95113330078125,0.06108652427792549,-0.1661553531885147,-0.04886921867728233
1733461193855122000,11.961121826171874,0.06169738993048668,-0.05009094998240471,-0.05314527451992035
1733461193865123000,11.971123046875,0.05864306539297104,0.0354301854968071,-0.04153883829712868
1733461193875111200,11.981111083984375,0.04764748737215996,0.10262536257505417,-0.01710422709584236
1733461193885142500,11.991142578125,0.02382374368607998,0.1111774742603302,0.006719517521560192
1733461193895100200,12.00110009765625,-0.025045474991202354,-0.007941247895359993,0.04581489413976669
1733461193905131500,12.011131591796875,-0.045204028487205505,-0.28527405858039856,0.19975294172763824
1733461193915119600,12.02111962890625,-0.04153883829712868,-0.2822197377681732,0.22418753802776337
1733461193925150200,12.031150146484375,-0.05742133408784866,-0.045204028487205505,0.16920967400074005
1733461193935108400,12.0411083984375,-0.033597588539123535,0.10995574295520782,0.11484266817569733
1733461193945139500,12.051139404296874,0.022602014243602753,0.19425514340400696,0.06475171446800232
1733461193955128000,12.061128173828125,0.05253441259264946,0.2223549485206604,0.006108652334660292
1733461193965128700,12.071128662109375,0.07513642311096191,0.17592918872833252,-0.04337143152952194
1733461193975117300,12.081117431640624,0.09468411654233932,0.10018189996480942,-0.09468411654233932
1733461193985149000,12.09114892578125,0.08429940044879913,0.021991148591041565,-0.13377949595451355
1733461193995106300,12.101106201171875,0.060475658625364304,-0.06352998316287994,-0.15515977144241333
1733461194005138000,12.111137939453124,0.03420845419168472,-0.1514945775270462,-0.17043140530586243
1733461194015125800,12.121125732421875,0.02687807008624077,-0.17348572611808777,-0.1716531366109848
1733461194025127000,12.131126953125,0.031154127791523933,-0.19425514340400696,-0.1319468915462494
1733461194035114500,12.141114501953124,0.04153883829712868,-0.2070833146572113,-0.04886921867728233
1733461194045146600,12.151146728515625,0.06414084881544113,-0.18448130786418915,0.04703662544488907
1733461194055103700,12.161103759765625,0.08124507963657379,-0.11911872029304504,0.09162978827953339
