time,seconds_elapsed,z,y,x
1733461182384977200,0.49097705078125,9.519346237182617,1.2737152576446533,-0.07182604819536209
1733461182394956300,0.500956298828125,9.464279174804688,1.1994950771331787,0.016759412363171577
1733461182404966000,0.5109658203125,9.442731857299805,1.1563993692398071,0
1733461182414975700,0.520975830078125,9.425971984863281,1.158793568611145,-0.014365210197865963
1733461182424985600,0.530985595703125,9.557653427124023,1.1348515748977661,-0.07422025501728058
1733461182434964700,0.54096484375,9.684545516967773,1.091755986213684,-0.1364694982767105
1733461182444974600,0.550974609375,9.854534149169922,1.091755986213684,-0.17238251864910126
1733461182454984400,0.560984375,9.971850395202637,1.072602391242981,-0.21787235140800476
1733461182464963600,0.570963623046875,10.053253173828125,1.048660397529602,-0.2082955539226532
1733461182474973400,0.580973388671875,10.077195167541504,0.9696516990661621,-0.12689268589019775
1733461182484983000,0.590983154296875,10.034099578857422,0.9528923034667969,-0.10534487664699554
1733461182494962200,0.600962158203125,10.014945983886719,0.9026140570640564,-0.08379705995321274
1733461182504972000,0.610971923828125,9.99100399017334,0.8906430602073669,-0.08858546614646912
1733461182514982000,0.62098193359375,10.012551307678223,0.9313444495201111,-0.1388636976480484
1733461182524961000,0.6309609375,10.053253173828125,0.9624691009521484,-0.19871874153614044
1733461182534971000,0.640970947265625,10.132261276245117,0.9816226959228516,-0.23942017555236816
1733461182544980700,0.650980712890625,10.144232749938965,1.0199298858642578,-0.3447650372982025
1733461182554960000,0.6609599609375,10.06043529510498,1.1037269830703735,-0.5506663918495178
1733461182564969700,0.6709697265625,9.99339771270752,1.2449848651885986,-0.5650315880775452
1733461182574979600,0.6809794921875,9.9000244140625,1.3000515699386597,-0.6177040338516235
1733461182584958500,0.69095849609375,9.758766174316406,1.3407529592514038,-0.6153098344802856
1733461182594968300,0.70096826171875,9.586383819580078,1.4389152526855469,-0.6129156351089478
1733461182604978200,0.710978271484375,9.421183586120605,1.4987702369689941,-0.6727706789970398
1733461182614957600,0.72095751953125,9.239224433898926,1.4628572463989258,-0.6871358752250671
1733461182624967200,0.73096728515625,9.169792175292969,1.41257905960083,-0.6129156351089478
1733461182634977000,0.74097705078125,9.210494041442871,1.314416766166687,-0.5530605912208557
1733461182644956400,0.750956298828125,9.363722801208496,1.2042834758758545,-0.395043283700943
1733461182654966000,0.760966064453125,9.512163162231445,1.0845733880996704,-0.22744916379451752
1733461182664976000,0.770975830078125,9.617507934570312,0.9888052940368652,-0.14604631066322327
1733461182674985500,0.7809853515625,9.684545516967773,0.9840168952941895,-0.1388636976480484
1733461182684964600,0.790964599609375,9.701305389404297,0.9983820915222168,-0.11013327538967133
1733461182694974500,0.800974365234375,9.68933391571045,1.0055646896362305,-0.09576806426048279
1733461182704984300,0.810984375,9.715670585632324,1.0749965906143188,-0.1412578970193863
1733461182714963500,0.82096337890625,9.744400978088379,1.0893617868423462,-0.11252748221158981
1733461182724973300,0.830973388671875,9.823410034179688,1.0965443849563599,-0.1412578970193863
1733461182734983200,0.840983154296875,9.952696800231934,1.1061211824417114,-0.15083470940589905
1733461182744962300,0.85096240234375,10.08198356628418,1.1348515748977661,-0.1843535304069519
1733461182754972200,0.86097216796875,10.237606048583984,1.1061211824417114,-0.21308395266532898
1733461182764982000,0.87098193359375,10.371682167053223,1.0845733880996704,-0.16998831927776337
1733461182774961200,0.880961181640625,10.429142951965332,1.0127472877502441,-0.10055647045373917
1733461182784970800,0.890970703125,10.390835762023926,0.9720458984375,-0.07422025501728058
1733461182794980600,0.900980712890625,10.216058731079102,0.993593692779541,-0.040701430290937424
1733461182804959700,0.910959716796875,10.067618370056152,1.0582371950149536,-0.09576806426048279
1733461182814969600,0.920969482421875,9.943120002746582,1.1180921792984009,-0.07900865375995636
1733461182824979500,0.9309794921875,9.9000244140625,1.1755530834197998,-0.14365209639072418
1733461182834958600,0.94095849609375,9.823410034179688,1.1875240802764893,-0.2585737705230713
1733461182844968400,0.950968505859375,9.761159896850586,1.1204863786697388,-0.21308395266532898
1733461182854978300,0.960978271484375,9.782708168029785,1.072602391242981,-0.12928688526153564
1733461182864957700,0.970957763671875,9.780313491821289,1.0845733880996704,-0.08619125932455063
1733461182874967300,0.98096728515625,9.725247383117676,1.0797849893569946,-0.22026655077934265
1733461182884977200,0.99097705078125,9.634267807006836,1.0606313943862915,-0.1843535304069519
1733461182894956300,1.000956298828125,9.516951560974121,1.0869675874710083,-0.22026655077934265
1733461182904966000,1.0109658203125,9.344569206237793,1.1013327836990356,-0.17238251864910126
1733461182914975700,1.020975830078125,9.174580574035645,1.1468225717544556,-0.11252748221158981
1733461182924985600,1.030985595703125,9.05247688293457,1.1635819673538208,-0.09576806426048279
1733461182934964700,1.04096484375,9.08838939666748,1.2306196689605713,-0.10295066982507706
1733461182944974600,1.050974609375,9.174580574035645,1.256955862045288,-0.004788403399288654
1733461182954984400,1.060984375,9.313444137573242,1.2066776752471924,0.016759412363171577
1733461182964963600,1.070963623046875,9.423578262329102,1.2497732639312744,-0.0694318488240242
1733461182974973400,1.080973388671875,9.57441234588623,1.338358759880066,-0.22505496442317963
1733461182984983000,1.090983154296875,9.713275909423828,1.3958195447921753,-0.3232172429561615
1733461182994962200,1.100962158203125,9.890447616577148,1.4221558570861816,-0.42616790533065796
1733461183004972000,1.110971923828125,10.101137161254883,1.3910311460494995,-0.507570743560791
1733461183014982000,1.12098193359375,10.266336441040039,1.3455413579940796,-0.4908113479614258
1733461183024961000,1.1309609375,10.307038307189941,1.2689268589019775,-0.5746083855628967
1733461183034971000,1.140970947265625,10.213664054870605,1.2425906658172607,-0.545877993106842
1733461183044980700,1.150980712890625,10.134655952453613,1.2545616626739502,-0.5410895943641663
1733461183054959900,1.1609599609375,10.089165687561035,1.316810965538025,-0.5386953949928284
1733461183064969700,1.1709697265625,10.160991668701172,1.3862427473068237,-0.5578489899635315
1733461183074979600,1.1809794921875,10.201693534851074,1.4484920501708984,-0.5410895943641663
1733461183084958500,1.19095849609375,10.122684478759766,1.534683346748352,-0.6416460275650024
1733461183094968300,1.20096826171875,9.914389610290527,1.5658079385757446,-0.7254431247711182
1733461183104978200,1.210978271484375,9.57201862335205,1.5442601442337036,-0.7254431247711182
1733461183114957600,1.22095751953125,9.327810287475586,1.5107412338256836,-0.7015010714530945
1733461183124967200,1.23096728515625,9.215282440185547,1.4197616577148438,-0.5530605912208557
1733461183134977000,1.24097705078125,9.311050415039062,1.3000515699386597,-0.4213795065879822
1733461183144956400,1.250956298828125,9.59596061706543,1.2425906658172607,-0.40462008118629456
1733461183154966000,1.260966064453125,9.821015357971191,1.2449848651885986,-0.3256114423274994
1733461183164975900,1.270975830078125,9.959878921508789,1.2306196689605713,-0.2753331959247589
1733461183174985500,1.2809853515625,9.895236015319824,1.3024457693099976,-0.363918662071228
1733461183184964600,1.290964599609375,9.746794700622559,1.4245500564575195,-0.38307225704193115
1733461183194974500,1.300974365234375,9.464279174804688,1.501164436340332,-0.43335050344467163
1733461183204984300,1.310984375,9.210494041442871,1.558625340461731,-0.4908113479614258
1733461183214963500,1.32096337890625,9.057265281677246,1.5897499322891235,-0.395043283700943
1733461183224973300,1.330973388671875,9.119514465332031,1.5538369417190552,-0.24660277366638184
1733461183234983200,1.340983154296875,9.330204010009766,1.359906554222107,0.09816227108240128
1733461183244962300,1.35096240234375,9.617507934570312,1.1635819673538208,0.4141969084739685
1733461183254972200,1.36097216796875,9.923966407775879,1.0438719987869263,0.5746083855628967
1733461183264982000,1.37098193359375,10.08198356628418,1.0342950820922852,0.6009446382522583
1733461183274961200,1.380961181640625,10.005369186401367,1.137245774269104,0.395043283700943
1733461183284970800,1.390970703125,9.770736694335938,1.3263877630233765,-0.038307227194309235
1733461183294980600,1.400980712890625,9.512163162231445,1.556231141090393,-0.31842881441116333
1733461183304959700,1.410959716796875,9.320627212524414,1.7118542194366455,-0.524330198764801
1733461183314969600,1.420969482421875,9.263166427612305,1.7190368175506592,-0.47644615173339844
1733461183324979500,1.4309794921875,9.433155059814453,1.6855180263519287,-0.3519476354122162
1733461183334958600,1.44095849609375,9.639056205749512,1.5873557329177856,-0.15801730751991272
1733461183344968400,1.450968505859375,9.895236015319824,1.4460978507995605,0.05506663769483566
1733461183354978300,1.460978271484375,10.046070098876953,1.3551181554794312,0.17956513166427612
1733461183364957700,1.470957763671875,10.08437728881836,1.3000515699386597,0.22505496442317963
1733461183374967300,1.48096728515625,10.010157585144043,1.338358759880066,0.17956513166427612
1733461183384977200,1.49097705078125,9.892841339111328,1.4173674583435059,0.1173158809542656
1733461183394956300,1.500956298828125,9.794678688049316,1.4891934394836426,-0.033518824726343155
1733461183404966000,1.5109658203125,9.761159896850586,1.6328455209732056,-0.05985504388809204
1733461183414975700,1.520975830078125,9.849745750427246,1.6831238269805908,-0.05506663769483566
1733461183424985600,1.530985595703125,9.952696800231934,1.7573440074920654,0.019153613597154617
1733461183434964700,1.54096484375,9.959878921508789,1.7980455160140991,0.11252748221158981
1733461183444974600,1.550974609375,9.806650161743164,1.7621324062347412,0.181959331035614
1733461183454984400,1.560984375,9.550470352172852,1.8555063009262085,0.2753331959247589
1733461183464963600,1.570963623046875,9.287108421325684,1.8124107122421265,0.40462008118629456
1733461183474973400,1.580973388671875,9.057265281677246,1.7262194156646729,0.5291185975074768
1733461183484983000,1.590983154296875,8.978256225585938,1.656787633895874,0.5626373887062073
1733461183494962400,1.60096240234375,8.999804496765137,1.5442601442337036,0.524330198764801
1733461183504972000,1.610971923828125,9.105149269104004,1.455674648284912,0.43095630407333374
1733461183514982000,1.62098193359375,9.241618156433105,1.3527239561080933,0.3926490843296051
1733461183524961000,1.6309609375,9.375694274902344,1.2713210582733154,0.3711012601852417
1733461183534971000,1.640970947265625,9.50498104095459,1.2617442607879639,0.3998316824436188
1733461183544980700,1.650980712890625,9.670180320739746,1.3886369466781616,0.33518823981285095
1733461183554960000,1.6609599609375,9.787496566772461,1.6352397203445435,0.14365209639072418
1733461183564969700,1.6709697265625,9.90241813659668,1.987187385559082,-0.09576806426048279
1733461183574979600,1.6809794921875,9.914389610290527,2.212242364883423,-0.30885201692581177
1733461183584958500,1.69095849609375,9.799467086791992,2.3535003662109375,-0.47405192255973816
1733461183594968300,1.70096826171875,9.528923034667969,2.3582887649536133,-0.5339069962501526
1733461183604978200,1.710978271484375,9.14585018157959,2.2625205516815186,-0.4429273009300232
1733461183614957600,1.72095751953125,8.786720275878906,2.1092917919158936,-0.2944868206977844
1733461183624967200,1.73096728515625,8.614337921142578,1.9057846069335938,-0.12689268589019775
1733461183634977000,1.74097705078125,8.762778282165527,1.7597382068634033,0.08858546614646912
1733461183644956400,1.750956298828125,9.162610054016113,1.742978811264038,0.19393034279346466
1733461183654966000,1.760966064453125,9.646238327026367,1.7501614093780518,0.304063618183136
1733461183664976000,1.770975830078125,9.8784761428833,1.8315643072128296,0.3519476354122162
1733461183674985500,1.7809853515625,9.852140426635742,2.1811177730560303,-0.043095629662275314
1733461183684964600,1.790964599609375,9.768342971801758,2.516305923461914,-0.22744916379451752
1733461183694974500,1.800974365234375,9.591172218322754,2.7988216876983643,-0.5841852426528931
1733461183704984300,1.810984375,9.543288230895996,3.043030261993408,-0.8762778043746948
1733461183714963500,1.82096337890625,9.531316757202148,3.095702886581421,-1.0749965906143188
1733461183724973300,1.830973388671875,9.627084732055664,3.1028854846954346,-1.0821791887283325
1733461183734983200,1.840983154296875,9.684545516967773,2.9544448852539062,-1.070208191871643
1733461183744962300,1.85096240234375,9.742006301879883,2.7748796939849854,-0.912190854549408
1733461183754972200,1.86097216796875,9.80904483795166,2.5450363159179688,-0.6177040338516235
1733461183764982000,1.87098193359375,9.931148529052734,2.2649147510528564,-0.21547815203666687
1733461183774961200,1.880961181640625,9.890447616577148,2.1164743900299072,-0.047884032130241394
1733461183784970800,1.890970703125,9.493009567260742,2.1068975925445557,-0.1149216815829277
1733461183794980600,1.900980712890625,8.99740982055664,2.3080103397369385,-0.36152446269989014
1733461183804959700,1.910959716796875,8.434772491455078,2.6862943172454834,-0.6991068720817566
1733461183814969600,1.920969482421875,8.051700592041016,2.892195701599121,-1.0055646896362305
1733461183824979500,1.9309794921875,8.054094314575195,3.1459810733795166,-1.2737152576446533
1733461183834958600,1.94095849609375,8.226476669311523,3.179499864578247,-1.1659762859344482
1733461183844968400,1.950968505859375,8.554482460021973,3.064578056335449,-1.0031704902648926
1733461183854978300,1.960978271484375,8.80587387084961,2.9233202934265137,-0.7541735172271729
1733461183864957700,1.970957763671875,9.016563415527344,2.82515811920166,-0.6177040338516235
1733461183874967300,1.98096728515625,9.375694274902344,2.8562827110290527,-0.6488286852836609
1733461183884977200,1.99097705078125,9.643844604492188,2.760514497756958,-0.6991068720817566
1733461183894956300,2.000956298828125,10.053253173828125,2.765302896499634,-0.5554547905921936
1733461183904966000,2.0109658203125,10.189722061157227,2.58813214302063,-0.6224924325942993
1733461183914975700,2.020975830078125,10.247182846069336,2.4660277366638184,-0.569819986820221
1733461183924985600,2.030985595703125,10.216058731079102,2.389413356781006,-0.5147533416748047
1733461183934964700,2.04096484375,10.113107681274414,2.1954829692840576,-0.31842881441116333
1733461183944974600,2.050974609375,10.017339706420898,1.9967641830444336,-0.0694318488240242
1733461183954984400,2.060984375,9.971850395202637,1.8507179021835327,0.07900865375995636
1733461183964963600,2.070963623046875,9.95748519897461,1.8076223134994507,0.2561795711517334
1733461183974973400,2.080973388671875,9.832986831665039,1.8171991109848022,0.4668693244457245
1733461183984983000,2.090983154296875,9.751583099365234,2.0254945755004883,0.3208230137825012
1733461183994962200,2.100962158203125,9.864110946655273,2.2912509441375732,0.2561795711517334
1733461184004972000,2.110971923828125,10.0580415725708,2.499546527862549,0.21308395266532898
1733461184014982000,2.12098193359375,10.261548042297363,2.7222073078155518,-0.1628057211637497
1733461184024961000,2.1309609375,10.532093048095703,2.9688100814819336,-0.49799394607543945
1733461184034971000,2.140970947265625,10.747570991516113,3.0406360626220703,-0.7374141216278076
1733461184044980700,2.150980712890625,10.994174003601074,3.004723072052002,-0.7829039692878723
1733461184054959900,2.1609599609375,11.166556358337402,2.896984100341797,-0.5985504388809204
1733461184064969700,2.1709697265625,11.204863548278809,2.7724854946136475,-0.5315127968788147
1733461184074979600,2.1809794921875,11.12106704711914,2.6839001178741455,-0.45010992884635925
1733461184084958500,2.19095849609375,10.96544361114502,2.626439332962036,-0.43095630407333374
1733461184094968300,2.20096826171875,10.812214851379395,2.499546527862549,-0.33039984107017517
1733461184104978200,2.210978271484375,10.793061256408691,2.387019157409668,-0.21787235140800476
1733461184114957600,2.22095751953125,10.953473091125488,2.1068975925445557,0.08379705995321274
1733461184124967200,2.23096728515625,11.27190113067627,1.8962076902389526,0.30885201692581177
1733461184134977000,2.24097705078125,11.602301597595215,1.7812861204147339,0.40940847992897034
1733461184144956400,2.250956298828125,11.647790908813477,1.742978811264038,0.272938996553421
1733461184154966000,2.260966064453125,11.307814598083496,1.7717092037200928,-0.23702596127986908
1733461184164975900,2.270975830078125,10.716446876525879,1.6400281190872192,-0.3902548849582672
1733461184174985500,2.2809853515625,10.120290756225586,1.4724340438842773,-0.35673606395721436
1733461184184964600,2.290964599609375,9.847352027893066,1.0678139925003052,-0.22266076505184174
1733461184194974500,2.300974365234375,10.11550235748291,0.7829039692878723,0.2106897532939911
1733461184204984300,2.310984375,10.845733642578125,0.507570743560791,0.49320554733276367
1733461184214963500,2.32096337890625,11.585541725158691,0.36152446269989014,0.43335050344467163
1733461184224973300,2.330973388671875,12.20803451538086,0.3687070608139038,0.26815059781074524
1733461184234983200,2.340983154296875,12.406753540039062,0.5003881454467773,0.016759412363171577
1733461184244962300,2.35096240234375,12.107478141784668,0.7469909191131592,-0.23702596127986908
1733461184254972200,2.36097216796875,11.350910186767578,1.113303780555725,-0.47884035110473633
1733461184264982000,2.37098193359375,10.137049674987793,1.3982137441635132,-0.4620809257030487
1733461184274961200,2.380961181640625,8.920795440673828,1.5490485429763794,-0.2346317619085312
1733461184284971000,2.390970947265625,7.702147006988525,1.7166426181793213,0.035913024097681046
1733461184294980600,2.400980712890625,6.672640323638916,1.7812861204147339,0.2753331959247589
1733461184304959700,2.410959716796875,6.009446144104004,1.7286136150360107,0.4189853072166443
1733461184314969600,2.420969482421875,5.48272180557251,1.6304513216018677,0.6607996821403503
1733461184324979500,2.4309794921875,5.331887245178223,1.4245500564575195,0.9624691009521484
1733461184334958600,2.44095849609375,5.774814605712891,0.9959878921508789,1.50355863571167
1733461184344968400,2.450968505859375,6.627150535583496,0.5434837937355042,1.7070658206939697
1733461184354978300,2.460978271484375,7.781155586242676,0.05985504388809204,1.8602946996688843
1733461184364957700,2.470957763671875,8.607154846191406,-0.395043283700943,2.0374655723571777
1733461184374967300,2.48096728515625,9.241618156433105,-0.7996633648872375,2.5306711196899414
1733461184384977200,2.49097705078125,9.495404243469238,-0.9864110946655273,3.1675288677215576
1733461184394956300,2.500956298828125,9.524134635925293,-1.0630255937576294,3.5889084339141846
1733461184404966000,2.5109658203125,9.334992408752441,-0.8667010068893433,3.5936968326568604
1733461184414975700,2.520975830078125,9.07641887664795,-0.5386953949928284,3.066972494125366
1733461184424985600,2.530985595703125,8.954314231872559,-0.07182604819536209,2.229001760482788
1733461184434964700,2.54096484375,8.942343711853027,0.395043283700943,1.5921441316604614
1733461184444974600,2.550974609375,9.23443603515625,0.912190854549408,0.871489405632019
1733461184454984400,2.560984375,9.615114212036133,1.2066776752471924,0.36152446269989014
1733461184464963600,2.570963623046875,9.952696800231934,1.4844050407409668,0.031124621629714966
1733461184474973400,2.580973388671875,10.302249908447266,1.7357962131500244,0.004788403399288654
1733461184484983000,2.590983154296875,10.199298858642578,1.8339585065841675,-0.33039984107017517
1733461184494962200,2.600962158203125,9.983820915222168,2.013523578643799,-0.3974374830722809
1733461184504972000,2.610971923828125,9.560047149658203,2.0853497982025146,-0.3423708379268646
1733461184514982000,2.62098193359375,8.959102630615234,2.205059766769409,-0.44771572947502136
1733461184524961000,2.6309609375,8.348581314086914,2.346317768096924,-0.6991068720817566
1733461184534971000,2.640970947265625,8.042123794555664,2.451662540435791,-0.8906430602073669
1733461184544980700,2.650980712890625,8.04691219329834,2.4157495498657227,-0.8858546018600464
1733461184554960000,2.6609599609375,8.379706382751465,2.2457611560821533,-0.6536170840263367
1733461184564969700,2.6709697265625,8.820239067077637,2.0183119773864746,-0.363918662071228
1733461184574979600,2.6809794921875,9.289502143859863,1.824381709098816,-0.19632454216480255
1733461184584958500,2.69095849609375,9.672574996948242,1.6065093278884888,-0.035913024097681046
1733461184594968300,2.70096826171875,9.959878921508789,1.5059528350830078,0.12449848651885986
1733461184604978200,2.710978271484375,10.036493301391602,1.4077905416488647,0.08379705995321274
1733461184614957600,2.72095751953125,9.907206535339355,1.3982137441635132,-0.011971008032560349
1733461184624967200,2.73096728515625,9.564835548400879,1.460463047027588,-0.019153613597154617
1733461184634977000,2.74097705078125,9.29189682006836,1.5179238319396973,0.10055647045373917
1733461184644956400,2.750956298828125,9.071630477905273,1.6950948238372803,0.05746084079146385
1733461184654966000,2.760966064453125,9.14345645904541,1.845929503440857,0.08140286058187485
1733461184664976000,2.770975830078125,9.32302188873291,2.0231003761291504,0.15083470940589905
1733461184674985500,2.7809853515625,9.57441234588623,2.1380221843719482,0.24660277366638184
1733461184684964600,2.790964599609375,9.667786598205566,2.1523873805999756,0.26815059781074524
1733461184694974500,2.800974365234375,9.725247383117676,2.1954829692840576,0.3926490843296051
1733461184704984300,2.810984375,9.765948295593262,2.2409727573394775,0.42377370595932007
1733461184714963500,2.82096337890625,9.835380554199219,2.2625205516815186,0.507570743560791
1733461184724973300,2.830973388671875,9.871294021606445,2.2649147510528564,0.6057330369949341
1733461184734983200,2.840983154296875,9.888052940368652,2.2433669567108154,0.5339069962501526
1733461184744962300,2.85096240234375,9.938331604003906,2.365471363067627,0.2346317619085312
1733461184754972200,2.86097216796875,10.041281700134277,2.343923568725586,0.090979665517807
1733461184764982000,2.87098193359375,10.244789123535156,2.293645143508911,0.12928688526153564
1733461184774961200,2.880961181640625,10.65898609161377,2.1356279850006104,0.43335050344467163
1733461184784971000,2.890970947265625,10.984597206115723,1.843535304069519,0.8858546018600464
1733461184794980600,2.900980712890625,11.152191162109375,1.577778935432434,1.3407529592514038
1733461184804959700,2.910959716796875,11.142614364624023,1.3263877630233765,1.7525556087493896
1733461184814969600,2.920969482421875,11.188104629516602,1.237802267074585,1.7477672100067139
1733461184824979500,2.9309794921875,11.439496040344238,1.2521674633026123,1.580173134803772
1733461184834958600,2.94095849609375,11.930307388305664,1.2282254695892334,1.1875240802764893
1733461184844968400,2.950968505859375,12.433089256286621,1.3455413579940796,0.5650315880775452
1733461184854978300,2.960978271484375,12.773066520690918,1.50355863571167,0.07661445438861847
1733461184864957700,2.970957763671875,12.935872077941895,1.7118542194366455,-0.5363011956214905
1733461184874967300,2.98096728515625,13.00051498413086,1.778891921043396,-1.0606313943862915
1733461184884977200,2.99097705078125,13.012486457824707,1.7094600200653076,-1.6112977266311646
1733461184894956300,3.000956298828125,12.957419395446777,1.5179238319396973,-2.10210919380188
1733461184904966000,3.0109658203125,12.94305419921875,1.2473790645599365,-2.5474305152893066
1733461184914975700,3.020975830078125,13.084312438964844,0.9241618514060974,-2.6168625354766846
1733461184924985600,3.030985595703125,13.532028198242188,0.47884035110473633,-2.1499931812286377
1733461184934964700,3.04096484375,13.960590362548828,-0.019153613597154617,-1.455674648284912
1733461184944974600,3.050974609375,14.140154838562012,-0.5386953949928284,-0.7829039692878723
1733461184954984400,3.060984375,13.563152313232422,-0.8451532125473022,-0.667982280254364
1733461184964963600,3.070963623046875,12.322956085205078,-1.1109095811843872,-0.7541735172271729
1733461184974973400,3.080973388671875,10.60152530670166,-1.1228805780410767,-0.9002198576927185
1733461184984983000,3.090983154296875,8.99740982055664,-1.0821791887283325,-0.9720458984375
1733461184994962200,3.100962158203125,7.424419403076172,-0.9457096457481384,-1.0414776802062988
1733461185004972000,3.110971923828125,6.502651691436768,-0.7350199222564697,-1.1252747774124146
1733461185014982000,3.12098193359375,6.007051944732666,-0.4405331015586853,-1.1563993692398071
1733461185024961000,3.1309609375,5.944802761077881,-0.2082955539226532,-1.2090718746185303
1733461185034971000,3.140970947265625,6.074089527130127,0.07182604819536209,-1.1851298809051514
1733461185044980700,3.150980712890625,6.323086738586426,0.3663128614425659,-1.0630255937576294
1733461185054959900,3.1609599609375,6.801927089691162,0.49559974670410156,-0.6799532771110535
1733461185064969700,3.1709697265625,7.309497833251953,0.5339069962501526,-0.1867477297782898
1733461185074979600,3.1809794921875,7.620744228363037,0.6344634294509888,-0.040701430290937424
1733461185084958500,3.19095849609375,7.800309181213379,0.7158663272857666,-0.014365210197865963
1733461185094968300,3.20096826171875,7.85537576675415,0.8212111592292786,-0.08858546614646912
1733461185104978200,3.210978271484375,8.034940719604492,0.8547300100326538,-0.16998831927776337
1733461185114957600,3.22095751953125,8.236053466796875,0.8355764150619507,-0.10055647045373917
1733461185124967200,3.23096728515625,8.504204750061035,0.8164227604866028,-0.30885201692581177
1733461185134977000,3.24097705078125,8.80587387084961,0.8690952062606812,-0.43335050344467163
1733461185144956400,3.250956298828125,9.014169692993164,1.0103530883789062,-0.6392518281936646
1733461185154966000,3.260966064453125,9.016563415527344,1.0869675874710083,-0.7398083209991455
1733461185164975600,3.2709755859375,8.959102630615234,1.1851298809051514,-0.6751648783683777
1733461185174985500,3.2809853515625,8.889671325683594,1.170764684677124,-0.47884035110473633
1733461185184964600,3.290964599609375,8.686163902282715,1.1875240802764893,-0.272938996553421
1733461185194974500,3.300974365234375,8.4108304977417,1.2641384601593018,-0.13168109953403473
1733461185204984300,3.310984375,8.145073890686035,1.3982137441635132,-0.07422025501728058
1733461185214963500,3.32096337890625,7.891288757324219,1.522712230682373,-0.07182604819536209
1733461185224973300,3.330973388671875,7.7763671875,1.6160861253738403,-0.10773907601833344
1733461185234983200,3.340983154296875,7.826645374298096,1.721431016921997,-0.1843535304069519
1733461185244962300,3.35096240234375,7.9631147384643555,1.7908629179000854,-0.16519992053508759
1733461185254972200,3.36097216796875,7.996633529663086,1.8339585065841675,-0.2537853717803955
1733461185264982000,3.37098193359375,7.972691535949707,1.8291701078414917,-0.33039984107017517
1733461185274961200,3.380961181640625,7.994239330291748,1.742978811264038,-0.3280056416988373
1733461185284971000,3.390970947265625,8.092401504516602,1.5514427423477173,-0.19632454216480255
1733461185294980600,3.400980712890625,8.221688270568848,1.4389152526855469,-0.11971008777618408
1733461185304960000,3.4109599609375,8.432378768920898,1.434126853942871,0.043095629662275314
1733461185314969600,3.420969482421875,8.530540466308594,1.3862427473068237,0.2082955539226532
1733461185324979500,3.4309794921875,8.669404029846191,1.460463047027588,0.2753331959247589
1733461185334958800,3.440958740234375,8.765172004699707,1.647210717201233,0.12928688526153564
1733461185344968400,3.450968505859375,8.769960403442383,1.9321208000183105,-0.2059013396501541
1733461185354978300,3.460978271484375,8.904036521911621,2.248155355453491,-0.545877993106842
1733461185364957700,3.470957763671875,9.20091724395752,2.3271639347076416,-0.933738648891449
1733461185374967300,3.48096728515625,9.75637149810791,2.3319525718688965,-1.05105459690094
1733461185384977200,3.49097705078125,10.445901870727539,1.9488801956176758,-0.9409212470054626
1733461185394956300,3.500956298828125,11.611878395080566,1.5658079385757446,-0.5674257874488831
1733461185404966000,3.5109658203125,12.72757625579834,1.1444283723831177,0.05027823522686958
1733461185414975700,3.520975830078125,13.9462251663208,0.7230489253997803,0.7541735172271729
1733461185424985600,3.530985595703125,14.733917236328125,0.5674257874488831,1.1851298809051514
1733461185434964700,3.54096484375,14.947001457214355,0.6991068720817566,1.072602391242981
1733461185444974600,3.550974609375,14.67166805267334,1.1492167711257935,0.6560112833976746
1733461185454984400,3.560984375,13.88158130645752,1.699883222579956,0.08379705995321274
1733461185464963600,3.570963623046875,13.002909660339355,2.1116859912872314,-0.3711012601852417
1733461185474973400,3.580973388671875,12.081141471862793,2.3367409706115723,-0.7015010714530945
1733461185484983000,3.590983154296875,11.492168426513672,2.3271639347076416,-0.8140285611152649
1733461185494962400,3.60096240234375,11.343728065490723,1.8986018896102905,-1.0103530883789062
1733461185504972000,3.610971923828125,11.956643104553223,1.015141487121582,-0.950498104095459
1733461185514982000,3.62098193359375,13.057975769042969,-0.090979665517807,-0.7182605266571045
1733461185524961300,3.630961181640625,14.401123046875,-1.0127472877502441,-0.4692635238170624
1733461185534971000,3.640970947265625,15.241488456726074,-1.45806884765625,0.05267243832349777
1733461185544980700,3.650980712890625,15.447389602661133,-1.6759412288665771,0.6392518281936646
1733461185554960100,3.660960205078125,14.753070831298828,-1.6424223184585571,0.7661445140838623
1733461185564969700,3.6709697265625,13.050793647766113,-1.0271124839782715,0.33997663855552673
1733461185574979300,3.680979248046875,11.113883972167969,-0.3734954595565796,-0.11252748221158981
1733461185584958700,3.690958740234375,8.827422142028809,0.35434186458587646,-0.5003881454467773
1733461185594968300,3.70096826171875,6.751648902893066,1.01753568649292,-1.070208191871643
1733461185604978200,3.710978271484375,4.754884719848633,1.7884687185287476,-1.7334020137786865
1733461185614957600,3.72095751953125,3.1076738834381104,2.140416383743286,-1.9273324012756348
1733461185624967200,3.73096728515625,2.2194249629974365,2.0590133666992188,-1.556231141090393
1733461185634977000,3.74097705078125,2.1092917919158936,1.479616641998291,-0.5626373887062073
1733461185644956400,3.750956298828125,2.985569477081299,0.5123591423034668,0.5937620401382446
1733461185654966000,3.760966064453125,4.9368438720703125,-0.4668693244457245,1.5945383310317993
1733461185664976000,3.770975830078125,6.9455790519714355,-1.1348515748977661,2.4013843536376953
1733461185674985500,3.7809853515625,8.796297073364258,-1.6280571222305298,2.9496564865112305
1733461185684964600,3.790964599609375,9.971850395202637,-1.8124107122421265,3.0382418632507324
1733461185694974500,3.800974365234375,10.809821128845215,-1.482010841369629,2.676717519760132
1733461185704984300,3.810984375,10.991780281066895,-0.9840168952941895,2.0231003761291504
1733461185714963500,3.82096337890625,10.833763122558594,-0.33039984107017517,1.1563993692398071
1733461185724973300,3.830973388671875,10.508151054382324,0.38307225704193115,0.4668693244457245
1733461185734983200,3.840983154296875,10.110713958740234,0.8954314589500427,0.06224924325942993
1733461185744962600,3.850962646484375,9.5408935546875,1.2186486721038818,-0.26815059781074524
1733461185754972200,3.86097216796875,8.987833023071289,1.4221558570861816,-0.45010992884635925
1733461185764981800,3.870981689453125,8.470685958862305,1.599326729774475,-0.7206547260284424
1733461185774961200,3.880961181640625,8.135497093200684,1.7046716213226318,-0.8259995579719543
1733461185784971000,3.890970947265625,7.920019149780273,1.6974890232086182,-0.790086567401886
1733461185794980600,3.900980712890625,7.905653953552246,1.6639702320098877,-0.8451532125473022
1733461185804959700,3.910959716796875,8.04930591583252,1.5442601442337036,-0.7733271718025208
1733461185814969600,3.920969482421875,8.248024940490723,1.3263877630233765,-0.5674257874488831
1733461185824979500,3.9309794921875,8.56884765625,1.1252747774124146,-0.1412578970193863
1733461185834958600,3.94095849609375,8.968679428100586,1.1300631761550903,0.1867477297782898
1733461185844968400,3.950968505859375,9.239224433898926,1.1180921792984009,0.5722141861915588
1733461185854978300,3.960978271484375,9.339780807495117,1.256955862045288,0.6655880808830261
1733461185864957700,3.970957763671875,9.210494041442871,1.4532804489135742,0.4668693244457245
1733461185874967300,3.98096728515625,8.983044624328613,1.7046716213226318,0.17238251864910126
1733461185884977200,3.99097705078125,8.927978515625,1.9776105880737305,-0.040701430290937424
1733461185894956300,4.000956298828125,9.047688484191895,2.1092917919158936,-0.17477671802043915
1733461185904966000,4.0109658203125,9.351752281188965,2.2002713680267334,-0.24899697303771973
1733461185914975700,4.020975830078125,9.830592155456543,2.22660756111145,-0.3256114423274994
1733461185924985600,4.030985595703125,10.393229484558105,2.121262788772583,-0.13168109953403473
1733461185934964700,4.04096484375,10.87446403503418,1.9321208000183105,0.20111294090747833
1733461185944974600,4.050974609375,11.008539199829102,1.7573440074920654,0.40701428055763245
1733461185954984400,4.060984375,10.867281913757324,1.6711528301239014,0.5770025849342346
1733461185964963600,4.070963623046875,10.54645824432373,1.644816517829895,0.6943184733390808
1733461185974973400,4.080973388671875,10.053253173828125,1.7357962131500244,0.6440402865409851
1733461185984983000,4.090983154296875,9.533711433410645,1.8555063009262085,0.5770025849342346
1733461185994962200,4.100962158203125,9.227252960205078,1.9081788063049316,0.6727706789970398
1733461186004972000,4.110971923828125,9.138668060302734,1.8602946996688843,0.9145850539207458
1733461186014982000,4.12098193359375,9.387664794921875,1.702277421951294,1.0558429956436157
1733461186024961000,4.1309609375,9.974244117736816,1.434126853942871,1.2042834758758545
1733461186034971000,4.140970947265625,10.675745010375977,1.237802267074585,1.3982137441635132
1733461186044980700,4.150980712890625,11.291055679321289,1.0797849893569946,1.5514427423477173
1733461186054959900,4.1609599609375,11.623848915100098,0.9576807022094727,1.6041151285171509
1733461186064969700,4.1709697265625,11.657367706298828,0.9002198576927185,1.3072341680526733
1733461186074979600,4.1809794921875,11.66455078125,1.0031704902648926,0.7924807667732239
1733461186084958500,4.19095849609375,12.0021333694458,1.0654197931289673,0.4620809257030487
1733461186094968300,4.20096826171875,12.469002723693848,0.9888052940368652,-0.043095629662275314
1733461186104978200,4.210978271484375,12.938265800476074,0.9361328482627869,-0.5913678407669067
1733461186114957600,4.22095751953125,13.536816596984863,0.7422025203704834,-1.3862427473068237
1733461186124967200,4.23096728515625,14.144943237304688,0.4213795065879822,-1.9919757843017578
1733461186134977000,4.24097705078125,15.298949241638184,-0.15322890877723694,-2.183511972427368
1733461186144956400,4.250956298828125,16.546327590942383,-0.7206547260284424,-1.8626888990402222
1733461186154966000,4.260966064453125,17.762582778930664,-1.290474772453308,-1.170764684677124
1733461186164975600,4.2709755859375,17.79131317138672,-1.6879122257232666,-0.5315127968788147
1733461186174985500,4.2809853515625,16.318878173828125,-1.8698714971542358,-0.5051765441894531
1733461186184964600,4.290964599609375,13.488932609558105,-1.800439715385437,-1.115697979927063
1733461186194974500,4.300974365234375,10.788272857666016,-1.6400281190872192,-1.479616641998291
1733461186204984300,4.310984375,8.027758598327637,-1.4077905416488647,-1.8626888990402222
1733461186214963500,4.32096337890625,6.160281181335449,-1.070208191871643,-2.2433669567108154
1733461186224973300,4.330973388671875,4.879383087158203,-0.5027823448181152,-2.6455929279327393
1733461186234983200,4.340983154296875,4.201824188232422,0.07422025501728058,-3.0095114707946777
1733461186244962300,4.35096240234375,4.113238334655762,0.5793967843055725,-2.7988216876983643
1733461186254972200,4.36097216796875,4.436455726623535,0.8810662031173706,-2.1164743900299072
1733461186264982000,4.37098193359375,5.272032260894775,1.1516109704971313,-1.6136919260025024
1733461186274961200,4.380961181640625,6.244078159332275,1.2689268589019775,-1.2665326595306396
1733461186284971000,4.390970947265625,6.971915245056152,1.2258312702178955,-0.8044517636299133
1733461186294980600,4.400980712890625,7.496245384216309,0.9672574996948242,-0.48602294921875
1733461186304960000,4.4109599609375,7.82185697555542,0.8140285611152649,-0.20350714027881622
1733461186314969600,4.420969482421875,8.310274124145508,0.6943184733390808,0.011971008032560349
1733461186324979500,4.4309794921875,8.604761123657227,0.6057330369949341,0.1843535304069519
1733461186334958800,4.440958740234375,8.887276649475098,0.5434837937355042,0.20111294090747833
1733461186344968400,4.450968505859375,9.346963882446289,0.507570743560791,0.38307225704193115
1733461186354978300,4.460978271484375,9.627084732055664,0.524330198764801,0.363918662071228
1733461186364957700,4.470957763671875,9.749189376831055,0.6033388376235962,0.42856210470199585
1733461186374967300,4.48096728515625,9.828198432922363,0.7876923680305481,0.36152446269989014
1733461186384977200,4.49097705078125,9.75397777557373,1.0558429956436157,0.2082955539226532
1733461186394956300,4.500956298828125,9.502586364746094,1.292868971824646,-0.06464344263076782
1733461186404966000,4.5109658203125,9.05487060546875,1.4867992401123047,-0.24899697303771973
1733461186414975700,4.520975830078125,8.736441612243652,1.5849615335464478,-0.23702596127986908
1733461186424985600,4.530985595703125,8.528146743774414,1.6687586307525635,-0.27054479718208313
1733461186434964700,4.54096484375,8.458714485168457,1.6041151285171509,-0.1628057211637497
1733461186444974600,4.550974609375,8.480262756347656,1.3982137441635132,0.1388636976480484
1733461186454984400,4.560984375,8.564059257507324,1.2210428714752197,0.3902548849582672
1733461186464963600,4.570963623046875,8.650250434875488,1.070208191871643,0.6847416758537292
1733461186474973400,4.580973388671875,8.645462036132812,0.933738648891449,0.8236053586006165
1733461186484983000,4.590983154296875,8.47547435760498,0.8858546018600464,0.8236053586006165
1733461186494962400,4.60096240234375,8.221688270568848,1.0103530883789062,0.849941611289978
1733461186504972000,4.610971923828125,7.953537940979004,1.158793568611145,0.727837324142456
1733461186514982000,4.62098193359375,7.668628215789795,1.357512354850769,0.6584054827690125
1733461186524961300,4.630961181640625,7.553706169128418,1.5275006294250488,0.5339069962501526
1733461186534971000,4.640970947265625,7.5848307609558105,1.7477672100067139,0.37828385829925537
1733461186544980700,4.650980712890625,7.860164165496826,1.8842366933822632,0.23942017555236816
1733461186554960100,4.660960205078125,8.38449478149414,2.0685901641845703,0.18914192914962769
1733461186564969700,4.6709697265625,8.846575736999512,2.1811177730560303,-0.016759412363171577
1733461186574979300,4.680979248046875,9.32541561126709,2.346317768096924,-0.14604631066322327
1733461186584958700,4.690958740234375,9.593565940856934,2.4444799423217773,-0.2106897532939911
1733461186594968300,4.70096826171875,9.744400978088379,2.537853717803955,-0.2753331959247589
1733461186604978200,4.710978271484375,9.737217903137207,2.516305923461914,-0.19871874153614044
1733461186614957600,4.72095751953125,9.734824180603027,2.31758713722229,0
1733461186624967200,4.73096728515625,9.938331604003906,2.0877439975738525,0.4213795065879822
1733461186634977000,4.74097705078125,10.268731117248535,1.843535304069519,0.8212111592292786
1733461186644956400,4.750956298828125,10.60152530670166,1.5849615335464478,0.9792284965515137
1733461186654966000,4.760966064453125,10.922348022460938,1.6208745241165161,0.9409212470054626
1733461186664976000,4.770975830078125,11.104307174682617,1.8171991109848022,0.6200982332229614
1733461186674985500,4.7809853515625,11.18092155456543,2.0446481704711914,0.4357447028160095
1733461186684964600,4.790964599609375,11.221623420715332,2.207453966140747,0.3208230137825012
1733461186694974500,4.800974365234375,11.207258224487305,2.2146365642547607,0.33997663855552673
1733461186704984300,4.810984375,11.073183059692383,1.9345149993896484,0.6153098344802856
1733461186714963500,4.82096337890625,10.922348022460938,1.4508862495422363,1.2330138683319092
1733461186724973300,4.830973388671875,10.910377502441406,0.706289529800415,2.013523578643799
1733461186734983200,4.840983154296875,11.39400577545166,-0.2825157940387726,2.499546527862549
1733461186744962600,4.850962646484375,12.346898078918457,-0.993593692779541,2.248155355453491
1733461186754972200,4.86097216796875,13.773842811584473,-1.6352397203445435,1.7310078144073486
1733461186764981800,4.870981689453125,14.777012825012207,-2.188300371170044,1.6424223184585571
1733461186774961200,4.880961181640625,15.241488456726074,-2.6839001178741455,1.9704279899597168
1733461186784971000,4.890970947265625,14.911087989807129,-2.894589900970459,2.1380221843719482
1733461186794980600,4.900980712890625,13.725957870483398,-2.7078421115875244,2.078166961669922
1733461186804959700,4.910959716796875,12.121843338012695,-2.604891538619995,2.070984363555908
1733461186814969600,4.920969482421875,10.220847129821777,-2.2457611560821533,1.7764976024627686
1733461186824979500,4.9309794921875,8.698134422302246,-1.7860745191574097,1.3670891523361206
1733461186834958600,4.94095849609375,7.91283655166626,-1.3287819623947144,1.0749965906143188
1733461186844968400,4.950968505859375,7.690176010131836,-1.113303780555725,0.8451532125473022
1733461186854978300,4.960978271484375,8.073247909545898,-1.1516109704971313,0.6991068720817566
1733461186864957700,4.970957763671875,8.743624687194824,-1.2401964664459229,0.5817909836769104
1733461186874967300,4.98096728515625,9.418789863586426,-1.4053963422775269,0.6775590777397156
1733461186884977200,4.99097705078125,9.998186111450195,-1.5275006294250488,0.9361328482627869
1733461186894956300,5.000956298828125,10.376470565795898,-1.4460978507995605,1.1109095811843872
1733461186904966000,5.0109658203125,10.673351287841797,-1.3527239561080933,1.4317326545715332
1733461186914975700,5.020975830078125,10.754754066467285,-1.158793568611145,1.7118542194366455
1733461186924985600,5.030985595703125,10.515334129333496,-0.8092401623725891,1.6519991159439087
1733461186934964700,5.04096484375,10.014945983886719,-0.33997663855552673,1.3982137441635132
1733461186944974600,5.050974609375,9.129091262817383,0.2059013396501541,0.8834604024887085
1733461186954984400,5.060984375,8.202534675598145,1.0199298858642578,0.1149216815829277
1733461186964963600,5.070963623046875,7.407660007476807,1.5897499322891235,-0.4836287498474121
1733461186974973400,5.080973388671875,6.777985095977783,1.9369091987609863,-0.9792284965515137
1733461186984983000,5.090983154296875,6.67982292175293,2.2146365642547607,-1.3646949529647827
1733461186994962200,5.100962158203125,7.1921820640563965,2.3056161403656006,-1.3072341680526733
1733461187004972000,5.110971923828125,7.845798969268799,2.0638017654418945,-0.6320692300796509
1733461187014982000,5.12098193359375,8.494627952575684,1.3215993642807007,0.4118026793003082
1733461187024961000,5.1309609375,8.738836288452148,0.6105214357376099,1.1659762859344482
1733461187034971000,5.140970947265625,8.678980827331543,0,1.7381904125213623
1733461187044980700,5.150980712890625,8.236053466796875,-0.45489832758903503,2.2026655673980713
1733461187054959900,5.1609599609375,7.903259754180908,-0.8882488012313843,2.449268341064453
1733461187064969700,5.1709697265625,8.214506149291992,-1.158793568611145,2.3965959548950195
1733461187074979600,5.1809794921875,9.41639518737793,-1.292868971824646,1.8842366933822632
1733461187084958500,5.19095849609375,11.628637313842773,-1.400607943534851,1.7166426181793213
1733461187094968300,5.20096826171875,13.792996406555176,-1.577778935432434,1.6496049165725708
1733461187104978200,5.210978271484375,15.885528564453125,-1.6711528301239014,1.556231141090393
1733461187114957600,5.22095751953125,16.9581298828125,-1.7262194156646729,1.556231141090393
1733461187124967200,5.23096728515625,16.903064727783203,-1.886630892753601,1.7597382068634033
1733461187134977000,5.24097705078125,15.969325065612793,-1.9033904075622559,2.0039467811584473
1733461187144956400,5.250956298828125,14.168885231018066,-1.7142484188079834,2.0805611610412598
1733461187154966000,5.260966064453125,12.327744483947754,-1.37906014919281,2.0374655723571777
1733461187164975600,5.2709755859375,10.450690269470215,-0.8140285611152649,1.8770540952682495
1733461187174985500,5.2809853515625,9.244012832641602,-0.3878606855869293,1.8148049116134644
1733461187184964600,5.290964599609375,8.724471092224121,-0.15801730751991272,1.889025092124939
1733461187194974500,5.300974365234375,8.33182144165039,0.08140286058187485,1.7046716213226318
1733461187204984300,5.310984375,7.970297336578369,0.3663128614425659,1.4413094520568848
1733461187214963500,5.32096337890625,7.371747016906738,0.5626373887062073,1.280897855758667
1733461187224973300,5.330973388671875,6.7923502922058105,0.6847416758537292,1.0438719987869263
1733461187234983200,5.340983154296875,6.205770969390869,0.6320692300796509,0.8020575642585754
1733461187244962300,5.35096240234375,5.913678169250488,0.48602294921875,0.6440402865409851
1733461187254972200,5.36097216796875,5.856217384338379,0.26096799969673157,0.33758243918418884
1733461187264982000,5.37098193359375,6.342240333557129,0.06224924325942993,0.26336219906806946
1733461187274961200,5.380961181640625,7.268796443939209,-0.2298433631658554,0.5363011956214905
1733461187284971000,5.390970947265625,8.26478385925293,-0.47405192255973816,0.5506663918495178
1733461187294980600,5.400980712890625,8.96389102935791,-0.5770025849342346,0.5602431893348694
1733461187304960000,5.4109599609375,9.476250648498535,-0.6584054827690125,0.5913678407669067
1733461187314969600,5.420969482421875,9.653421401977539,-0.6344634294509888,0.545877993106842
1733461187324979500,5.4309794921875,9.751583099365234,-0.5315127968788147,0.24660277366638184
1733461187334958800,5.440958740234375,9.84256362915039,-0.3974374830722809,0.14365209639072418
1733461187344968400,5.450968505859375,10.007762908935547,-0.2849099934101105,0.021547814831137657
1733461187354978300,5.460978271484375,9.99339771270752,-0.2753331959247589,-0.2992752194404602
1733461187364957700,5.470957763671875,10.11550235748291,-0.2561795711517334,-0.6272808313369751
1733461187374967300,5.48096728515625,10.096348762512207,-0.22266076505184174,-0.9193734526634216
1733461187384977200,5.49097705078125,10.177751541137695,-0.3208230137825012,-1.1276689767837524
1733461187394956300,5.500956298828125,10.618284225463867,-0.49320554733276367,-0.8595184087753296
1733461187404966000,5.5109658203125,10.982203483581543,-0.706289529800415,-0.3998316824436188
1733461187414975700,5.520975830078125,10.975020408630371,-0.9552865028381348,0.023942016065120697
1733461187424985600,5.530985595703125,10.656591415405273,-1.170764684677124,0.19153612852096558
1733461187434964700,5.54096484375,10.031704902648926,-1.2018892765045166,0.002394201699644327
1733461187444974600,5.550974609375,9.473855972290039,-1.0845733880996704,-0.27054479718208313
1733461187454984400,5.560984375,9.14585018157959,-0.8427590131759644,-0.6033388376235962
1733461187464963600,5.570963623046875,9.184157371520996,-0.6200982332229614,-0.9193734526634216
1733461187474973400,5.580973388671875,9.624691009521484,-0.3208230137825012,-1.2186486721038818
1733461187484983000,5.590983154296875,10.144232749938965,0.035913024097681046,-1.5969325304031372
1733461187494962400,5.60096240234375,10.47702693939209,0.5219359993934631,-2.0159177780151367
1733461187504972000,5.610971923828125,10.558429718017578,0.9097966551780701,-2.410961151123047
1733461187514982000,5.62098193359375,10.63743782043457,1.1420341730117798,-2.492363929748535
1733461187524961300,5.630961181640625,10.563218116760254,1.2449848651885986,-2.3343467712402344
1733461187534971000,5.640970947265625,10.359710693359375,1.1659762859344482,-2.0446481704711914
1733461187544980700,5.650980712890625,10.06043529510498,0.9457096457481384,-1.6352397203445435
1733461187554960100,5.660960205078125,9.797073364257812,0.6799532771110535,-1.2066776752471924
1733461187564969700,5.6709697265625,9.502586364746094,0.42856210470199585,-1.0079588890075684
1733461187574979300,5.680979248046875,9.287108421325684,0.26815059781074524,-0.8523358106613159
1733461187584958700,5.690958740234375,9.047688484191895,0.035913024097681046,-0.5817909836769104
1733461187594968300,5.70096826171875,8.846575736999512,-0.15083470940589905,-0.47644615173339844
1733461187604978200,5.710978271484375,8.695740699768066,-0.3232172429561615,-0.3758896589279175
1733461187614957600,5.72095751953125,8.616731643676758,-0.38546648621559143,-0.3998316824436188
1733461187624967200,5.73096728515625,8.695740699768066,-0.31364041566848755,-0.49799394607543945
1733461187634977000,5.74097705078125,8.995016098022461,-0.22505496442317963,-0.6943184733390808
1733461187644956400,5.750956298828125,9.32541561126709,-0.09816227108240128,-0.8595184087753296
1733461187654966000,5.760966064453125,9.617507934570312,-0.021547814831137657,-0.9193734526634216
1733461187664976000,5.770975830078125,9.612719535827637,-0.021547814831137657,-0.950498104095459
1733461187674985500,5.7809853515625,9.53849983215332,0.038307227194309235,-0.9696516990661621
1733461187684964600,5.790964599609375,9.47146224975586,0.1604115068912506,-0.9744400978088379
1733461187694974500,5.800974365234375,9.469067573547363,0.2777273952960968,-0.9409212470054626
1733461187704984300,5.810984375,9.557653427124023,0.42377370595932007,-1.1180921792984009
1733461187714963500,5.82096337890625,9.742006301879883,0.6248866319656372,-1.2832920551300049
1733461187724973300,5.830973388671875,9.837775230407715,0.9002198576927185,-1.5083470344543457
1733461187734983200,5.840983154296875,9.93354320526123,1.1635819673538208,-1.6974890232086182
1733461187744962600,5.850962646484375,9.947908401489258,1.3958195447921753,-1.9560627937316895
1733461187754972200,5.86097216796875,9.967061996459961,1.6041151285171509,-2.341529369354248
1733461187764981800,5.870981689453125,10.074800491333008,1.8555063009262085,-2.671929121017456
1733461187774961200,5.880961181640625,10.27591323852539,1.9704279899597168,-2.8850131034851074
1733461187784971000,5.890970947265625,10.527304649353027,2.099714994430542,-3.07415509223938
1733461187794980600,5.900980712890625,10.747570991516113,2.166752576828003,-3.2752678394317627
1733461187804959700,5.910959716796875,11.125855445861816,2.049436569213867,-3.098097085952759
1733461187814969600,5.920969482421875,11.465831756591797,1.6328455209732056,-2.6623523235321045
1733461187824979500,5.9309794921875,11.556811332702637,1.0319008827209473,-2.049436569213867
1733461187834958600,5.94095849609375,11.233593940734863,0.4884171485900879,-1.6112977266311646
1733461187844968400,5.950968505859375,10.862493515014648,0.1867477297782898,-1.1516109704971313
1733461187854978300,5.960978271484375,10.417171478271484,-0.09816227108240128,-0.4692635238170624
1733461187864957700,5.970957763671875,10.244789123535156,-0.14604631066322327,0.06464344263076782
1733461187874967300,5.98096728515625,10.163386344909668,0.026336219161748886,0.3519476354122162
1733461187884977200,5.99097705078125,10.091560363769531,0.2992752194404602,0.5147533416748047
1733461187894956300,6.000956298828125,9.99339771270752,0.7422025203704834,0.507570743560791
1733461187904966000,6.0109658203125,9.828198432922363,1.2306196689605713,0.08858546614646912
1733461187914975700,6.020975830078125,9.41400146484375,1.7118542194366455,-0.5674257874488831
1733461187924985600,6.030985595703125,9.026140213012695,2.1116859912872314,-0.9241618514060974
1733461187934964700,6.04096484375,8.53532886505127,2.3726539611816406,-1.3263877630233765
1733461187944974600,6.050974609375,8.243236541748047,2.609679937362671,-1.4891934394836426
1733461187954984400,6.060984375,8.166622161865234,2.6791117191314697,-1.678335428237915
1733461187964963600,6.070963623046875,8.346187591552734,2.6839001178741455,-1.4724340438842773
1733461187974973400,6.080973388671875,8.487444877624512,2.4612393379211426,-1.216254472732544
1733461187984983000,6.090983154296875,8.65982723236084,2.0685901641845703,-0.7565677165985107
1733461187994962200,6.100962158203125,8.695740699768066,1.7693150043487549,-0.3926490843296051
1733461188004972000,6.110971923828125,8.671798706054688,1.4245500564575195,0.023942016065120697
1733461188014982000,6.12098193359375,8.695740699768066,1.1540051698684692,0.33039984107017517
1733461188024961000,6.1309609375,8.78432559967041,0.9409212470054626,0.5841852426528931
1733461188034971000,6.140970947265625,9.030928611755371,0.7469909191131592,0.5889736413955688
1733461188044980700,6.150980712890625,9.435548782348633,0.6560112833976746,0.3758896589279175
1733461188054959900,6.1609599609375,9.911994934082031,0.6009446382522583,0.11971008777618408
1733461188064969700,6.1709697265625,10.32858657836914,0.47644615173339844,-0.07182604819536209
1733461188074979600,6.1809794921875,10.615890502929688,0.24181437492370605,-0.13407529890537262
1733461188084958500,6.19095849609375,10.72841739654541,0.07900865375995636,-0.1412578970193863
1733461188094968300,6.20096826171875,10.6925048828125,-0.12689268589019775,-0.07182604819536209
1733461188104978200,6.210978271484375,10.565611839294434,-0.28730419278144836,0.08619125932455063
1733461188114957600,6.22095751953125,10.335768699645996,-0.2777273952960968,0.05746084079146385
1733461188124967200,6.23096728515625,10.11789608001709,-0.14604631066322327,-0.1604115068912506
1733461188134977000,6.24097705078125,9.84495735168457,0.11971008777618408,-0.4884171485900879
1733461188144956400,6.250956298828125,9.643844604492188,0.45489832758903503,-0.7781155705451965
1733461188154966000,6.260966064453125,9.3828763961792,0.9026140570640564,-1.05105459690094
1733461188164975600,6.2709755859375,8.942343711853027,1.3407529592514038,-1.357512354850769
1733461188174985500,6.2809853515625,8.346187591552734,1.699883222579956,-1.5634137392044067
1733461188184964600,6.290964599609375,7.4100542068481445,2.0159177780151367,-1.7381904125213623
1733461188194974500,6.300974365234375,6.641515731811523,2.126051187515259,-1.7286136150360107
1733461188204984300,6.310984375,6.133944988250732,2.0207061767578125,-1.2617442607879639
1733461188214963500,6.32096337890625,6.141127586364746,1.699883222579956,-0.8188169598579407
1733461188224973300,6.330973388671875,6.9240312576293945,1.3192051649093628,-0.3687070608139038
1733461188234983200,6.340983154296875,8.212111473083496,1.0342950820922852,-0.08379705995321274
1733461188244962300,6.35096240234375,9.876082420349121,0.8068459630012512,0.15562310814857483
1733461188254972200,6.36097216796875,11.367670059204102,0.7445967197418213,0.14604631066322327
1733461188264982000,6.37098193359375,13.017274856567383,1.094150185585022,-0.023942016065120697
1733461188274961200,6.380961181640625,14.288596153259277,1.4939818382263184,-0.42856210470199585
1733461188284971000,6.390970947265625,14.994885444641113,1.9967641830444336,-0.8140285611152649
1733461188294980600,6.400980712890625,15.04516315460205,2.4803929328918457,-1.3982137441635132
1733461188304960000,6.4109599609375,14.494497299194336,2.8850131034851074,-1.7717092037200928
1733461188314969600,6.420969482421875,13.290213584899902,3.0550012588500977,-1.8938134908676147
1733461188324979500,6.4309794921875,11.985373497009277,3.1196448802948,-1.7501614093780518
1733461188334958800,6.440958740234375,10.668562889099121,3.0573954582214355,-1.5873557329177856
1733461188344968400,6.450968505859375,9.744400978088379,2.9089550971984863,-1.259350061416626
1733461188354978300,6.460978271484375,8.916007041931152,2.561795711517334,-0.6703764796257019
1733461188364957700,6.470957763671875,8.29590892791748,2.140416383743286,-0.17477671802043915
1733461188374967300,6.48096728515625,7.692570209503174,1.7142484188079834,0.29209262132644653
1733461188384977200,6.49097705078125,7.12035608291626,1.37906014919281,0.6823474764823914
1733461188394956300,6.500956298828125,6.660669326782227,1.139639973640442,0.9241618514060974
1733461188404966000,6.5109658203125,6.215347766876221,1.0007762908935547,1.1085153818130493
1733461188414975700,6.520975830078125,5.966350555419922,0.950498104095459,1.1180921792984009
1733461188424985600,6.530985595703125,5.9519853591918945,0.9576807022094727,1.015141487121582
1733461188434964700,6.54096484375,6.244078159332275,1.015141487121582,0.8379706144332886
1733461188444974600,6.550974609375,7.0317702293396,0.9816226959228516,0.6560112833976746
1733461188454984400,6.560984375,7.85537576675415,0.9481038451194763,0.44771572947502136
1733461188464963600,6.570963623046875,8.62391471862793,0.9528923034667969,0.33039984107017517
1733461188474973400,6.580973388671875,9.272743225097656,1.0678139925003052,0.21787235140800476
1733461188484983000,6.590983154296875,9.916783332824707,1.3335703611373901,-0.08140286058187485
1733461188494962400,6.60096240234375,10.515334129333496,1.6687586307525635,-0.5315127968788147
1733461188504972000,6.610971923828125,10.94150161743164,2.051830768585205,-1.1276689767837524
1733461188514982000,6.62098193359375,11.267112731933594,2.494758129119873,-1.8579005002975464
1733461188524961300,6.630961181640625,11.425130844116211,2.8155810832977295,-2.403778553009033
1733461188534971000,6.640970947265625,11.444284439086914,2.9879636764526367,-2.6001031398773193
1733461188544980700,6.650980712890625,11.465831756591797,3.043030261993408,-2.3367409706115723
1733461188554960100,6.660960205078125,11.353304862976074,2.846705913543701,-2.0470423698425293
1733461188564969700,6.6709697265625,11.384428977966309,2.7030537128448486,-1.5705963373184204
1733461188574979300,6.680979248046875,11.51850414276123,2.4133553504943848,-1.2258312702178955
1733461188584958700,6.690958740234375,11.60708999633789,2.166752576828003,-1.0414776802062988
1733461188594968300,6.70096826171875,11.710040092468262,1.9129672050476074,-0.8738836050033569
1733461188604978200,6.710978271484375,11.563994407653809,1.886630892753601,-0.7709329724311829
1733461188614957600,6.72095751953125,11.334151268005371,2.1356279850006104,-0.8092401623725891
1733461188624967200,6.73096728515625,11.022904396057129,2.5067291259765625,-1.0462661981582642
1733461188634977000,6.74097705078125,10.857705116271973,2.7509377002716064,-1.0438719987869263
1733461188644956400,6.750956298828125,10.84094524383545,2.7700912952423096,-1.0965443849563599
1733461188654966000,6.760966064453125,10.955866813659668,2.5498247146606445,-0.7709329724311829
1733461188664976000,6.770975830078125,11.429919242858887,1.9393033981323242,-0.0454898327589035
1733461188674985500,6.7809853515625,12.100295066833496,1.3311761617660522,0.5410895943641663
1733461188684964900,6.79096484375,12.820950508117676,0.6033388376235962,1.0797849893569946
1733461188694974500,6.800974365234375,13.177685737609863,0.0071826050989329815,1.3455413579940796
1733461188704984300,6.810984375,13.139378547668457,-0.5578489899635315,1.3742717504501343
1733461188714963500,6.82096337890625,12.70602798461914,-1.0031704902648926,1.2545616626739502
1733461188724973300,6.830973388671875,12.265495300292969,-1.1683704853057861,0.8978256583213806
1733461188734983200,6.840983154296875,12.02846908569336,-1.1444283723831177,0.4596867263317108
1733461188744962600,6.850962646484375,12.09311294555664,-0.912190854549408,-0.06464344263076782
1733461188754972200,6.86097216796875,12.325350761413574,-0.45489832758903503,-0.5937620401382446
1733461188764982000,6.87098193359375,12.346898078918457,-0.016759412363171577,-1.0127472877502441
1733461188774961200,6.880961181640625,11.973402976989746,0.5099649429321289,-1.2282254695892334
1733461188784971000,6.890970947265625,11.061211585998535,0.8020575642585754,-1.0055646896362305
1733461188794980600,6.900980712890625,9.466673851013184,1.0199298858642578,-0.7469909191131592
1733461188804959700,6.910959716796875,7.8529815673828125,1.2018892765045166,-0.5386953949928284
1733461188814969600,6.920969482421875,6.18182897567749,1.400607943534851,-0.49799394607543945
1733461188824979500,6.9309794921875,4.927267074584961,1.4413094520568848,-0.4884171485900879
1733461188834958600,6.94095849609375,4.393360137939453,1.381454348564148,-0.524330198764801
1733461188844968400,6.950968505859375,4.51067590713501,1.216254472732544,-0.47165772318840027
1733461188854978300,6.960978271484375,5.327098846435547,0.9552865028381348,-0.08619125932455063
1733461188864957700,6.970957763671875,6.7277069091796875,0.3734954595565796,0.4189853072166443
1733461188874967300,6.98096728515625,8.008605003356934,-0.12928688526153564,0.7852981686592102
1733461188884977200,6.99097705078125,8.959102630615234,-0.6320692300796509,1.3431471586227417
1733461188894956300,7.000956298828125,9.35893440246582,-1.0534487962722778,2.1140801906585693
1733461188904966000,7.0109658203125,9.35893440246582,-1.3192051649093628,2.9089550971984863
1733461188914975700,7.020975830078125,9.028534889221191,-1.357512354850769,3.265691041946411
1733461188924985600,7.030985595703125,8.585607528686523,-1.1228805780410767,3.2585084438323975
1733461188934964700,7.04096484375,8.324639320373535,-0.6057330369949341,2.367865562438965
1733461188944974600,7.050974609375,8.370129585266113,0.033518824726343155,1.2641384601593018
1733461188954984400,7.060984375,8.427590370178223,0.6607996821403503,0.22505496442317963
1733461188964963600,7.070963623046875,8.461109161376953,1.1994950771331787,-0.6248866319656372
1733461188974973400,7.080973388671875,8.633491516113281,1.6759412288665771,-1.1875240802764893
1733461188984983000,7.090983154296875,8.858546257019043,1.8507179021835327,-1.400607943534851
1733461188994962200,7.100962158203125,9.131484985351562,1.8794482946395874,-1.2761094570159912
1733461189004972000,7.110971923828125,9.334992408752441,1.766920804977417,-0.9744400978088379
1733461189014982000,7.12098193359375,9.21288776397705,1.6136919260025024,-0.6631938815116882
1733461189024961000,7.1309609375,8.853757858276367,1.4748282432556152,-0.47884035110473633
1733461189034971000,7.140970947265625,8.221688270568848,1.37906014919281,-0.3280056416988373
1733461189044980700,7.150980712890625,7.690176010131836,1.2880805730819702,-0.09816227108240128
1733461189054959900,7.1609599609375,7.398083209991455,1.1683704853057861,0.047884032130241394
1733461189064969700,7.1709697265625,7.38132381439209,0.9959878921508789,0.24181437492370605
1733461189074979600,7.1809794921875,7.5201873779296875,1.0103530883789062,0.35913026332855225
1733461189084958500,7.19095849609375,7.807491779327393,1.072602391242981,0.3471592366695404
1733461189094968300,7.20096826171875,8.245630264282227,1.0893617868423462,0.44532153010368347
1733461189104978200,7.210978271484375,8.813055992126465,1.1492167711257935,0.5219359993934631
1733461189114957600,7.22095751953125,9.361329078674316,1.2090718746185303,0.6009446382522583
1733461189124967200,7.23096728515625,9.849745750427246,1.235408067703247,0.6248866319656372
1733461189134977000,7.24097705078125,10.1753568649292,1.3024457693099976,0.49799394607543945
1733461189144956400,7.250956298828125,10.572794914245605,1.3623007535934448,0.31124621629714966
1733461189154966000,7.260966064453125,11.077971458435059,1.460463047027588,0.06464344263076782
1733461189164975600,7.2709755859375,11.57357120513916,1.599326729774475,-0.22505496442317963
1733461189174985500,7.2809853515625,11.959037780761719,1.7884687185287476,-0.5674257874488831
1733461189184964900,7.29096484375,11.997344970703125,2.049436569213867,-0.9624691009521484
1733461189194974500,7.300974365234375,11.688492774963379,2.3127987384796143,-1.2761094570159912
1733461189204984300,7.310984375,11.130643844604492,2.4468741416931152,-1.290474772453308
1733461189214963500,7.32096337890625,10.515334129333496,2.4803929328918457,-1.3120225667953491
1733461189224973300,7.330973388671875,10.170568466186523,2.5091233253479004,-1.280897855758667
1733461189234983200,7.340983154296875,10.146626472473145,2.322375535964966,-0.9911994934082031
1733461189244962300,7.35096240234375,10.412383079528809,2.1739351749420166,-0.6392518281936646
1733461189254972200,7.36097216796875,10.886435508728027,1.965639591217041,-0.0933738648891449
1733461189264982000,7.37098193359375,11.291055679321289,1.7405846118927002,0.5386953949928284
1733461189274961200,7.380961181640625,11.463438034057617,1.501164436340332,0.871489405632019
1733461189284971000,7.390970947265625,11.66455078125,1.3503297567367554,0.9097966551780701
1733461189294980600,7.400980712890625,11.741165161132812,1.173158884048462,0.689530074596405
1733461189304960000,7.4109599609375,11.923124313354492,1.0965443849563599,0.17477671802043915
1733461189314969600,7.420969482421875,12.239158630371094,1.1228805780410767,-0.2106897532939911
1733461189324979500,7.4309794921875,12.789825439453125,1.2186486721038818,-0.5315127968788147
1733461189334958800,7.440958740234375,13.326127052307129,1.2282254695892334,-0.8834604024887085
1733461189344968400,7.450968505859375,13.776236534118652,1.0965443849563599,-1.482010841369629
1733461189354978300,7.460978271484375,14.125789642333984,0.8044517636299133,-2.0470423698425293
1733461189364957700,7.470957763671875,14.640542984008789,0.16759411990642548,-2.3989901542663574
1733461189374967600,7.480967529296875,15.435418128967285,-0.4213795065879822,-2.0685901641845703
1733461189384977200,7.49097705078125,15.887922286987305,-1.05105459690094,-1.2330138683319092
1733461189394956300,7.500956298828125,15.382745742797852,-1.7334020137786865,-0.608127236366272
1733461189404966000,7.5109658203125,14.09466552734375,-2.0254945755004883,-0.4884171485900879
1733461189414975700,7.520975830078125,11.760318756103516,-2.22660756111145,-0.6057330369949341
1733461189424985600,7.530985595703125,9.612719535827637,-2.2002713680267334,-0.8810662031173706
1733461189434964700,7.54096484375,7.570465564727783,-1.987187385559082,-1.290474772453308
1733461189444974600,7.550974609375,6.3973069190979,-1.6855180263519287,-1.6376339197158813
1733461189454984400,7.560984375,5.808333396911621,-1.4389152526855469,-1.8171991109848022
1733461189464963600,7.570963623046875,5.767632007598877,-1.1013327836990356,-2.0446481704711914
1733461189474973400,7.580973388671875,5.896918773651123,-0.5482721924781799,-2.2002713680267334
1733461189484983000,7.590983154296875,6.110002517700195,0.11971008777618408,-2.2816741466522217
1733461189494962400,7.60096240234375,6.291962146759033,0.6991068720817566,-2.382230758666992
1733461189504972000,7.610971923828125,6.45476770401001,1.2713210582733154,-2.4444799423217773
1733461189514982000,7.62098193359375,6.63433313369751,1.6974890232086182,-2.4612393379211426
1733461189524961300,7.630961181640625,6.959944248199463,2.0422539710998535,-2.250549554824829
1733461189534971000,7.640970947265625,7.2783732414245605,2.1140801906585693,-1.920149803161621
1733461189544980700,7.650980712890625,7.623138427734375,1.7549498081207275,-1.070208191871643
1733461189554960100,7.660960205078125,7.9631147384643555,1.4053963422775269,-0.4572925269603729
1733461189564969700,7.6709697265625,8.315062522888184,1.1755530834197998,-0.040701430290937424
1733461189574979300,7.680979248046875,8.508993148803711,0.9624691009521484,0.3280056416988373
1733461189584958700,7.690958740234375,8.540117263793945,0.7661445140838623,0.5147533416748047
1733461189594968300,7.70096826171875,8.607154846191406,0.7158663272857666,0.5315127968788147
1733461189604978200,7.710978271484375,8.611943244934082,0.7781155705451965,0.31364041566848755
1733461189614957600,7.72095751953125,8.705317497253418,0.9624691009521484,0.05027823522686958
1733461189624967200,7.73096728515625,8.760383605957031,1.0773907899856567,0
1733461189634977000,7.74097705078125,8.78432559967041,1.1875240802764893,0.1412578970193863
1733461189644956400,7.750956298828125,8.722076416015625,1.2282254695892334,0.22505496442317963
1733461189654966000,7.760966064453125,8.485051155090332,1.3479355573654175,0.3974374830722809
1733461189664976000,7.770975830078125,8.22887134552002,1.4245500564575195,0.44771572947502136
1733461189674985500,7.7809853515625,7.970297336578369,1.5466543436050415,0.11252748221158981
1733461189684964900,7.79096484375,7.876923561096191,1.580173134803772,-0.2346317619085312
1733461189694974500,7.800974365234375,7.86734676361084,1.5275006294250488,-0.5961562395095825
1733461189704984300,7.810984375,8.08282470703125,1.4460978507995605,-0.8259995579719543
1733461189714963500,7.82096337890625,8.322244644165039,1.2832920551300049,-0.8834604024887085
1733461189724973300,7.830973388671875,8.671798706054688,1.0534487962722778,-0.768538773059845
1733461189734983200,7.840983154296875,8.889671325683594,0.8930372595787048,-0.5913678407669067
1733461189744962600,7.850962646484375,9.23443603515625,1.0558429956436157,-0.3423708379268646
1733461189754972200,7.86097216796875,9.409213066101074,1.3742717504501343,-0.30885201692581177
1733461189764982000,7.87098193359375,9.385271072387695,1.764526605606079,-0.2825157940387726
1733461189774961200,7.880961181640625,9.17697525024414,2.0614075660705566,-0.3208230137825012
1733461189784971000,7.890970947265625,9.002198219299316,2.406172752380371,-0.4620809257030487
1733461189794980600,7.900980712890625,9.057265281677246,2.6216509342193604,-0.5147533416748047
1733461189804959700,7.910959716796875,9.334992408752441,2.738966703414917,-0.5841852426528931
1733461189814969600,7.920969482421875,9.732429504394531,2.631227731704712,-0.48602294921875
1733461189824979500,7.9309794921875,10.098742485046387,2.3511061668395996,-0.5267243981361389
1733461189834958600,7.94095849609375,10.436325073242188,2.0254945755004883,-0.15322890877723694
1733461189844968400,7.950968505859375,10.649409294128418,1.6184803247451782,0.3926490843296051
1733461189854978300,7.960978271484375,10.936713218688965,1.2425906658172607,1.237802267074585
1733461189864957700,7.970957763671875,11.252747535705566,1.036689281463623,1.8483237028121948
1733461189874967300,7.98096728515625,11.599906921386719,0.7230489253997803,2.346317768096924
1733461189884977200,7.99097705078125,11.848904609680176,0.706289529800415,2.3989901542663574
1733461189894956300,8.000956298828125,11.78665542602539,0.8259995579719543,1.8794482946395874
1733461189904966000,8.0109658203125,11.580753326416016,1.091755986213684,1.4389152526855469
1733461189914975700,8.020975830078125,11.374852180480957,1.3024457693099976,1.0821791887283325
1733461189924985600,8.030985595703125,11.530475616455078,1.292868971824646,0.9696516990661621
1733461189934964700,8.04096484375,11.975796699523926,1.0319008827209473,0.6823474764823914
1733461189944974600,8.050974609375,12.559982299804688,0.5410895943641663,0.14604631066322327
1733461189954984400,8.060984375,13.06515884399414,-0.002394201699644327,-0.4429273009300232
1733461189964963600,8.070963623046875,13.658920288085938,-0.7182605266571045,-0.8954314589500427
1733461189974973400,8.080973388671875,14.413094520568848,-1.3024457693099976,-0.9983820915222168
1733461189984983000,8.090983154296875,15.507244110107422,-1.7549498081207275,-0.7541735172271729
1733461189994962200,8.100962158203124,16.385915756225586,-1.9273324012756348,-0.24420857429504395
1733461190004972000,8.110971923828124,16.634912490844727,-1.889025092124939,0.10055647045373917
1733461190014982000,8.12098193359375,15.509638786315918,-1.5514427423477173,-0.2059013396501541
1733461190024961000,8.1309609375,13.204022407531738,-0.8355764150619507,-0.9002198576927185
1733461190034971000,8.140970947265625,10.508151054382324,-0.26336219906806946,-1.3120225667953491
1733461190044980700,8.150980712890625,7.762001991271973,0.5770025849342346,-1.6879122257232666
1733461190054959900,8.1609599609375,5.5329999923706055,1.5275006294250488,-2.3127987384796143
1733461190064969700,8.1709697265625,4.347870349884033,2.070984363555908,-2.557007312774658
1733461190074979600,8.1809794921875,3.892971992492676,2.274491548538208,-2.2816741466522217
1733461190084958500,8.19095849609375,4.120420932769775,1.9177556037902832,-1.699883222579956
1733461190094968300,8.20096826171875,5.152322292327881,1.3503297567367554,-0.9050082564353943
1733461190104978200,8.210978271484375,6.339846134185791,0.8427590131759644,-0.38067805767059326
1733461190114957600,8.22095751953125,7.450755596160889,0.15083470940589905,0.4141969084739685
1733461190124967200,8.23096728515625,8.17141056060791,-0.33997663855552673,1.1563993692398071
1733461190134977000,8.24097705078125,8.786720275878906,-0.7565677165985107,1.7597382068634033
1733461190144956400,8.250956298828125,9.253589630126953,-1.0079588890075684,2.011129379272461
1733461190154966000,8.260966064453125,9.763554573059082,-1.1803414821624756,1.9321208000183105
1733461190164975600,8.2709755859375,10.165780067443848,-1.1779472827911377,1.6735470294952393
1733461190174985500,8.2809853515625,10.405200958251953,-1.0989385843276978,1.4532804489135742
1733461190184964900,8.29096484375,10.51054573059082,-0.871489405632019,1.2090718746185303
1733461190194974500,8.300974365234374,10.431536674499512,-0.5363011956214905,0.9169792532920837
1733461190204984300,8.310984375,10.093954086303711,-0.021547814831137657,0.42856210470199585
1733461190214963500,8.32096337890625,9.636661529541016,0.45489832758903503,-0.07422025501728058
1733461190224973300,8.330973388671875,9.047688484191895,0.9648633003234863,-0.6631938815116882
1733461190234983200,8.340983154296875,8.547300338745117,1.3742717504501343,-0.9840168952941895
1733461190244962300,8.35096240234375,8.130708694458008,1.7717092037200928,-1.2856862545013428
1733461190254972200,8.36097216796875,7.857769966125488,1.9919757843017578,-1.522712230682373
1733461190264982000,8.37098193359375,7.671022415161133,2.2218191623687744,-1.5969325304031372
1733461190274961200,8.380961181640625,7.548917770385742,2.322375535964966,-1.5083470344543457
1733461190284971000,8.390970947265625,7.503427982330322,2.3127987384796143,-1.4628572463989258
1733461190294980600,8.400980712890625,7.450755596160889,2.2433669567108154,-1.278503656387329
1733461190304960000,8.4109599609375,7.340622425079346,2.056619167327881,-1.1300631761550903
1733461190314969600,8.420969482421874,7.374141216278076,1.98958158493042,-0.8068459630012512
1733461190324979500,8.4309794921875,7.402871608734131,1.86508309841156,-0.4572925269603729
1733461190334958800,8.440958740234375,7.489062786102295,1.843535304069519,-0.08140286058187485
1733461190344968400,8.450968505859375,7.465120792388916,1.8267759084701538,0.028730420395731926
1733461190354978300,8.460978271484375,7.383718013763428,1.7932571172714233,0.043095629662275314
1733461190364957700,8.470957763671874,7.407660007476807,1.7549498081207275,0.06703764945268631
1733461190374967300,8.48096728515625,7.881711959838867,1.723825216293335,0.13407529890537262
1733461190384977200,8.49097705078125,8.71489429473877,1.6879122257232666,0.20350714027881622
1733461190394956300,8.500956298828125,9.619902610778809,1.6615760326385498,0.43335050344467163
1733461190404966000,8.5109658203125,10.556035041809082,1.647210717201233,0.6344634294509888
1733461190414975700,8.520975830078125,11.111490249633789,1.7070658206939697,0.8738836050033569
1733461190424985600,8.530985595703125,11.305420875549316,1.778891921043396,0.9289502501487732
1733461190434964700,8.54096484375,11.125855445861816,1.8770540952682495,0.7422025203704834
1733461190444974600,8.550974609375,10.876858711242676,2.10210919380188,0.5386953949928284
1733461190454984400,8.560984375,10.690110206604004,2.2601263523101807,0.4141969084739685
1733461190464963600,8.570963623046875,10.63743782043457,2.425326347351074,0.3663128614425659
1733461190474973400,8.580973388671875,10.754754066467285,2.5737667083740234,0.12449848651885986
1733461190484983000,8.590983154296875,10.824186325073242,2.6815059185028076,-0.0071826050989329815
1733461190494962400,8.60096240234375,10.797849655151367,2.5977089405059814,-0.038307227194309235
1733461190504972000,8.610971923828124,10.649409294128418,2.3271639347076416,0.1149216815829277
1733461190514982000,8.62098193359375,10.709263801574707,1.987187385559082,0.3423708379268646
1733461190524961300,8.630961181640625,11.003750801086426,1.5322890281677246,0.6105214357376099
1733461190534971000,8.640970947265625,11.619060516357422,1.0295066833496094,0.7182605266571045
1733461190544980700,8.650980712890625,12.36605167388916,0.7757213711738586,0.4644751250743866
1733461190554960100,8.660960205078124,13.30218505859375,0.7374141216278076,0.15562310814857483
1733461190564969700,8.6709697265625,14.0635404586792,0.9600749015808105,-0.07900865375995636
1733461190574979300,8.680979248046874,14.7387056350708,1.292868971824646,-0.8619126081466675
1733461190584958700,8.690958740234375,15.083470344543457,1.3503297567367554,-1.9704279899597168
1733461190594968300,8.70096826171875,15.473725318908691,1.115697979927063,-3.2992098331451416
1733461190604978200,8.710978271484375,16.09861183166504,0.4381389021873474,-4.4077253341674805
1733461190614957600,8.72095751953125,16.77377700805664,-0.3256114423274994,-4.496310710906982
1733461190624967200,8.73096728515625,17.32683753967285,-1.3311761617660522,-3.581725835800171
1733461190634977000,8.74097705078125,17.310077667236328,-2.185906171798706,-2.5785553455352783
1733461190644956400,8.750956298828125,16.476896286010742,-3.026270866394043,-1.623268723487854
1733461190654966000,8.760966064453125,14.987702369689941,-3.5027170181274414,-1.158793568611145
1733461190664976000,8.770975830078125,12.562376022338867,-3.550601005554199,-1.3838485479354858
1733461190674985500,8.7809853515625,10.1753568649292,-3.24414324760437,-1.900996208190918
1733461190684964900,8.79096484375,7.503427982330322,-2.698265314102173,-2.6384103298187256
1733461190694974500,8.800974365234374,5.43723201751709,-1.9081788063049316,-3.406949043273926
1733461190704984300,8.810984375,3.756502389907837,-0.8667010068893433,-3.993528366088867
1733461190714963500,8.82096337890625,2.9233202934265137,0.10534487664699554,-4.223371982574463
1733461190724973300,8.830973388671875,2.7748796939849854,0.8140285611152649,-4.129997730255127
1733461190734983200,8.840983154296875,3.31118106842041,1.3838485479354858,-3.6774938106536865
1733461190744962600,8.850962646484374,4.1180267333984375,1.6496049165725708,-3.0885202884674072
1733461190754972200,8.86097216796875,4.999093055725098,1.8914192914962769,-2.6360161304473877
1733461190764982000,8.87098193359375,5.595249176025391,1.9752163887023926,-2.3750481605529785
1733461190774961200,8.880961181640625,6.098031520843506,1.7860745191574097,-1.944091796875
1733461190784971000,8.890970947265625,6.6127848625183105,1.522712230682373,-1.3886369466781616
1733461190794980600,8.900980712890625,7.240066051483154,1.259350061416626,-1.0271124839782715
1733461190804959700,8.910959716796874,7.73087739944458,1.1444283723831177,-0.9361328482627869
1733461190814969600,8.920969482421874,8.20732307434082,1.072602391242981,-0.7876923680305481
1733461190824979500,8.9309794921875,8.611943244934082,1.0534487962722778,-0.8188169598579407
1733461190834958600,8.94095849609375,8.935160636901855,1.1061211824417114,-0.7996633648872375
1733461190844968400,8.950968505859375,9.126696586608887,1.091755986213684,-0.7613561153411865
1733461190854978300,8.960978271484375,8.98543930053711,1.094150185585022,-0.7182605266571045
1733461190864957700,8.970957763671874,8.59997272491455,1.139639973640442,-0.5674257874488831
1733461190874967300,8.98096728515625,8.200140953063965,1.1492167711257935,-0.47405192255973816
1733461190884977200,8.99097705078125,7.91283655166626,1.0773907899856567,-0.24899697303771973
1733461190894956300,9.000956298828125,7.800309181213379,0.9385270476341248,-0.0933738648891449
1733461190904966000,9.0109658203125,7.9176249504089355,0.828393816947937,0.05506663769483566
1733461190914975700,9.020975830078125,8.1139497756958,0.751779317855835,0.2801215946674347
1733461190924985600,9.030985595703125,8.518569946289062,0.6416460275650024,0.5027823448181152
1733461190934964700,9.04096484375,8.865729331970215,0.629675030708313,0.507570743560791
1733461190944974600,9.050974609375,9.033323287963867,0.667982280254364,0.5195417404174805
1733461190954984400,9.060984375,8.96389102935791,0.608127236366272,0.5147533416748047
1733461190964963600,9.070963623046875,8.674192428588867,0.5674257874488831,0.3998316824436188
1733461190974973400,9.080973388671875,8.355764389038086,0.667982280254364,0.33039984107017517
1733461190984983000,9.090983154296875,8.11634349822998,0.7613561153411865,0.21547815203666687
1733461190994962200,9.100962158203124,8.090007781982422,0.9720458984375,0.14365209639072418
1733461191004972000,9.110971923828124,8.358158111572266,1.292868971824646,-0.08140286058187485
1733461191014982000,9.12098193359375,8.89685344696045,1.800439715385437,-0.43095630407333374
1733461191024961000,9.1309609375,9.346963882446289,2.123656988143921,-0.6560112833976746
1733461191034971000,9.140970947265625,9.75637149810791,2.4660277366638184,-0.9672574996948242
1733461191044980700,9.150980712890625,10.17296314239502,2.7772738933563232,-1.1755530834197998
1733461191054959900,9.1609599609375,10.433931350708008,2.9065608978271484,-1.3910311460494995
1733461191064969700,9.1709697265625,10.682928085327148,3.064578056335449,-1.4867992401123047
1733461191074979600,9.1809794921875,11.058817863464355,2.983175277709961,-1.4173674583435059
1733461191084958500,9.19095849609375,11.6430025100708,2.719813108444214,-1.1444283723831177
1733461191094968300,9.20096826171875,12.198457717895508,2.43011474609375,-0.7781155705451965
1733461191104978200,9.210978271484375,12.703634262084961,2.2170307636260986,-0.38067805767059326
1733461191114957600,9.22095751953125,13.00051498413086,2.0829553604125977,-0.14604631066322327
1733461191124967200,9.23096728515625,13.15853214263916,2.1380221843719482,0.028730420395731926
1733461191134977000,9.24097705078125,13.172897338867188,2.4420857429504395,-0.11971008777618408
1733461191144956400,9.250956298828125,12.871228218078613,2.964021682739258,-0.6584054827690125
1733461191154966000,9.260966064453125,12.322956085205078,3.294421434402466,-1.1779472827911377
1733461191164975600,9.2709755859375,11.93509578704834,3.3470940589904785,-1.2018892765045166
1733461191174985500,9.2809853515625,11.729193687438965,2.9305028915405273,-0.689530074596405
1733461191184964900,9.29096484375,11.839327812194824,2.3582887649536133,-0.05746084079146385
1733461191194974500,9.300974365234374,12.09311294555664,1.5083470344543457,0.4620809257030487
1733461191204984300,9.310984375,12.382811546325684,0.5434837937355042,0.6009446382522583
1733461191214963500,9.32096337890625,12.832921028137207,-0.6344634294509888,0.5746083855628967
1733461191224973300,9.330973388671875,13.472172737121582,-1.4652514457702637,0.4118026793003082
1733461191234983200,9.340983154296875,14.16409683227539,-2.10210919380188,0.15322890877723694
1733461191244962300,9.35096240234375,14.425065040588379,-2.403778553009033,-0.20111294090747833
1733461191254972200,9.36097216796875,14.092270851135254,-2.454056739807129,-0.6009446382522583
1733461191264982000,9.37098193359375,13.110648155212402,-2.231395959854126,-0.8164227604866028
1733461191274961200,9.380961181640625,11.91354751586914,-1.7621324062347412,-1.1468225717544556
1733461191284971000,9.390970947265625,10.407594680786133,-1.381454348564148,-1.3910311460494995
1733461191294980600,9.400980712890625,9.097966194152832,-1.1803414821624756,-1.6687586307525635
1733461191304960000,9.4109599609375,7.778761386871338,-1.137245774269104,-1.9608511924743652
1733461191314969600,9.420969482421874,6.830657482147217,-1.0606313943862915,-2.0446481704711914
1733461191324979500,9.4309794921875,6.00226354598999,-0.9744400978088379,-1.8698714971542358
1733461191334958800,9.440958740234375,5.442020416259766,-0.9672574996948242,-1.37906014919281
1733461191344968400,9.450968505859375,4.953603267669678,-1.0462661981582642,-0.5267243981361389
1733461191354978300,9.460978271484375,4.788403511047363,-1.094150185585022,0.4668693244457245
1733461191364957700,9.470957763671874,5.185841083526611,-0.9313444495201111,1.256955862045288
1733461191374967300,9.48096728515625,6.028599739074707,-0.43335050344467163,1.1468225717544556
1733461191384977200,9.49097705078125,6.797138690948486,-0.016759412363171577,0.7206547260284424
1733461191394956300,9.500956298828125,7.599195957183838,0.524330198764801,-0.023942016065120697
1733461191404966000,9.5109658203125,8.190564155578613,1.0414776802062988,-0.8188169598579407
1733461191414975700,9.520975830078125,8.87291145324707,1.6160861253738403,-1.580173134803772
1733461191424985600,9.530985595703125,9.464279174804688,2.0398597717285156,-1.8818424940109253
1733461191434964700,9.54096484375,9.914389610290527,2.1763293743133545,-2.03507137298584
1733461191444974600,9.550974609375,10.050858497619629,2.1811177730560303,-1.7860745191574097
1733461191454984400,9.560984375,9.706093788146973,2.0159177780151367,-1.2641384601593018
1733461191464963600,9.570963623046875,9.083600997924805,1.8842366933822632,-0.7805097699165344
1733461191474973400,9.580973388671875,8.458714485168457,1.8794482946395874,-0.5530605912208557
1733461191484983000,9.590983154296875,8.221688270568848,1.845929503440857,-0.5506663918495178
1733461191494962400,9.60096240234375,8.374917984008789,1.8195933103561401,-0.6248866319656372
1733461191504972000,9.610971923828124,8.813055992126465,1.7836803197860718,-0.8762778043746948
1733461191514982000,9.62098193359375,9.217676162719727,1.7884687185287476,-0.8331822156906128
1733461191524961300,9.630961181640625,9.48343276977539,1.7070658206939697,-0.6871358752250671
1733461191534971000,9.640970947265625,9.366117477416992,1.5969325304031372,-0.42856210470199585
1733461191544980700,9.650980712890625,8.920795440673828,1.556231141090393,-0.12689268589019775
1733461191554960100,9.660960205078124,8.422801971435547,1.5394717454910278,0.26096799969673157
1733461191564969700,9.6709697265625,7.7213006019592285,1.4844050407409668,0.4908113479614258
1733461191574979300,9.680979248046874,7.158663272857666,1.436521053314209,0.6919242739677429
1733461191584958700,9.690958740234375,6.8593878746032715,1.3862427473068237,0.9840168952941895
1733461191594968300,9.70096826171875,7.240066051483154,1.2832920551300049,1.216254472732544
1733461191604978200,9.710978271484375,8.08282470703125,1.278503656387329,1.292868971824646
1733461191614957600,9.72095751953125,9.260771751403809,1.256955862045288,1.2497732639312744
1733461191624967200,9.73096728515625,10.158597946166992,1.2737152576446533,1.3670891523361206
1733461191634977000,9.74097705078125,10.532093048095703,1.314416766166687,1.2330138683319092
1733461191644956400,9.750956298828125,10.484209060668945,1.455674648284912,1.1779472827911377
1733461191654966000,9.760966064453125,10.292673110961914,1.8531121015548706,0.9385270476341248
1733461191664976000,9.770975830078125,10.022128105163574,2.169146776199341,0.7469909191131592
1733461191674985500,9.7809853515625,9.895236015319824,2.513911724090576,0.6057330369949341
1733461191684964900,9.79096484375,9.787496566772461,2.7317841053009033,0.40940847992897034
1733461191694974500,9.800974365234374,9.655815124511719,2.935291290283203,0.4118026793003082
1733461191704984300,9.810984375,9.409213066101074,3.090914487838745,0.2825157940387726
1733461191714963500,9.82096337890625,9.253589630126953,3.2632968425750732,0.2082955539226532
1733461191724973300,9.830973388671875,9.117119789123535,3.3662476539611816,0.15322890877723694
1733461191734983200,9.840983154296875,9.141061782836914,3.337517261505127,0.13407529890537262
1733461191744962600,9.850962646484374,9.188945770263672,3.2321722507476807,0.20350714027881622
1733461191754972200,9.86097216796875,9.296685218811035,2.9544448852539062,0.47165772318840027
1733461191764982000,9.87098193359375,9.57441234588623,2.6024973392486572,0.8403648138046265
1733461191774961400,9.88096142578125,9.940725326538086,2.1930887699127197,1.1803414821624756
1733461191784971000,9.890970947265625,10.445901870727539,1.7693150043487549,1.4293384552001953
1733461191794980600,9.900980712890625,10.946290016174316,1.522712230682373,1.5753847360610962
1733461191804959700,9.910959716796874,11.523292541503906,1.3670891523361206,1.7094600200653076
1733461191814969600,9.920969482421874,12.102689743041992,1.3120225667953491,1.8794482946395874
1733461191824979500,9.9309794921875,12.696451187133789,1.3455413579940796,1.8602946996688843
1733461191834958600,9.94095849609375,13.326127052307129,1.577778935432434,1.647210717201233
1733461191844968400,9.950968505859375,13.792996406555176,1.7501614093780518,1.3407529592514038
1733461191854978300,9.960978271484375,14.118607521057129,1.9728221893310547,0.8020575642585754
1733461191864957700,9.970957763671874,14.132972717285156,2.0829553604125977,-0.004788403399288654
1733461191874967300,9.98096728515625,14.09705924987793,2.0470423698425293,-0.7422025203704834
1733461191884977200,9.99097705078125,14.116212844848633,1.7190368175506592,-1.37906014919281
1733461191894956300,10.000956298828125,14.250288963317871,0.993593692779541,-1.9800047874450684
1733461191904966000,10.0109658203125,14.322114944458008,-0.023942016065120697,-2.121262788772583
1733461191914975700,10.020975830078125,14.135366439819336,-1.4724340438842773,-1.656787633895874
1733461191924985600,10.030985595703125,13.697227478027344,-2.9927520751953125,-0.8068459630012512
1733461191934964700,10.04096484375,12.995726585388184,-4.307168960571289,0.5913678407669067
1733461191944974600,10.050974609375,11.803414344787598,-5.442020416259766,2.252943754196167
1733461191954984400,10.060984375,10.369287490844727,-5.841852188110352,3.1435868740081787
1733461191964963600,10.070963623046875,8.564059257507324,-5.552153587341309,3.0526070594787598
1733461191974973400,10.080973388671875,7.12035608291626,-4.644751071929932,1.6879122257232666
1733461191984983000,10.090983154296875,6.739677906036377,-2.9903578758239746,-0.7326257228851318
1733461191994962200,10.100962158203124,7.206547260284424,-1.5945383310317993,-3.069366693496704
1733461192004972000,10.110971923828124,8.154650688171387,-0.36152446269989014,-4.999093055725098
1733461192014982000,10.12098193359375,9.102754592895508,0.6129156351089478,-6.186617374420166
1733461192024961000,10.1309609375,9.763554573059082,1.5945383310317993,-7.208941459655762
1733461192034971000,10.140970947265625,10.146626472473145,2.52109432220459,-7.465120792388916
1733461192044980700,10.150980712890625,10.295066833496094,3.222595453262329,-7.240066051483154
1733461192054959900,10.1609599609375,10.091560363769531,3.60566782951355,-6.440402507781982
1733461192064969700,10.1709697265625,9.653421401977539,3.531447410583496,-5.3127336502075195
1733461192074979600,10.1809794921875,9.066842079162598,3.2800562381744385,-4.0294413566589355
1733461192084958500,10.19095849609375,8.621520042419434,2.892195701599121,-3.0142998695373535
1733461192094968300,10.20096826171875,8.468291282653809,2.360682964324951,-1.9345149993896484
1733461192104978200,10.210978271484375,8.53532886505127,1.7836803197860718,-1.0534487962722778
1733461192114957600,10.22095751953125,8.798690795898438,1.1755530834197998,-0.38307225704193115
1733461192124967200,10.23096728515625,9.05247688293457,0.6967126727104187,-0.11252748221158981
1733461192134977000,10.24097705078125,9.30386734008789,0.26575639843940735,0.10055647045373917
1733461192144956400,10.250956298828125,9.476250648498535,-0.07661445438861847,0.31364041566848755
1733461192154966000,10.260966064453125,9.543288230895996,-0.31124621629714966,0.47405192255973816
1733461192164975900,10.270975830078125,9.473855972290039,-0.4812345504760742,0.6368576288223267
1733461192174985500,10.2809853515625,9.21288776397705,-0.586579442024231,0.7326257228851318
1733461192184964900,10.29096484375,8.798690795898438,-0.5363011956214905,0.7158663272857666
1733461192194974500,10.300974365234374,8.315062522888184,-0.40940847992897034,0.7015010714530945
1733461192204984300,10.310984375,7.733271598815918,-0.22266076505184174,0.45250412821769714
1733461192214963500,10.32096337890625,7.321468830108643,0.05746084079146385,0.15801730751991272
1733461192224973300,10.330973388671875,7.005434036254883,0.272938996553421,-0.021547814831137657
1733461192234983200,10.340983154296875,6.835445880889893,0.33039984107017517,-0.06703764945268631
1733461192244962300,10.35096240234375,6.75883150100708,0.35913026332855225,0.004788403399288654
1733461192254972200,10.36097216796875,6.828263282775879,0.33279404044151306,0.22744916379451752
1733461192264982000,10.37098193359375,6.964732646942139,0.28730419278144836,0.44532153010368347
1733461192274961200,10.380961181640625,7.187393665313721,0.33279404044151306,0.5386953949928284
1733461192284971000,10.390970947265625,7.42681360244751,0.45489832758903503,0.42377370595932007
1733461192294980600,10.400980712890625,7.773972988128662,0.7541735172271729,0.016759412363171577
1733461192304960000,10.4109599609375,8.078036308288574,1.0103530883789062,-0.49320554733276367
1733461192314969600,10.420969482421874,8.439560890197754,1.278503656387329,-0.8595184087753296
1733461192324979500,10.4309794921875,8.772355079650879,1.4963760375976562,-1.072602391242981
1733461192334958800,10.440958740234375,9.105149269104004,1.7717092037200928,-1.455674648284912
1733461192344968400,10.450968505859375,9.301473617553711,1.944091796875,-1.625662922859192
1733461192354978300,10.460978271484375,9.332598686218262,2.078166961669922,-1.7381904125213623
1733461192364957700,10.470957763671874,9.210494041442871,2.1499931812286377,-1.6950948238372803
1733461192374967300,10.48096728515625,8.992621421813965,2.207453966140747,-1.5729905366897583
1733461192384977200,10.49097705078125,8.813055992126465,2.2026655673980713,-1.5059528350830078
1733461192394956300,10.500956298828125,8.863334655761719,2.250549554824829,-1.5394717454910278
1733461192404966000,10.5109658203125,9.191340446472168,2.293645143508911,-1.460463047027588
1733461192414975700,10.520975830078125,9.768342971801758,2.3080103397369385,-1.3982137441635132
1733461192424985600,10.530985595703125,10.565611839294434,2.4468741416931152,-1.0893617868423462
1733461192434964700,10.54096484375,11.152191162109375,2.516305923461914,-0.8906430602073669
1733461192444974600,10.550974609375,11.408370971679688,2.5929205417633057,-0.5961562395095825
1733461192454984400,10.560984375,11.30302619934082,2.719813108444214,-0.47405192255973816
1733461192464963600,10.570963623046875,10.860098838806152,2.8419175148010254,-0.49320554733276367
1733461192474973400,10.580973388671875,10.24239444732666,2.8802247047424316,-0.3902548849582672
1733461192484983000,10.590983154296875,9.643844604492188,2.8419175148010254,-0.5817909836769104
1733461192494962400,10.60096240234375,9.07641887664795,2.5498247146606445,-0.9409212470054626
1733461192504972000,10.610971923828124,8.415618896484375,2.0638017654418945,-0.8930372595787048
1733461192514982000,10.62098193359375,7.620744228363037,1.1803414821624756,0.1364694982767105
1733461192524961300,10.630961181640625,6.98628044128418,-0.031124621629714966,1.723825216293335
1733461192534971000,10.640970947265625,7.096413612365723,-1.436521053314209,4.302380561828613
1733461192544980700,10.650980712890625,8.037335395812988,-2.5258827209472656,6.485892295837402
1733461192554960100,10.660960205078124,9.612719535827637,-3.7421371936798096,7.6997528076171875
1733461192564969700,10.6709697265625,10.852916717529297,-3.7493197917938232,7.496245384216309
1733461192574979300,10.680979248046874,10.99896240234375,-3.272873640060425,5.916072368621826
1733461192584958700,10.690958740234375,9.684545516967773,-2.3774423599243164,3.9384617805480957
1733461192594968300,10.70096826171875,6.955155849456787,-0.8762778043746948,1.867477297782898
1733461192604978200,10.710978271484375,4.2760443687438965,0.4596867263317108,-1.0319008827209473
1733461192614957600,10.72095751953125,2.8610711097717285,1.3766659498214722,-2.9065608978271484
1733461192624967200,10.73096728515625,3.3877954483032227,1.6903064250946045,-3.507505416870117
1733461192634977000,10.74097705078125,6.311115741729736,0.8595184087753296,-2.52109432220459
1733461192644956400,10.750956298828125,11.224017143249512,-1.0103530883789062,-1.2401964664459229
1733461192654966000,10.760966064453125,15.476119995117188,-2.564189910888672,-0.1173158809542656
1733461192664976000,10.770975830078125,19.13924789428711,-4.201824188232422,1.2761094570159912
1733461192674985500,10.7809853515625,21.39698028564453,-5.463568210601807,3.1866824626922607
1733461192684964900,10.79096484375,22.953210830688477,-6.335057735443115,4.95120906829834
1733461192694974500,10.800974365234374,23.8055477142334,-6.63433313369751,6.1770405769348145
1733461192704984300,10.810984375,23.51824378967285,-6.315904140472412,6.435614109039307
1733461192714963500,10.82096337890625,21.57654571533203,-5.03021764755249,4.836287498474121
1733461192724973300,10.830973388671875,18.854337692260742,-3.998316764831543,3.0190882682800293
1733461192734983200,10.840983154296875,15.854403495788574,-2.580949544906616,0.6177040338516235
1733461192744962600,10.850962646484374,13.924676895141602,-1.237802267074585,-1.235408067703247
1733461192754972200,10.86097216796875,12.327744483947754,-0.023942016065120697,-2.343923568725586
1733461192764982000,10.87098193359375,11.252747535705566,0.6536170840263367,-2.3558945655822754
1733461192774961400,10.88096142578125,9.926360130310059,1.0462661981582642,-1.8483237028121948
1733461192784971000,10.890970947265625,8.69095230102539,1.192312479019165,-1.4508862495422363
1733461192794980600,10.900980712890625,7.285555839538574,1.2330138683319092,-1.1180921792984009
1733461192804959700,10.910959716796874,6.31829833984375,1.3742717504501343,-0.912190854549408
1733461192814969600,10.920969482421874,5.784391403198242,1.3287819623947144,-0.7158663272857666
1733461192824979500,10.9309794921875,5.966350555419922,1.0558429956436157,-0.6919242739677429
1733461192834958600,10.94095849609375,6.375759124755859,0.8906430602073669,-1.170764684677124
1733461192844968400,10.950968505859375,7.0772600173950195,1.0223240852355957,-1.4413094520568848
1733461192854978300,10.960978271484375,7.553706169128418,1.015141487121582,-1.381454348564148
1733461192864957700,10.970957763671874,8.073247909545898,0.8236053586006165,-1.4724340438842773
1733461192874967300,10.98096728515625,8.640673637390137,0.706289529800415,-1.3024457693099976
1733461192884977200,10.99097705078125,8.736441612243652,0.4141969084739685,-0.9169792532920837
1733461192894956300,11.000956298828125,8.62630844116211,0.2944868206977844,-0.49559974670410156
1733461192904966000,11.0109658203125,8.719682693481445,0.11971008777618408,-0.2346317619085312
1733461192914975700,11.020975830078125,9.011775016784668,-0.0694318488240242,-0.43335050344467163
1733461192924985600,11.030985595703125,9.48343276977539,-0.033518824726343155,-0.7254431247711182
1733461192934964700,11.04096484375,9.81143856048584,0.19153612852096558,-1.2186486721038818
1733461192944974600,11.050974609375,9.818621635437012,0.395043283700943,-1.5298948287963867
1733461192954984400,11.060984375,9.437943458557129,0.5793967843055725,-1.8938134908676147
1733461192964963600,11.070963623046875,9.035717010498047,0.6584054827690125,-2.123656988143921
1733461192974973400,11.080973388671875,8.741230010986328,0.7852981686592102,-2.4851813316345215
1733461192984983000,11.090983154296875,8.669404029846191,0.8307880163192749,-2.779668092727661
1733461192994962200,11.100962158203124,8.887276649475098,0.811634361743927,-2.9041666984558105
1733461193004972000,11.110971923828124,9.378087997436523,0.6919242739677429,-2.7461493015289307
1733461193014982000,11.12098193359375,10.225635528564453,0.26336219906806946,-2.183511972427368
1733461193024961000,11.1309609375,10.766724586486816,-0.07900865375995636,-1.5921441316604614
1733461193034971000,11.140970947265625,10.96304988861084,-0.07900865375995636,-1.4748282432556152
1733461193044980700,11.150980712890625,10.6925048828125,0.2298433631658554,-1.745373010635376
1733461193054959900,11.1609599609375,10.098742485046387,0.768538773059845,-2.190694570541382
1733461193064969700,11.1709697265625,9.390059471130371,1.2665326595306396,-2.3271639347076416
1733461193074979600,11.1809794921875,9.038111686706543,1.5897499322891235,-2.300827741622925
1733461193084958700,11.190958740234375,9.133879661560059,1.941697597503662,-2.231395959854126
1733461193094968300,11.20096826171875,9.411606788635254,2.0853497982025146,-2.2242133617401123
1733461193104978200,11.210978271484375,9.576807022094727,2.006340980529785,-2.1332337856292725
1733461193114957600,11.22095751953125,9.548076629638672,1.922544002532959,-2.0422539710998535
1733461193124967200,11.23096728515625,9.306262016296387,1.9129672050476074,-2.1523873805999756
1733461193134977000,11.24097705078125,8.990227699279785,1.721431016921997,-1.9536685943603516
1733461193144956400,11.250956298828125,8.779537200927734,1.3455413579940796,-1.4915876388549805
1733461193154966000,11.260966064453125,8.899248123168945,0.8978256583213806,-1.0414776802062988
1733461193164975900,11.270975830078125,9.078812599182129,0.6512228846549988,-0.7469909191131592
1733461193174985500,11.2809853515625,9.133879661560059,0.507570743560791,-0.6033388376235962
1733461193184964900,11.29096484375,8.971074104309082,0.586579442024231,-0.6105214357376099
1733461193194974700,11.300974609375,8.757989883422852,0.7876923680305481,-0.6272808313369751
1733461193204984300,11.310984375,8.537723541259766,1.039083480834961,-0.586579442024231
1733461193214963500,11.32096337890625,8.35336971282959,1.3192051649093628,-0.5841852426528931
1733461193224973300,11.330973388671875,8.250418663024902,1.5538369417190552,-0.5051765441894531
1733461193234983200,11.340983154296875,8.236053466796875,1.8171991109848022,-0.44771572947502136
1733461193244962300,11.35096240234375,8.188169479370117,2.027888774871826,-0.43335050344467163
1733461193254972200,11.36097216796875,8.178592681884766,2.1547815799713135,-0.4620809257030487
1733461193264982000,11.37098193359375,8.259995460510254,2.161964178085327,-0.5147533416748047
1733461193274961200,11.380961181640625,8.482656478881836,2.142810583114624,-0.6248866319656372
1733461193284971000,11.390970947265625,8.796297073364258,2.0661959648132324,-0.7015010714530945
1733461193294980600,11.400980712890625,9.248801231384277,1.9105730056762695,-0.5650315880775452
1733461193304960000,11.4109599609375,9.80904483795166,1.7262194156646729,-0.4357447028160095
1733461193314969600,11.420969482421874,10.08437728881836,1.5490485429763794,-0.2968810200691223
1733461193324979500,11.4309794921875,10.098742485046387,1.4460978507995605,-0.24660277366638184
1733461193334958800,11.440958740234375,9.928754806518555,1.434126853942871,-0.24420857429504395
1733461193344968400,11.450968505859375,9.653421401977539,1.3934253454208374,-0.10534487664699554
1733461193354978300,11.460978271484375,9.478644371032715,1.479616641998291,-0.23702596127986908
1733461193364957700,11.470957763671874,9.41639518737793,1.5275006294250488,-0.3208230137825012
1733461193374967300,11.48096728515625,9.478644371032715,1.556231141090393,-0.3878606855869293
1733461193384977200,11.49097705078125,9.555258750915527,1.5682021379470825,-0.5003881454467773
1733461193394956300,11.500956298828125,9.684545516967773,1.5610195398330688,-0.43335050344467163
1733461193404966000,11.5109658203125,9.895236015319824,1.4891934394836426,-0.3495534360408783
1733461193414975700,11.520975830078125,10.194510459899902,1.2952631711959839,-0.2059013396501541
1733461193424985600,11.530985595703125,10.491392135620117,1.1827356815338135,-0.11013327538967133
1733461193434964700,11.54096484375,10.876858711242676,1.0534487962722778,0.07422025501728058
1733461193444974600,11.550974609375,11.224017143249512,0.9983820915222168,0.12928688526153564
1733461193454984400,11.560984375,11.341333389282227,1.0821791887283325,0.043095629662275314
1733461193464963600,11.570963623046875,11.08994197845459,1.3479355573654175,-0.2346317619085312
1733461193474973400,11.580973388671875,10.594342231750488,1.6424223184585571,-0.5147533416748047
1733461193484983000,11.590983154296875,10.11789608001709,1.9369091987609863,-0.7876923680305481
1733461193494962400,11.60096240234375,9.765948295593262,2.097320795059204,-0.8044517636299133
1733461193504972000,11.610971923828124,9.418789863586426,2.229001760482788,-1.0199298858642578
1733461193514982000,11.62098193359375,9.117119789123535,2.274491548538208,-0.9840168952941895
1733461193524961300,11.630961181640625,8.777143478393555,2.212242364883423,-0.8164227604866028
1733461193534971000,11.640970947265625,8.652645111083984,2.1116859912872314,-0.689530074596405
1733461193544980700,11.650980712890625,8.674192428588867,1.8914192914962769,-0.3926490843296051
1733461193554960100,11.660960205078124,8.954314231872559,1.6855180263519287,-0.10055647045373917
1733461193564969700,11.6709697265625,9.330204010009766,1.4867992401123047,-0.08858546614646912
1733461193574979300,11.680979248046874,9.588777542114258,1.3766659498214722,-0.0071826050989329815
1733461193584958700,11.690958740234375,9.524134635925293,1.2186486721038818,-0.016759412363171577
1733461193594968300,11.70096826171875,9.313444137573242,1.1779472827911377,0.0454898327589035
1733461193604978200,11.710978271484375,9.198522567749023,1.1180921792984009,0.06464344263076782
1733461193614957600,11.72095751953125,8.99740982055664,1.1252747774124146,-0.090979665517807
1733461193624967200,11.73096728515625,8.925583839416504,1.280897855758667,-0.20111294090747833
1733461193634977000,11.74097705078125,9.038111686706543,1.3694833517074585,-0.12449848651885986
1733461193644956400,11.750956298828125,9.41639518737793,1.41257905960083,0.0933738648891449
1733461193654966000,11.760966064453125,10.036493301391602,1.5921441316604614,0.08140286058187485
1733461193664976000,11.770975830078125,10.314221382141113,1.7980455160140991,-0.15083470940589905
1733461193674985500,11.7809853515625,10.199298858642578,2.1308395862579346,-0.4884171485900879
1733461193684964900,11.79096484375,9.768342971801758,2.293645143508911,-0.6847416758537292
1733461193694974700,11.800974609375,9.469067573547363,2.473210334777832,-1.0127472877502441
1733461193704984300,11.810984375,9.490615844726562,2.4157495498657227,-0.993593692779541
1733461193714963500,11.82096337890625,9.825803756713867,2.233790159225464,-0.8858546018600464
1733461193724973300,11.830973388671875,10.187328338623047,1.9249382019042969,-0.4884171485900879
1733461193734983200,11.840983154296875,10.436325073242188,1.6496049165725708,-0.15083470940589905
1733461193744962600,11.850962646484374,10.594342231750488,1.4173674583435059,-0.011971008032560349
1733461193754972200,11.86097216796875,10.60391902923584,1.3982137441635132,-0.11013327538967133
1733461193764982000,11.87098193359375,10.438719749450684,1.3862427473068237,-0.2059013396501541
1733461193774961400,11.88096142578125,10.153809547424316,1.357512354850769,-0.10055647045373917
1733461193784971000,11.890970947265625,9.904812812805176,1.316810965538025,0.07182604819536209
1733461193794980600,11.900980712890625,9.658209800720215,1.3694833517074585,-0.0071826050989329815
1733461193804959700,11.910959716796874,9.327810287475586,1.4867992401123047,-0.0454898327589035
1733461193814969600,11.920969482421874,9.174580574035645,1.6352397203445435,-0.23942017555236816
1733461193824979500,11.9309794921875,9.133879661560059,1.680729627609253,-0.2992752194404602
1733461193834958600,11.94095849609375,9.14345645904541,1.7046716213226318,-0.2561795711517334
1733461193844968400,11.950968505859375,9.167398452758789,1.7118542194366455,-0.009576806798577309
1733461193854978300,11.960978271484375,9.351752281188965,1.647210717201233,0.11013327538967133
1733461193864957700,11.970957763671874,9.59835433959961,1.6041151285171509,0.19153612852096558
1733461193874967300,11.98096728515625,9.871294021606445,1.5729905366897583,0.21308395266532898
1733461193884977200,11.99097705078125,9.99339771270752,1.4867992401123047,0.363918662071228
1733461193894956300,12.000956298828125,11.058817863464355,1.4532804489135742,0.021547814831137657
1733461193904966000,12.0109658203125,9.59835433959961,1.5682021379470825,0.09816227108240128
1733461193914975700,12.020975830078125,8.884882926940918,1.7381904125213623,0.19393034279346466
1733461193924985600,12.030985595703125,8.556877136230469,1.8171991109848022,0.09816227108240128
1733461193934964700,12.04096484375,8.808267593383789,1.9776105880737305,-0.40940847992897034
1733461193944974600,12.050974609375,9.062053680419922,1.9105730056762695,-0.3711012601852417
1733461193954984400,12.060984375,9.435548782348633,1.8626888990402222,-0.3926490843296051
1733461193964963600,12.070963623046875,9.804255485534668,1.8746598958969116,-0.45010992884635925
1733461193974973400,12.080973388671875,10.02452278137207,1.6855180263519287,-0.26575639843940735
1733461193984983000,12.090983154296875,10.232817649841309,1.6519991159439087,-0.1867477297782898
1733461193994962200,12.100962158203124,10.218452453613281,1.6927006244659424,-0.24181437492370605
1733461194004972000,12.110971923828124,10.038887977600098,1.6376339197158813,-0.2849099934101105
1733461194014982000,12.12098193359375,10.08198356628418,1.7166426181793213,-0.2777273952960968
1733461194024961000,12.1309609375,10.182539939880371,1.6759412288665771,-0.2082955539226532
1733461194034971000,12.140970947265625,10.15141487121582,1.6496049165725708,-0.16998831927776337
1733461194044980700,12.150980712890625,9.763554573059082,1.6376339197158813,-0.07422025501728058
1733461194054959900,12.1609599609375,9.263166427612305,1.599326729774475,0.05506663769483566
