time,seconds_elapsed,z,y,x
1733231736208480500,0.20148046875,-0.24367904663085938,-0.0622711181640625,0.030194640159606934
1733231736218172400,0.21117236328125,-0.4707832336425781,-0.07674002647399902,0.022420287132263184
1733231736228151800,0.22115185546875,-0.5709600448608398,-0.04353451728820801,0.060999274253845215
1733231736238161700,0.23116162109375,-0.5447664260864258,-0.02571845054626465,0.23669499158859253
1733231736248171300,0.241171142578125,-0.18584060668945312,-0.03926587104797363,0.4400407075881958
1733231736258150400,0.251150390625,0.4986915588378906,0.03706645965576172,0.7050164341926575
1733231736268160300,0.26116015625,0.8692779541015625,0.029448509216308594,0.6928108930587769
1733231736278169900,0.271169921875,0.8619985580444336,0.08792662620544434,0.47024762630462646
1733231736288149200,0.281149169921875,0.4162559509277344,0.11667609214782715,0.3164691925048828
1733231736298159000,0.2911591796875,-0.1527700424194336,0.1029055118560791,0.052868396043777466
1733231736308169000,0.3011689453125,-0.7843942642211914,0.04764866828918457,-0.23081231117248535
1733231736318148000,0.311148193359375,-1.1134004592895508,0.06775307655334473,-0.2700067162513733
1733231736328158000,0.321157958984375,-0.9219808578491211,0.05294537544250488,-0.04361426830291748
1733231736338167800,0.331167724609375,-0.5408210754394531,0.003625154495239258,0.04496246576309204
1733231736348177400,0.341177490234375,-0.13433265686035156,-0.038820743560791016,0.04671376943588257
1733231736358156500,0.351156494140625,0.18181324005126953,-0.08070993423461914,0.036042213439941406
1733231736368166100,0.361166259765625,0.47380924224853516,-0.038590192794799805,0.08434149622917175
1733231736378176000,0.371176025390625,0.6794290542602539,-0.015871524810791016,0.22067806124687195
1733231736388155400,0.3811552734375,0.8987340927124023,-0.02277517318725586,0.2678467929363251
1733231736398165200,0.391165283203125,0.992344856262207,0.006269216537475586,0.2785407602787018
1733231736408174800,0.4011748046875,0.7715663909912109,0.0039021968841552734,0.15610380470752716
1733231736418154200,0.411154296875,0.3393840789794922,0.007979631423950195,0.0026679635047912598
1733231736428164000,0.4211640625,-0.05923748016357422,0.0027196407318115234,-0.06398248672485352
1733231736438173700,0.431173583984375,-0.4493293762207031,-0.012879610061645508,-0.025253742933273315
1733231736448152800,0.44115283203125,-0.4806051254272461,0.027437686920166016,0.009647250175476074
1733231736458162700,0.45116259765625,-0.4283561706542969,0.10629010200500488,0.15769077837467194
1733231736468172300,0.46117236328125,-0.32790184020996094,0.08869624137878418,0.2365569770336151
1733231736478151700,0.471151611328125,-0.2211151123046875,0.10068225860595703,0.2863925099372864
1733231736488161500,0.48116162109375,-0.2805671691894531,0.10010194778442383,0.25157034397125244
1733231736498171100,0.491171142578125,-0.44879627227783203,0.17553186416625977,0.30157142877578735
1733231736508150500,0.501150634765625,-0.6609210968017578,0.2544090747833252,0.48389366269111633
1733231736518160400,0.511160400390625,-0.8104534149169922,0.265627384185791,0.6159569025039673
1733231736528170000,0.521169921875,-0.96893310546875,0.25526881217956543,0.6140697002410889
1733231736538149000,0.531149169921875,-1.0205106735229492,0.18791532516479492,0.4810120761394501
1733231736548159000,0.541158935546875,-0.9162836074829102,0.1154332160949707,0.3867400586605072
1733231736558168600,0.55116845703125,-0.766510009765625,0.02566051483154297,0.35695865750312805
1733231736568148000,0.56114794921875,-0.37607383728027344,-0.07214021682739258,0.280498743057251
1733231736578157800,0.57115771484375,-0.1935110092163086,-0.14892244338989258,0.2885087728500366
1733231736588167700,0.581167724609375,0.0295562744140625,-0.16990137100219727,0.30620691180229187
1733231736598177300,0.59117724609375,0.038318634033203125,-0.11571788787841797,0.33805716037750244
1733231736608156700,0.60115673828125,-0.1903390884399414,-0.03785991668701172,0.3874688148498535
1733231736618166500,0.61116650390625,-0.2771644592285156,0.0167999267578125,0.32402899861335754
1733231736628176100,0.621176025390625,-0.2759685516357422,0.02016758918762207,0.1949235200881958
1733231736638155300,0.6311552734375,-0.2658853530883789,0.036942481994628906,0.08542934060096741
1733231736648165000,0.6411650390625,-0.1464853286743164,0.027423381805419922,0.10232818126678467
1733231736658175000,0.651175048828125,0.1390542984008789,-0.005980968475341797,0.0918501615524292
1733231736668154000,0.661154052734375,0.40377330780029297,-0.014767885208129883,0.03350156545639038
1733231736678164000,0.6711640625,0.5767974853515625,-0.06649231910705566,0.08764898777008057
1733231736688173600,0.681173583984375,0.4892444610595703,-0.04571819305419922,0.2658502161502838
1733231736698153000,0.691153076171875,0.16573047637939453,0.038713693618774414,0.40873101353645325
1733231736708162800,0.701162841796875,-0.08523273468017578,0.08475446701049805,0.45854777097702026
1733231736718172400,0.71117236328125,-0.20424747467041016,0.12959671020507812,0.5251810550689697
1733231736728151800,0.72115185546875,-0.1079263687133789,0.19150137901306152,0.7898616194725037
1733231736738161700,0.73116162109375,1.1325139999389648,0.6638023853302002,1.7617266178131104
1733231736748171300,0.741171142578125,-0.47271728515625,0.18021440505981445,0.5330346822738647
1733231736758150400,0.751150390625,-0.37381744384765625,0.40912461280822754,0.14216193556785583
1733231736768160300,0.76116015625,-0.1963205337524414,0.5337502956390381,0.6315069198608398
1733231736778169900,0.771169921875,-0.33747196197509766,0.4237101078033447,0.849975049495697
1733231736788149200,0.781149169921875,-0.5952606201171875,0.38863158226013184,0.4938387870788574
1733231736798159000,0.7911591796875,-0.4072303771972656,0.3937537670135498,0.5752259492874146
1733231736808169000,0.8011689453125,-0.0878915786743164,0.3817155361175537,0.8042846918106079
1733231736818148000,0.811148193359375,0.10187721252441406,0.3442199230194092,0.6501139402389526
1733231736828158000,0.821157958984375,0.004467964172363281,0.37713027000427246,0.23925957083702087
1733231736838167800,0.831167724609375,-0.2719860076904297,0.41153717041015625,-0.1567806899547577
1733231736848177400,0.841177490234375,-0.6031427383422852,0.45482420921325684,-0.591476321220398
1733231736858156500,0.851156494140625,-0.8262119293212891,0.5123212337493896,-0.9698009490966797
1733231736868166100,0.861166259765625,-1.0822486877441406,0.5553224086761475,-1.3165000677108765
1733231736878176000,0.871176025390625,-1.3690767288208008,0.5526626110076904,-1.647742748260498
1733231736888155400,0.8811552734375,-1.4763813018798828,0.6328029632568359,-1.8419114351272583
1733231736898165200,0.891165283203125,-1.2371225357055664,0.7329318523406982,-1.7159415483474731
1733231736908174800,0.9011748046875,-0.8792505264282227,0.7442550659179688,-1.4003702402114868
1733231736918154200,0.911154296875,-0.3788938522338867,0.6498878002166748,-1.0122840404510498
1733231736928164000,0.9211640625,0.16822147369384766,0.5979874134063721,-0.7638309001922607
1733231736938173700,0.931173583984375,1.052596092224121,0.4437098503112793,-0.6337084770202637
1733231736948152800,0.94115283203125,1.9926280975341797,0.3042120933532715,-0.7030432820320129
1733231736958162700,0.95116259765625,2.588160514831543,0.050125837326049805,-1.0205578804016113
1733231736968172300,0.96117236328125,2.505650520324707,-0.08326053619384766,-1.547143816947937
1733231736978151700,0.971151611328125,1.9328031539916992,-0.0598912239074707,-1.9592735767364502
1733231736988161500,0.98116162109375,0.9391908645629883,0.01126551628112793,-2.1867752075195312
1733231736998171100,0.991171142578125,0.024654388427734375,0.1464219093322754,-2.2066292762756348
1733231737008150500,1.001150634765625,-0.7401885986328125,0.3069953918457031,-2.0043771266937256
1733231737018160400,1.011160400390625,-1.1706295013427734,0.49785470962524414,-1.7204387187957764
1733231737028170000,1.021169921875,-1.4444026947021484,0.6669459342956543,-1.5804660320281982
1733231737038149000,1.031149169921875,-1.3474645614624023,0.7530026435852051,-1.5793631076812744
1733231737048159000,1.041158935546875,-1.1148462295532227,0.7424578666687012,-1.5351635217666626
1733231737058168600,1.05116845703125,-0.7077102661132812,0.661989688873291,-1.559544324874878
1733231737068148000,1.06114794921875,-0.34112548828125,0.5936036109924316,-1.6647158861160278
1733231737078157800,1.07115771484375,-0.3667612075805664,0.4640977382659912,-1.695297360420227
1733231737088167400,1.08116748046875,-0.5609931945800781,0.3821697235107422,-1.7242306470870972
1733231737098177300,1.09117724609375,-0.6687803268432617,0.35681986808776855,-1.7169089317321777
1733231737108156700,1.10115673828125,-0.6574440002441406,0.3529088497161865,-1.6509298086166382
1733231737118166500,1.11116650390625,-0.4843435287475586,0.3457787036895752,-1.478775978088379
1733231737128176000,1.121176025390625,-0.020333290100097656,0.4220089912414551,-1.1895898580551147
1733231737138155500,1.131155517578125,0.3110485076904297,0.4943723678588867,-0.9638772010803223
1733231737148165000,1.1411650390625,0.3763875961303711,0.5125527381896973,-1.1594059467315674
1733231737158175000,1.151175048828125,0.17161846160888672,0.4978291988372803,-1.4144442081451416
1733231737168154000,1.161154052734375,-0.09453964233398438,0.5300922393798828,-1.5745646953582764
1733231737178164000,1.1711640625,-0.2864227294921875,0.5885839462280273,-1.6820029020309448
1733231737188173600,1.181173583984375,-0.3016939163208008,0.6444907188415527,-1.7217389345169067
1733231737198153000,1.191153076171875,-0.045108795166015625,0.7021541595458984,-1.7058240175247192
1733231737208162800,1.201162841796875,0.39949893951416016,0.7760510444641113,-1.7149417400360107
1733231737218172400,1.21117236328125,0.6734075546264648,0.7832112312316895,-1.6490533351898193
1733231737228151800,1.22115185546875,0.9626359939575195,0.7021899223327637,-1.2655389308929443
1733231737238161700,1.23116162109375,0.882441520690918,0.6385078430175781,-1.1222987174987793
1733231737248171300,1.241171142578125,0.6207714080810547,0.61977219581604,-1.1417481899261475
1733231737258150400,1.251150390625,0.2964916229248047,0.6146464347839355,-1.0985440015792847
1733231737268160300,1.26116015625,0.049666404724121094,0.6325845718383789,-0.9431241750717163
1733231737278169900,1.271169921875,0.08095932006835938,0.6188249588012695,-0.7720715999603271
1733231737288149200,1.281149169921875,0.25800037384033203,0.6726040840148926,-0.6709407567977905
1733231737298159000,1.2911591796875,0.48439598083496094,0.7191658020019531,-0.5078119039535522
1733231737308169000,1.3011689453125,0.6398496627807617,0.682570219039917,-0.2351287603378296
1733231737318148000,1.311148193359375,0.7632532119750977,0.7119746208190918,-0.014170169830322266
1733231737328158000,1.321157958984375,1.0778684616088867,0.7661802768707275,0.2495226263999939
1733231737338167800,1.331167724609375,1.325362205505371,0.7117135524749756,0.36240237951278687
1733231737348177400,1.341177490234375,1.521341323852539,0.6738433837890625,0.253048300743103
1733231737358156500,1.351156494140625,1.365220069885254,0.6919777393341064,0.1256505846977234
1733231737368166100,1.361166259765625,0.8287544250488281,0.6856210231781006,0.05925869941711426
1733231737378176000,1.371176025390625,0.13916492462158203,0.6793015003204346,0.07761448621749878
1733231737388155400,1.3811552734375,-0.2773561477661133,0.6750965118408203,0.2228352427482605
1733231737398165200,1.391165283203125,-0.23510265350341797,0.6942610740661621,0.3348250389099121
1733231737408174800,1.4011748046875,0.3310880661010742,0.6473355293273926,0.4138106107711792
1733231737418154200,1.411154296875,0.9394512176513672,0.4962959289550781,0.4083467721939087
1733231737428164000,1.4211640625,1.4332294464111328,0.44556760787963867,0.3912862539291382
1733231737438173700,1.431173583984375,1.6776962280273438,0.4689149856567383,0.27890849113464355
1733231737448152800,1.44115283203125,1.5328683853149414,0.4769101142883301,0.2201135754585266
1733231737458162700,1.45116259765625,1.089193344116211,0.4319643974304199,0.23741471767425537
1733231737468172300,1.46117236328125,0.6012649536132812,0.2553575038909912,0.6689236164093018
1733231737478151700,1.471151611328125,0.2599000930786133,-0.07949304580688477,1.110072374343872
1733231737488161500,1.48116162109375,0.5545129776000977,-0.3901505470275879,1.3902133703231812
1733231737498171100,1.491171142578125,1.5430364608764648,-0.7207632064819336,1.5468405485153198
1733231737508150500,1.501150634765625,2.87851619720459,-1.290543556213379,1.3861002922058105
1733231737518160400,1.511160400390625,3.9552907943725586,-1.6949374675750732,0.9903809428215027
1733231737528170000,1.521169921875,4.818120002746582,-1.989569067955017,0.4786018133163452
1733231737538149000,1.531149169921875,5.062941551208496,-2.1721205711364746,0.1031416654586792
1733231737548159000,1.541158935546875,4.687673568725586,-2.2165911197662354,-0.021883785724639893
1733231737558168600,1.55116845703125,3.773247718811035,-2.0710840225219727,0.03944510221481323
1733231737568148000,1.56114794921875,2.665299415588379,-1.8601843118667603,0.2674815356731415
1733231737578157800,1.57115771484375,1.4640512466430664,-1.592805027961731,0.7111921310424805
1733231737588167400,1.58116748046875,0.5157012939453125,-1.429003119468689,1.159088373184204
1733231737598177300,1.59117724609375,-0.5044193267822266,-1.2290613651275635,1.6576616764068604
1733231737608156700,1.60115673828125,-1.221506118774414,-1.18717360496521,2.057586193084717
1733231737618166500,1.61116650390625,-1.7237143516540527,-1.269094467163086,2.2868547439575195
1733231737628176100,1.621176025390625,-2.0464954376220703,-1.444406509399414,2.3748364448547363
1733231737638155500,1.631155517578125,-1.9563469886779785,-1.6189473867416382,2.4552342891693115
1733231737648165000,1.6411650390625,-1.4469833374023438,-1.800464153289795,2.591712474822998
1733231737658175000,1.651175048828125,-0.9284639358520508,-1.9118901491165161,2.6955251693725586
1733231737668154000,1.661154052734375,-0.5493125915527344,-1.99862539768219,2.8052055835723877
1733231737678164000,1.6711640625,-0.3862495422363281,-2.014957904815674,2.9761648178100586
1733231737688173600,1.681173583984375,-0.22217178344726562,-2.0039238929748535,3.1227266788482666
1733231737698153000,1.691153076171875,0.10734272003173828,-2.067066192626953,3.1973323822021484
1733231737708162800,1.701162841796875,0.41789913177490234,-2.116000175476074,3.1364941596984863
1733231737718172400,1.71117236328125,0.4087533950805664,-2.195833206176758,2.733022928237915
1733231737728151800,1.72115185546875,0.23728561401367188,-2.1874642372131348,2.0882222652435303
1733231737738161700,1.73116162109375,-0.000030517578125,-2.1899328231811523,1.5219736099243164
1733231737748171300,1.741171142578125,-0.5001182556152344,-2.1364166736602783,1.1072959899902344
1733231737758150400,1.751150390625,-0.6114635467529297,-2.0039377212524414,0.9783192276954651
1733231737768160300,1.76116015625,-0.5571737289428711,-1.8459548950195312,1.033878207206726
1733231737778169900,1.771169921875,-0.5642204284667969,-1.5847537517547607,1.3543775081634521
1733231737788149200,1.781149169921875,-0.7709112167358398,-1.294461965560913,1.7084908485412598
1733231737798159000,1.7911591796875,-1.3017711639404297,-0.985945463180542,2.2779223918914795
1733231737808169000,1.8011689453125,-1.751049518585205,-0.7218849658966064,2.541419744491577
1733231737818148000,1.811148193359375,-1.754267692565918,-0.5109248161315918,2.583706855773926
1733231737828158000,1.821157958984375,-1.128650188446045,-0.5182499885559082,2.470402240753174
1733231737838167800,1.831167724609375,-0.5444355010986328,-0.7192299365997314,1.8740180730819702
1733231737848177400,1.841177490234375,-0.3292531967163086,-0.8291163444519043,1.2848091125488281
1733231737858156500,1.851156494140625,-0.30425071716308594,-0.9518413543701172,0.8350549340248108
1733231737868166100,1.861166259765625,-0.6477985382080078,-0.945457935333252,0.7254741191864014
1733231737878176000,1.871176025390625,-0.99835205078125,-0.8428418636322021,0.7140241265296936
1733231737888155400,1.8811552734375,-1.239865779876709,-0.7242293357849121,0.8588255047798157
1733231737898165200,1.891165283203125,-1.250483512878418,-0.6279213428497314,1.06001615524292
1733231737908174800,1.9011748046875,-0.9903583526611328,-0.5295212268829346,1.3214932680130005
1733231737918154200,1.911154296875,-0.8208713531494141,-0.4036712646484375,1.5166645050048828
1733231737928164000,1.9211640625,-0.5240116119384766,-0.29985642433166504,1.505388855934143
1733231737938173700,1.931173583984375,-0.26509571075439453,-0.2502613067626953,1.236093521118164
1733231737948152800,1.94115283203125,0.2525806427001953,-0.2725803852081299,0.9398255348205566
1733231737958162700,1.95116259765625,0.6710042953491211,-0.3188514709472656,0.687886118888855
1733231737968172300,1.96117236328125,0.9224128723144531,-0.324876070022583,0.31707537174224854
1733231737978151700,1.971151611328125,0.8675785064697266,-0.29224300384521484,0.05399930477142334
1733231737988161500,1.98116162109375,0.5823049545288086,-0.23339414596557617,0.16644251346588135
1733231737998171100,1.991171142578125,0.2098531723022461,-0.09245991706848145,0.440667986869812
1733231738008150500,2.001150634765625,0.009543418884277344,0.08844184875488281,0.6821244359016418
1733231738018160400,2.011160400390625,-0.0927114486694336,0.22524666786193848,0.9728168249130249
1733231738028170000,2.021169921875,-0.07387161254882812,0.3724100589752197,1.1052464246749878
1733231738038149000,2.031149169921875,0.29068946838378906,0.45884251594543457,1.219689965248108
1733231738048159000,2.041158935546875,0.8829765319824219,0.4688127040863037,1.2829957008361816
1733231738058168800,2.0511689453125,1.477020263671875,0.43073010444641113,1.0396782159805298
1733231738068148000,2.06114794921875,1.7514734268188477,0.36679840087890625,0.8246209621429443
1733231738078157800,2.07115771484375,1.7800664901733398,0.2767791748046875,0.7980810403823853
1733231738088167400,2.08116748046875,1.8363008499145508,0.26895833015441895,0.9176855087280273
1733231738098177300,2.09117724609375,1.7562055587768555,0.223419189453125,1.2540029287338257
1733231738108156700,2.10115673828125,1.4364604949951172,0.09636902809143066,1.6327837705612183
1733231738118166500,2.11116650390625,0.9880714416503906,0.021326541900634766,1.7465732097625732
1733231738128176000,2.121176025390625,0.36356163024902344,-0.1866896152496338,1.4374586343765259
1733231738138155500,2.131155517578125,-0.2461566925048828,-0.28891563415527344,0.7439016103744507
1733231738148165000,2.1411650390625,-0.809208869934082,-0.36208677291870117,-0.03826904296875
1733231738158175000,2.151175048828125,-1.07387113571167,-0.31297969818115234,-0.5885761976242065
1733231738168154000,2.161154052734375,-0.8217897415161133,-0.2826676368713379,-0.849374532699585
1733231738178164000,2.1711640625,-0.28745174407958984,-0.3528909683227539,-0.6117812395095825
1733231738188173600,2.181173583984375,0.3702068328857422,-0.4012882709503174,0.082122802734375
1733231738198153000,2.191153076171875,0.38677120208740234,-0.1210782527923584,2.0804359912872314
1733231738208162800,2.201162841796875,1.7350244522094727,-0.35334157943725586,1.7394533157348633
1733231738218172400,2.21117236328125,2.65450382232666,-1.0899817943572998,1.199098825454712
1733231738228151800,2.22115185546875,3.1498727798461914,-1.692745566368103,-0.34876465797424316
1733231738238161700,2.23116162109375,3.678593635559082,-2.2865023612976074,-0.5547237396240234
1733231738248171300,2.241171142578125,3.705904006958008,-2.367359161376953,-0.2591909170150757
1733231738258150400,2.251150390625,3.393803596496582,-2.199521064758301,0.15424251556396484
1733231738268160300,2.26116015625,2.9193782806396484,-2.0437917709350586,0.5388069152832031
1733231738278169900,2.271169921875,2.4100685119628906,-1.7072283029556274,0.6386556029319763
1733231738288149200,2.281149169921875,1.8818731307983398,-1.5866847038269043,0.602700412273407
1733231738298159000,2.2911591796875,1.3145570755004883,-1.5416005849838257,0.6332229971885681
1733231738308169000,2.3011689453125,0.7632369995117188,-1.4624284505844116,0.570865273475647
1733231738318148000,2.311148193359375,-0.055118560791015625,-1.5310384035110474,0.48372185230255127
1733231738328158000,2.321157958984375,-0.5401401519775391,-1.6988074779510498,0.3096258044242859
1733231738338167800,2.331167724609375,-0.4425992965698242,-1.7614918947219849,0.16024065017700195
1733231738348177400,2.341177490234375,0.10885238647460938,-1.9919401407241821,0.2776344418525696
1733231738358156500,2.351156494140625,0.22022533416748047,-1.5457961559295654,0.14610260725021362
1733231738368166100,2.361166259765625,-0.038390159606933594,-1.0541675090789795,0.08411413431167603
1733231738378176000,2.371176025390625,-0.2250223159790039,-1.0746166706085205,0.14442557096481323
1733231738388155400,2.3811552734375,-0.5163965225219727,-1.0898993015289307,0.14984112977981567
1733231738398165200,2.391165283203125,-0.6276226043701172,-0.9956847429275513,0.12362885475158691
1733231738408174800,2.4011748046875,-0.7892932891845703,-0.8977041244506836,0.19483768939971924
1733231738418154200,2.411154296875,-1.0733146667480469,-0.7050704956054688,0.2749936580657959
1733231738428164000,2.4211640625,-1.4388141632080078,-0.5011272430419922,0.2492457628250122
1733231738438173700,2.431173583984375,-1.5273170471191406,-0.37692761421203613,0.08988648653030396
1733231738448152800,2.44115283203125,-1.4542818069458008,-0.352738618850708,0.032872557640075684
1733231738458162700,2.45116259765625,-1.2654037475585938,-0.3524441719055176,-0.02120751142501831
1733231738468172300,2.46117236328125,-1.0464544296264648,-0.27511072158813477,-0.032812416553497314
1733231738478151700,2.471151611328125,-0.8331403732299805,-0.2256789207458496,-0.04932636022567749
1733231738488161500,2.48116162109375,-0.7284221649169922,-0.23497772216796875,-0.05716550350189209
1733231738498171100,2.491171142578125,-0.6620044708251953,-0.17392826080322266,-0.26725780963897705
1733231738508150500,2.501150634765625,-0.6743192672729492,-0.1051630973815918,-0.43578094244003296
1733231738518160400,2.511160400390625,-0.8083009719848633,-0.024253368377685547,-0.4735145568847656
1733231738528170000,2.521169921875,-0.7616510391235352,0.05787515640258789,-0.48720037937164307
1733231738538149000,2.531149169921875,-0.6317281723022461,0.11406612396240234,-0.5564774870872498
1733231738548159000,2.541158935546875,-0.4332904815673828,0.1836409568786621,-0.5047874450683594
1733231738558168800,2.5511689453125,-0.30847930908203125,0.32171130180358887,-0.243269681930542
1733231738568148000,2.56114794921875,-0.2775382995605469,0.45702099800109863,0.1182088851928711
1733231738578157800,2.57115771484375,-0.3758516311645508,0.4655733108520508,0.3139127790927887
1733231738588167400,2.58116748046875,-0.4282245635986328,0.5440294742584229,0.35763898491859436
1733231738598177300,2.59117724609375,-0.7687215805053711,0.5278315544128418,0.33137744665145874
1733231738608156700,2.60115673828125,-1.0744295120239258,0.5720751285552979,0.18921810388565063
1733231738618166500,2.61116650390625,-1.319101333618164,0.5595932006835938,-0.05112433433532715
1733231738628176100,2.621176025390625,-1.4345483779907227,0.5075697898864746,-0.2502012848854065
1733231738638155500,2.631155517578125,-1.4163808822631836,0.49362874031066895,-0.24462908506393433
1733231738648165000,2.6411650390625,-1.2740449905395508,0.5490660667419434,-0.15366798639297485
1733231738658175000,2.651175048828125,-1.148916244506836,0.6138410568237305,0.03172934055328369
1733231738668154000,2.661154052734375,-1.078171730041504,0.6200480461120605,0.1360994577407837
1733231738678164000,2.6711640625,-0.9320602416992188,0.6483402252197266,0.10312169790267944
1733231738688173600,2.681173583984375,-0.6583290100097656,0.7104401588439941,0.12765371799468994
1733231738698153000,2.691153076171875,-0.5972118377685547,0.7409563064575195,0.15019094944000244
1733231738708162800,2.701162841796875,-0.642085075378418,0.7281460762023926,0.05784565210342407
1733231738718172400,2.71117236328125,-0.637843132019043,0.7477152347564697,-0.055045485496520996
1733231738728151800,2.72115185546875,-0.4873466491699219,0.739952564239502,-0.11813724040985107
1733231738738161700,2.73116162109375,-0.3128185272216797,0.7484333515167236,-0.05413764715194702
1733231738748171300,2.741171142578125,0.044078826904296875,0.7578237056732178,0.05719006061553955
1733231738758150400,2.751150390625,0.6000823974609375,0.6771101951599121,0.14318892359733582
1733231738768160300,2.76116015625,1.0208988189697266,0.6062064170837402,0.2786763310432434
1733231738778169900,2.771169921875,1.122237205505371,0.5937612056732178,0.23471322655677795
1733231738788149200,2.781149169921875,0.9531307220458984,0.5504376888275146,0.21204665303230286
1733231738798159000,2.7911591796875,0.8915529251098633,0.5125997066497803,0.24692827463150024
1733231738808169000,2.8011689453125,0.8912525177001953,0.4148111343383789,0.39446282386779785
1733231738818148000,2.811148193359375,0.9875326156616211,0.29442310333251953,0.4837341606616974
1733231738828158000,2.821157958984375,1.6395368576049805,0.2819821834564209,0.6118375658988953
1733231738838167800,2.831167724609375,2.202855110168457,0.12451410293579102,0.9041182398796082
1733231738848177400,2.841177490234375,2.700359344482422,-0.001798868179321289,1.122660756111145
1733231738858156500,2.851156494140625,3.0141000747680664,0.028322458267211914,1.2824203968048096
1733231738868166100,2.861166259765625,3.0086889266967773,0.18145084381103516,1.5450592041015625
1733231738878176000,2.871176025390625,2.603713035583496,0.22555255889892578,1.888206124305725
1733231738888155400,2.8811552734375,1.7922582626342773,0.23915696144104004,2.1068549156188965
1733231738898165200,2.891165283203125,0.7339973449707031,0.15225863456726074,2.383260488510132
1733231738908174800,2.9011748046875,-0.0916604995727539,-0.29421424865722656,2.5218899250030518
1733231738918154200,2.911154296875,-0.5175151824951172,-1.20878005027771,2.660076141357422
1733231738928164000,2.9211640625,-0.3433084487915039,-2.0436177253723145,2.2460830211639404
1733231738938173700,2.931173583984375,1.3700170516967773,-2.5059213638305664,1.7978730201721191
1733231738948152800,2.94115283203125,3.2824954986572266,-2.7886807918548584,1.5003678798675537
1733231738958162700,2.95116259765625,5.070621490478516,-2.9038689136505127,1.2522786855697632
1733231738968172300,2.96117236328125,5.611579895019531,-2.5967812538146973,1.2239972352981567
1733231738978151700,2.971151611328125,4.802360534667969,-2.0320348739624023,1.3372896909713745
1733231738988161500,2.98116162109375,3.126924514770508,-1.5103774070739746,1.2367656230926514
1733231738998171100,2.991171142578125,0.9068803787231445,-1.0993432998657227,1.1645902395248413
1733231739008150500,3.001150634765625,-1.0566577911376953,-0.9261388778686523,1.0391989946365356
1733231739018160400,3.011160400390625,-2.346999168395996,-0.7762503623962402,0.61663419008255
1733231739028170000,3.021169921875,-3.1897988319396973,-0.7583999633789062,0.250789999961853
1733231739038149000,3.031149169921875,-3.346208095550537,-0.9808199405670166,0.05680011212825775
1733231739048159000,3.041158935546875,-3.1250925064086914,-1.1372435092926025,0.21371275186538696
1733231739058168800,3.0511689453125,-2.6140952110290527,-1.2202322483062744,0.80135577917099
1733231739068148000,3.06114794921875,-1.656545639038086,-1.4018938541412354,1.3311831951141357
1733231739078157800,3.07115771484375,-0.5085611343383789,-1.6231114864349365,1.602136492729187
1733231739088167400,3.08116748046875,0.880314826965332,-1.7848517894744873,1.7763006687164307
1733231739098177300,3.09117724609375,1.8160924911499023,-1.8797365427017212,1.792515754699707
1733231739108156700,3.10115673828125,2.287281036376953,-1.8723825216293335,1.7142226696014404
1733231739118166500,3.11116650390625,2.05462646484375,-1.8181065320968628,1.5819005966186523
1733231739128176000,3.121176025390625,1.3116827011108398,-1.697744369506836,1.4792248010635376
1733231739138155500,3.131155517578125,0.17860889434814453,-1.458122730255127,1.4181983470916748
1733231739148165000,3.1411650390625,-0.6549539566040039,-1.3012537956237793,1.4382370710372925
1733231739158175000,3.151175048828125,-1.4517078399658203,-1.1124036312103271,1.4472646713256836
1733231739168154000,3.161154052734375,-1.7870888710021973,-1.004392147064209,1.4634075164794922
1733231739178164000,3.1711640625,-1.896916389465332,-0.8975381851196289,1.4687609672546387
1733231739188173600,3.181173583984375,-1.8295421600341797,-0.8843872547149658,1.4045813083648682
1733231739198153000,3.191153076171875,-1.6470484733581543,-0.8412327766418457,1.4681521654129028
1733231739208162800,3.201162841796875,-1.3130927085876465,-0.8220503330230713,1.6143276691436768
1733231739218172400,3.21117236328125,-1.006699562072754,-0.8260335922241211,1.6635932922363281
1733231739228151800,3.22115185546875,-0.7221059799194336,-0.8509519100189209,1.6033480167388916
1733231739238161700,3.23116162109375,-0.6378688812255859,-0.8275394439697266,1.7252888679504395
1733231739248171300,3.241171142578125,-0.6770009994506836,-0.7690458297729492,1.8555142879486084
1733231739258150400,3.251150390625,-0.7702884674072266,-0.6823382377624512,2.0497641563415527
1733231739268160300,3.26116015625,-1.032801628112793,-0.617283821105957,2.159769296646118
1733231739278169900,3.271169921875,-1.1872692108154297,-0.5245094299316406,2.1510581970214844
1733231739288149200,3.281149169921875,-1.2775688171386719,-0.42075514793395996,2.1519765853881836
1733231739298159000,3.2911591796875,-1.1567268371582031,-0.3590075969696045,2.109833002090454
1733231739308169000,3.3011689453125,-0.7741527557373047,-0.3112194538116455,1.987166404724121
1733231739318148000,3.311148193359375,-0.40944957733154297,-0.2187793254852295,1.8508262634277344
1733231739328158000,3.321157958984375,-0.053722381591796875,-0.06048846244812012,1.6974761486053467
1733231739338167800,3.331167724609375,0.3357248306274414,0.07149195671081543,1.4111441373825073
1733231739348177400,3.341177490234375,0.5011539459228516,0.22635602951049805,1.336851954460144
1733231739358156500,3.351156494140625,0.5017080307006836,0.37864232063293457,1.2959396839141846
1733231739368166100,3.361166259765625,0.19829177856445312,0.4720120429992676,1.087491750717163
1733231739378176000,3.371176025390625,-0.10074901580810547,0.5966591835021973,0.8725171685218811
1733231739388155400,3.3811552734375,-0.1542339324951172,0.6649529933929443,0.6905930638313293
1733231739398165200,3.391165283203125,-0.09766769409179688,0.6738438606262207,0.43270158767700195
1733231739408174800,3.4011748046875,0.2811307907104492,0.6473841667175293,0.3619910478591919
1733231739418154200,3.411154296875,0.9382991790771484,0.666602611541748,0.42703548073768616
1733231739428164000,3.4211640625,1.5210809707641602,0.5623080730438232,0.23306933045387268
1733231739438173700,3.431173583984375,1.9052667617797852,0.5159404277801514,0.2059956043958664
1733231739448152800,3.44115283203125,2.159770965576172,0.534806489944458,0.22331833839416504
1733231739458162700,3.45116259765625,2.1477184295654297,0.4937775135040283,0.33378857374191284
1733231739468172300,3.46117236328125,1.92034912109375,0.3935854434967041,0.2988516092300415
1733231739478151700,3.471151611328125,1.7528066635131836,0.33054661750793457,0.06258152425289154
1733231739488161500,3.48116162109375,1.5821399688720703,0.34979748725891113,-0.2798891067504883
1733231739498171100,3.491171142578125,1.2327556610107422,0.3745434284210205,-0.5275723934173584
1733231739508150500,3.501150634765625,0.5967416763305664,0.33098793029785156,-0.8635193109512329
1733231739518160400,3.511160400390625,-0.02844524383544922,0.2139911651611328,-1.1800874471664429
1733231739528170000,3.521169921875,-0.6084737777709961,-0.25278496742248535,-1.3019872903823853
1733231739538149000,3.531149169921875,-1.0972833633422852,-0.8375554084777832,-1.3207789659500122
1733231739548159000,3.541158935546875,-0.6818532943725586,-1.496208906173706,-1.181673288345337
1733231739558168800,3.5511689453125,1.3360061645507812,-2.0412850379943848,-1.1607238054275513
1733231739568148000,3.56114794921875,3.713099479675293,-2.6634716987609863,-0.9119595289230347
1733231739578157800,3.57115771484375,5.952775001525879,-2.978343963623047,-0.8238220810890198
1733231739588167400,3.58116748046875,7.007460594177246,-2.919095993041992,-0.8529441356658936
1733231739598177300,3.59117724609375,6.7702836990356445,-2.692269802093506,-0.7960967421531677
1733231739608156700,3.60115673828125,5.308965682983398,-2.255443572998047,-0.7764168977737427
1733231739618166500,3.61116650390625,2.905289649963379,-1.8364710807800293,-1.1948484182357788
1733231739628176100,3.621176025390625,0.6759748458862305,-1.7464202642440796,-1.6039077043533325
1733231739638155500,3.631155517578125,-1.336331844329834,-1.6674151420593262,-2.0324835777282715
1733231739648165000,3.6411650390625,-2.498260974884033,-1.603885293006897,-2.3583450317382812
1733231739658175000,3.651175048828125,-3.0408005714416504,-1.6834242343902588,-2.4699621200561523
1733231739668154000,3.661154052734375,-2.8732800483703613,-1.7674700021743774,-2.312168836593628
1733231739678164000,3.6711640625,-2.1320223808288574,-1.8258692026138306,-1.7269060611724854
1733231739688173600,3.681173583984375,-1.1472892761230469,-1.7999638319015503,-1.0799816846847534
1733231739698153000,3.691153076171875,-0.5101308822631836,-1.8638114929199219,-0.6648033857345581
1733231739708162800,3.701162841796875,0.07151126861572266,-1.8105970621109009,-0.21614275872707367
1733231739718172400,3.71117236328125,0.26390647888183594,-1.7638963460922241,0.04037073254585266
1733231739728151800,3.72115185546875,0.17083740234375,-1.750928282737732,0.11621260643005371
1733231739738161700,3.73116162109375,-0.06045246124267578,-1.5955092906951904,0.0005560219287872314
1733231739748171300,3.741171142578125,-0.4431619644165039,-1.4213658571243286,-0.18691490590572357
1733231739758150400,3.751150390625,-0.7983503341674805,-1.3466136455535889,-0.3587779402732849
1733231739768160300,3.76116015625,-0.8780088424682617,-1.275075912475586,-0.44813787937164307
1733231739778169900,3.771169921875,-0.7192592620849609,-1.241593837738037,-0.40921473503112793
1733231739788149200,3.781149169921875,-0.6476802825927734,-1.2485675811767578,-0.3872206211090088
1733231739798159000,3.7911591796875,-0.5908336639404297,-1.3000693321228027,-0.39702364802360535
1733231739808169000,3.8011689453125,-0.5527114868164062,-1.2379586696624756,-0.452265202999115
1733231739818148000,3.811148193359375,-0.5089111328125,-1.180750846862793,-0.5528348088264465
1733231739828158000,3.821157958984375,-0.6893653869628906,-1.094212532043457,-0.6197720766067505
1733231739838167800,3.831167724609375,-1.0364389419555664,-0.9353463649749756,-0.6347067952156067
1733231739848177400,3.841177490234375,-1.3852033615112305,-0.8871409893035889,-0.5892720222473145
1733231739858156500,3.851156494140625,-1.7500643730163574,-0.8239550590515137,-0.6260271668434143
1733231739868166400,3.86116650390625,-1.9165058135986328,-0.7549276351928711,-0.7433128356933594
1733231739878176000,3.871176025390625,-1.8567476272583008,-0.7538824081420898,-0.8727110624313354
1733231739888155400,3.8811552734375,-1.5009660720825195,-0.786144495010376,-0.857133686542511
1733231739898165200,3.891165283203125,-1.0372180938720703,-0.7639429569244385,-0.8594467639923096
1733231739908174800,3.9011748046875,-0.6158571243286133,-0.7364938259124756,-0.9572827816009521
1733231739918154200,3.911154296875,-0.34623241424560547,-0.6942977905273438,-1.0840888023376465
1733231739928164000,3.9211640625,-0.1630535125732422,-0.5772294998168945,-1.1364747285842896
1733231739938173700,3.931173583984375,-0.10436439514160156,-0.46536755561828613,-1.1861211061477661
1733231739948152800,3.94115283203125,-0.11245441436767578,-0.3427584171295166,-1.1518709659576416
1733231739958162700,3.95116259765625,-0.1078948974609375,-0.1771559715270996,-1.096435308456421
1733231739968172300,3.96117236328125,-0.11940765380859375,0.005350828170776367,-1.0977262258529663
1733231739978151700,3.971151611328125,-0.23994922637939453,0.10309863090515137,-1.1840800046920776
1733231739988161500,3.98116162109375,-0.4309520721435547,0.2447042465209961,-1.402944564819336
1733231739998171100,3.991171142578125,-0.5321426391601562,0.4187338352203369,-1.4209482669830322
1733231740008150500,4.001150634765625,-0.6077365875244141,0.5014019012451172,-1.0140999555587769
1733231740018160400,4.011160400390625,-0.5404806137084961,0.5652010440826416,-0.7323434352874756
1733231740028170000,4.021169921875,-0.3508758544921875,0.6237986087799072,-0.47467005252838135
1733231740038149000,4.031149169921875,-0.10141181945800781,0.618640661239624,-0.18575799465179443
1733231740048159000,4.041158935546875,0.09742546081542969,0.5603475570678711,0.0009297728538513184
1733231740058168800,4.0511689453125,0.3351097106933594,0.5290670394897461,0.06725627183914185
1733231740068148000,4.06114794921875,0.6715288162231445,0.48848986625671387,0.12669533491134644
1733231740078157800,4.07115771484375,1.1290855407714844,0.5191495418548584,0.21158570051193237
1733231740088167400,4.08116748046875,1.4777889251708984,0.5124709606170654,0.28203022480010986
1733231740098177300,4.09117724609375,1.7411956787109375,0.5150473117828369,0.34972667694091797
1733231740108156700,4.10115673828125,1.8769149780273438,0.5255041122436523,0.33851358294487
1733231740118166500,4.11116650390625,1.891951560974121,0.44156575202941895,0.41217753291130066
1733231740128176000,4.121176025390625,1.8533639907836914,0.2845923900604248,0.5605067014694214
1733231740138155500,4.131155517578125,1.7631616592407227,0.1536102294921875,0.7156266570091248
1733231740148165000,4.1411650390625,1.9178094863891602,-0.05111861228942871,0.9958261847496033
1733231740158175000,4.151175048828125,2.0988998413085938,-0.19904446601867676,1.1224476099014282
1733231740168154000,4.161154052734375,2.3828487396240234,-0.09059453010559082,1.142604947090149
1733231740178164000,4.1711640625,2.473586082458496,-0.01413273811340332,1.294175148010254
1733231740188173600,4.181173583984375,2.165721893310547,-0.05504918098449707,1.4727569818496704
1733231740198153000,4.191153076171875,1.6312503814697266,-0.20303130149841309,1.6720892190933228
1733231740208162800,4.201162841796875,1.0319347381591797,-0.726309061050415,2.072200059890747
1733231740218172400,4.21117236328125,0.7485361099243164,-1.4908556938171387,2.2524914741516113
1733231740228151800,4.22115185546875,1.2754926681518555,-2.247711658477783,2.0384013652801514
1733231740238161700,4.23116162109375,2.779714584350586,-2.793199062347412,2.1050500869750977
1733231740248171300,4.241171142578125,4.254324913024902,-3.1637094020843506,2.1675095558166504
1733231740258150400,4.251150390625,5.661224365234375,-3.0844814777374268,2.341960906982422
1733231740268160300,4.26116015625,5.959096908569336,-2.8998889923095703,2.5518884658813477
1733231740278169900,4.271169921875,4.791916847229004,-2.4401824474334717,2.5920369625091553
1733231740288149200,4.281149169921875,2.7399520874023438,-1.90842866897583,1.9419670104980469
1733231740298159000,4.2911591796875,0.1842184066772461,-1.7172411680221558,1.4118006229400635
1733231740308169000,4.3011689453125,-1.682814598083496,-1.665917158126831,1.075237512588501
1733231740318148000,4.311148193359375,-3.2236738204956055,-1.5708335638046265,0.7964519262313843
1733231740328158000,4.321157958984375,-3.753444194793701,-1.5839179754257202,0.7710697650909424
1733231740338167800,4.331167724609375,-3.3558034896850586,-1.7301757335662842,0.8118636608123779
1733231740348177400,4.341177490234375,-2.205613136291504,-1.7188725471496582,1.160833477973938
1733231740358156500,4.351156494140625,-1.033616065979004,-1.8734580278396606,1.789412260055542
1733231740368166100,4.361166259765625,0.13381385803222656,-2.0714664459228516,2.1560041904449463
1733231740378176000,4.371176025390625,1.0324783325195312,-2.0749151706695557,2.34250545501709
1733231740388155400,4.3811552734375,1.6703453063964844,-1.9759539365768433,2.4062206745147705
1733231740398165200,4.391165283203125,1.7651147842407227,-1.8435282707214355,2.423283100128174
1733231740408174800,4.4011748046875,1.2901926040649414,-1.7782585620880127,2.408625602722168
1733231740418154200,4.411154296875,0.4848337173461914,-1.647934079170227,2.245631217956543
1733231740428164000,4.4211640625,-0.5818185806274414,-1.4727672338485718,1.9085255861282349
1733231740438173700,4.431173583984375,-1.4555916786193848,-1.3079743385314941,1.7302768230438232
1733231740448152800,4.44115283203125,-2.0886454582214355,-1.18056321144104,1.7243001461029053
1733231740458162700,4.45116259765625,-2.2321481704711914,-1.1198692321777344,1.7529206275939941
1733231740468172300,4.46117236328125,-1.9729275703430176,-1.0843806266784668,1.6370351314544678
1733231740478151700,4.471151611328125,-1.4195995330810547,-1.0453829765319824,1.567840814590454
1733231740488161500,4.48116162109375,-1.002206802368164,-1.0440747737884521,1.6489853858947754
1733231740498171100,4.491171142578125,-0.6139726638793945,-1.0511338710784912,1.6999093294143677
1733231740508150500,4.501150634765625,-0.5074930191040039,-1.0338129997253418,1.7356420755386353
1733231740518160400,4.511160400390625,-0.6768655776977539,-0.9949696063995361,1.704495906829834
1733231740528170000,4.521169921875,-1.0017385482788086,-0.9742567539215088,1.6510794162750244
1733231740538149400,4.5311494140625,-1.3413844108581543,-0.9490232467651367,1.6600022315979004
1733231740548159000,4.541158935546875,-1.495948314666748,-0.9523618221282959,1.71220064163208
1733231740558168800,4.5511689453125,-1.5198087692260742,-0.905735969543457,1.7228970527648926
1733231740568148000,4.56114794921875,-1.432992935180664,-0.857506513595581,1.8010947704315186
1733231740578157800,4.57115771484375,-1.1114530563354492,-0.8138887882232666,1.850660800933838
1733231740588167400,4.58116748046875,-0.7157821655273438,-0.7650082111358643,1.8976142406463623
1733231740598177300,4.59117724609375,-0.39388370513916016,-0.6761600971221924,1.8926422595977783
1733231740608156700,4.60115673828125,0.05383777618408203,-0.5585730075836182,1.9146502017974854
1733231740618166500,4.61116650390625,0.41723155975341797,-0.4997875690460205,1.8586598634719849
1733231740628176100,4.621176025390625,0.6340246200561523,-0.3331155776977539,1.3817057609558105
1733231740638155500,4.631155517578125,0.6911525726318359,-0.09631991386413574,0.8584572076797485
1733231740648165000,4.6411650390625,0.7503576278686523,0.14065313339233398,0.3235880434513092
1733231740658175000,4.651175048828125,0.8081045150756836,0.3361241817474365,-0.1509094536304474
1733231740668154000,4.661154052734375,0.8904552459716797,0.44837474822998047,-0.4045829772949219
1733231740678164000,4.6711640625,0.9602813720703125,0.5363390445709229,-0.5333368182182312
1733231740688173600,4.681173583984375,0.9598569869995117,0.5785374641418457,-0.6172574758529663
1733231740698153000,4.691153076171875,0.9801292419433594,0.557788610458374,-0.6875778436660767
1733231740708162800,4.701162841796875,0.9438953399658203,0.4883098602294922,-0.6880398988723755
1733231740718172400,4.71117236328125,1.015397071838379,0.3761005401611328,-0.6574788093566895
1733231740728151800,4.72115185546875,1.1472663879394531,0.2891879081726074,-0.6915205717086792
1733231740738161700,4.73116162109375,1.226963996887207,0.15101361274719238,-0.660529613494873
1733231740748171300,4.741171142578125,1.2694597244262695,0.058147430419921875,-0.681348443031311
1733231740758150400,4.751150390625,1.2624711990356445,-0.0005919933319091797,-0.8175671100616455
1733231740768160300,4.76116015625,1.1621522903442383,-0.01904749870300293,-0.965775728225708
1733231740778169900,4.771169921875,0.8096733093261719,0.13128256797790527,-1.1974575519561768
1733231740788149200,4.781149169921875,0.2328042984008789,0.261005163192749,-1.252379298210144
1733231740798159000,4.7911591796875,-0.5229425430297852,0.3831820487976074,-1.5375474691390991
1733231740808169000,4.8011689453125,-1.2920684814453125,-0.07247519493103027,-1.7079609632492065
1733231740818148000,4.811148193359375,-1.3942198753356934,-0.6882882118225098,-2.0501930713653564
1733231740828158000,4.821157958984375,0.23748207092285156,-1.3584175109863281,-2.524900197982788
1733231740838167800,4.831167724609375,2.88791561126709,-2.039029121398926,-2.062737226486206
1733231740848177400,4.841177490234375,5.674973487854004,-2.401357412338257,-1.7013098001480103
1733231740858156500,4.851156494140625,7.280887603759766,-2.464780330657959,-1.1157863140106201
1733231740868166100,4.861166259765625,7.626858711242676,-2.240919351577759,-0.6461584568023682
1733231740878176000,4.871176025390625,6.488641738891602,-1.9839167594909668,-0.3724343478679657
1733231740888155400,4.8811552734375,4.267125129699707,-1.8498703241348267,-0.7966460585594177
1733231740898165200,4.891165283203125,2.1966171264648438,-1.8640965223312378,-1.4838483333587646
1733231740908174800,4.9011748046875,0.2195730209350586,-1.9407784938812256,-1.8325951099395752
1733231740918154200,4.911154296875,-0.48388004302978516,-1.9052337408065796,-1.9581096172332764
1733231740928164000,4.9211640625,-0.20455360412597656,-2.1072914600372314,-1.7829424142837524
1733231740938173700,4.931173583984375,0.5979623794555664,-2.2626583576202393,-1.4776816368103027
1733231740948152800,4.94115283203125,0.9989738464355469,-2.286263942718506,-0.990576982498169
1733231740958162700,4.95116259765625,0.8479089736938477,-2.165137767791748,-0.4866383671760559
1733231740968172300,4.96117236328125,0.27350521087646484,-2.111589193344116,-0.2928098738193512
1733231740978151700,4.971151611328125,-0.6080417633056641,-1.9745749235153198,-0.3260968029499054
1733231740988161500,4.98116162109375,-1.3269023895263672,-1.7876322269439697,-0.3059060275554657
1733231740998171100,4.991171142578125,-2.182925224304199,-1.634911298751831,-0.33119407296180725
1733231741008150500,5.001150634765625,-2.7270779609680176,-1.5462435483932495,-0.3954433798789978
1733231741018160400,5.011160400390625,-2.9994306564331055,-1.487466812133789,-0.44542357325553894
1733231741028170000,5.021169921875,-2.9243521690368652,-1.4699206352233887,-0.46666210889816284
1733231741038149400,5.0311494140625,-2.734623432159424,-1.5303370952606201,-0.5610654950141907
1733231741048159000,5.041158935546875,-2.3127870559692383,-1.5255513191223145,-0.5781661868095398
1733231741058168800,5.0511689453125,-1.9591312408447266,-1.5014054775238037,-0.6186122298240662
1733231741068148000,5.06114794921875,-1.5641803741455078,-1.4487621784210205,-0.7340217232704163
1733231741078157800,5.07115771484375,-1.086918830871582,-1.409652829170227,-0.7114894390106201
1733231741088167400,5.08116748046875,-0.6945676803588867,-1.394692063331604,-0.7236629724502563
1733231741098177300,5.09117724609375,-0.40299320220947266,-1.355749487876892,-0.7370637059211731
1733231741108156700,5.10115673828125,-0.22615814208984375,-1.281719446182251,-0.7461791634559631
1733231741118166500,5.11116650390625,-0.08962821960449219,-1.2161803245544434,-0.7733787298202515
1733231741128176000,5.121176025390625,0.006604194641113281,-1.2069363594055176,-0.9102283716201782
1733231741138155500,5.131155517578125,0.022348403930664062,-1.171355962753296,-0.981521487236023
1733231741148165000,5.1411650390625,-0.13787364959716797,-1.0552036762237549,-1.0153207778930664
1733231741158175000,5.151175048828125,-0.4828319549560547,-0.9069030284881592,-1.0164237022399902
1733231741168154000,5.161154052734375,-0.8528833389282227,-0.7760739326477051,-1.0292507410049438
1733231741178164000,5.1711640625,-1.2071762084960938,-0.736661434173584,-1.0778961181640625
1733231741188173600,5.181173583984375,-1.4089312553405762,-0.6205179691314697,-1.0707083940505981
1733231741198153000,5.191153076171875,-1.317150592803955,-0.544630765914917,-1.0365490913391113
1733231741208162800,5.201162841796875,-1.1964235305786133,-0.46933937072753906,-0.9874686002731323
1733231741218172400,5.21117236328125,-1.0384893417358398,-0.28302526473999023,-0.9950180053710938
1733231741228151800,5.22115185546875,-0.9052314758300781,-0.16623330116271973,-1.0050987005233765
1733231741238161700,5.23116162109375,-0.6934289932250977,-0.07414627075195312,-1.062032699584961
1733231741248171300,5.241171142578125,-0.36956787109375,0.05509042739868164,-1.1262092590332031
1733231741258150400,5.251150390625,-0.036551475524902344,0.1564321517944336,-1.0562396049499512
1733231741268160300,5.26116015625,0.16749000549316406,0.22054672241210938,-0.9413137435913086
1733231741278169900,5.271169921875,0.18397998809814453,0.2772486209869385,-0.8700656890869141
1733231741288149200,5.281149169921875,0.008278846740722656,0.3117532730102539,-0.6874645352363586
1733231741298159000,5.2911591796875,-0.09632396697998047,0.32674431800842285,-0.659826397895813
1733231741308169000,5.3011689453125,-0.12069988250732422,0.37658023834228516,-0.5651803612709045
1733231741318148000,5.311148193359375,-0.08692073822021484,0.3744959831237793,-0.4110966622829437
1733231741328158000,5.321157958984375,0.11460399627685547,0.3508009910583496,-0.33805546164512634
1733231741338167800,5.331167724609375,0.3614377975463867,0.37580037117004395,-0.3062484860420227
1733231741348177400,5.341177490234375,0.5789365768432617,0.31212377548217773,-0.2609860897064209
1733231741358156500,5.351156494140625,0.8194179534912109,0.28293800354003906,-0.2189948558807373
1733231741368166100,5.361166259765625,1.039896011352539,0.2564542293548584,-0.24742087721824646
1733231741378176000,5.371176025390625,1.3052978515625,0.21498894691467285,-0.17791202664375305
1733231741388155400,5.3811552734375,1.489039421081543,0.24844574928283691,-0.12854842841625214
1733231741398165200,5.391165283203125,1.522348403930664,0.3212428092956543,-0.10148045420646667
1733231741408174800,5.4011748046875,1.3746232986450195,0.4294931888580322,-0.03608764708042145
1733231741418154200,5.411154296875,0.9623880386352539,0.39987611770629883,0.20369762182235718
1733231741428164000,5.4211640625,0.5301752090454102,0.3179941177368164,0.431404173374176
1733231741438173700,5.431173583984375,-0.043044090270996094,-0.02721571922302246,0.7753699421882629
1733231741448152800,5.44115283203125,-0.5289449691772461,-0.6376168727874756,1.1582889556884766
1733231741458162700,5.45116259765625,-0.36200904846191406,-1.2046607732772827,1.1291954517364502
1733231741468172300,5.46117236328125,1.3099250793457031,-1.6010656356811523,1.1145164966583252
1733231741478151700,5.471151611328125,4.161592483520508,-1.952085256576538,1.8897678852081299
1733231741488161500,5.48116162109375,6.555300712585449,-1.985965609550476,1.9620355367660522
1733231741498171100,5.491171142578125,7.536155700683594,-1.8931509256362915,2.0093677043914795
1733231741508150500,5.501150634765625,7.2498884201049805,-1.6719679832458496,2.1772913932800293
1733231741518160400,5.511160400390625,5.582131385803223,-1.4344406127929688,2.260763168334961
1733231741528170000,5.521169921875,2.8945465087890625,-1.1299991607666016,1.3336224555969238
1733231741538149400,5.5311494140625,0.2796630859375,-1.0257083177566528,0.6485953330993652
1733231741548159000,5.541158935546875,-2.2632622718811035,-1.0510838031768799,0.18255794048309326
1733231741558168800,5.5511689453125,-3.7715682983398438,-1.027724027633667,-0.2181776762008667
1733231741568148200,5.561148193359375,-4.360780715942383,-0.9691253900527954,-0.41782596707344055
1733231741578157800,5.57115771484375,-4.0440897941589355,-0.9658607244491577,-0.4117467403411865
1733231741588167700,5.581167724609375,-2.8545055389404297,-1.0060561895370483,-0.050264716148376465
1733231741598177300,5.59117724609375,-1.3853912353515625,-1.1160627603530884,0.7248320579528809
1733231741608156700,5.60115673828125,-0.2215719223022461,-1.2879478931427002,1.2478041648864746
1733231741618166300,5.611166259765625,0.8548355102539062,-1.25503671169281,1.2825673818588257
1733231741628176100,5.621176025390625,1.5271406173706055,-1.1438775062561035,1.1292413473129272
1733231741638155500,5.631155517578125,1.845108985900879,-1.0844810009002686,0.9721862077713013
1733231741648165000,5.6411650390625,1.706669807434082,-1.0949556827545166,0.8477230072021484
1733231741658175000,5.651175048828125,1.4439477920532227,-0.9879528284072876,0.5864540934562683
1733231741668154000,5.661154052734375,1.1342086791992188,-0.8790076971054077,0.46979910135269165
1733231741678164000,5.6711640625,0.598790168762207,-0.8338885307312012,0.533903181552887
1733231741688173600,5.681173583984375,0.3609170913696289,-0.7742326259613037,0.6183701157569885
1733231741698153000,5.691153076171875,0.18265724182128906,-0.7784113883972168,0.5836039781570435
1733231741708162800,5.701162841796875,-0.10121726989746094,-0.8200221061706543,0.5172367691993713
1733231741718172400,5.71117236328125,-0.4710655212402344,-0.7834365367889404,0.4742668867111206
1733231741728151800,5.72115185546875,-0.7977838516235352,-0.8138666152954102,0.40437301993370056
1733231741738161700,5.73116162109375,-0.9661893844604492,-0.766119122505188,0.3259633183479309
1733231741748171300,5.741171142578125,-0.9660015106201172,-0.3505113124847412,0.12629777193069458
1733231741758150400,5.751150390625,-0.8039894104003906,-0.2873382568359375,-0.0006069540977478027
1733231741768160300,5.76116015625,-0.6115474700927734,-0.2623406648635864,-0.12896007299423218
1733231741778169900,5.771169921875,-0.6812839508056641,-0.17452096939086914,-0.12680691480636597
1733231741788149200,5.781149169921875,-0.9975433349609375,-0.06513619422912598,0.008886784315109253
1733231741798159000,5.7911591796875,-1.109644889831543,-0.06113028526306152,0.09703564643859863
1733231741808168700,5.801168701171875,-1.0696544647216797,-0.029247045516967773,0.09740281105041504
1733231741818148000,5.811148193359375,-0.9391288757324219,0.002814054489135742,0.13190186023712158
1733231741828158000,5.821157958984375,-0.9052066802978516,-0.09052300453186035,0.27424103021621704
1733231741838167600,5.83116748046875,-0.9174766540527344,-0.1357131004333496,0.37689176201820374
1733231741848177400,5.841177490234375,-1.0320568084716797,0.0010831356048583984,0.31736841797828674
1733231741858156500,5.851156494140625,-1.1392030715942383,0.12933754920959473,0.2741822898387909
1733231741868166400,5.86116650390625,-0.7623481750488281,0.14777708053588867,0.2871512174606323
1733231741878176000,5.871176025390625,-0.24770069122314453,0.17477726936340332,0.15409743785858154
1733231741888155400,5.8811552734375,0.2940073013305664,0.2350788116455078,-0.07524499297142029
1733231741898165000,5.8911650390625,0.28090667724609375,0.2922961711883545,-0.06367504596710205
1733231741908174800,5.9011748046875,-0.03922462463378906,0.2895030975341797,0.008541315793991089
1733231741918154200,5.911154296875,-0.3228445053100586,0.37305188179016113,0.03361472487449646
1733231741928164000,5.9211640625,-0.37688350677490234,0.4096512794494629,-0.06328707933425903
1733231741938174000,5.931174072265625,-0.32558345794677734,0.4088127613067627,-0.12611475586891174
1733231741948152800,5.94115283203125,-0.19069194793701172,0.3745579719543457,-0.22279000282287598
1733231741958162700,5.95116259765625,-0.2924785614013672,0.4462707042694092,-0.32584917545318604
1733231741968172300,5.96117236328125,-0.3719348907470703,0.4913747310638428,-0.21376031637191772
1733231741978151700,5.971151611328125,-0.0658426284790039,0.41652560234069824,-0.19615745544433594
1733231741988161500,5.98116162109375,0.2471303939819336,0.3592965602874756,-0.2975996732711792
1733231741998172000,5.991171875,0.3423318862915039,0.304746150970459,-0.2763959467411041
1733231742008150500,6.001150634765625,0.2489633560180664,0.28760862350463867,-0.18840143084526062
1733231742018160400,6.011160400390625,0.2620115280151367,0.4013197422027588,-0.2651481032371521
1733231742028170000,6.021169921875,0.3038921356201172,0.4423809051513672,-0.29410821199417114
1733231742038149400,6.0311494140625,0.006426811218261719,0.49704837799072266,-0.3631274998188019
1733231742048159000,6.041158935546875,-0.7179841995239258,0.37504100799560547,-0.6351808309555054
1733231742058168800,6.0511689453125,-1.561840534210205,0.04012870788574219,-0.8753610849380493
1733231742068148000,6.06114794921875,-1.9230308532714844,-0.2931947708129883,-1.0076336860656738
1733231742078157800,6.07115771484375,-0.9350566864013672,-0.7629697322845459,-0.8029569387435913
1733231742088167400,6.08116748046875,0.8469209671020508,-1.0332374572753906,-0.4837169349193573
1733231742098177300,6.09117724609375,2.899921417236328,-1.2787883281707764,-0.2758241891860962
1733231742108156700,6.10115673828125,4.277597427368164,-1.5586825609207153,-0.21188238263130188
1733231742118166500,6.11116650390625,4.963805198669434,-1.2552717924118042,-0.21135595440864563
1733231742128176000,6.121176025390625,5.204929351806641,-0.8183131217956543,-0.29479098320007324
1733231742138155500,6.131155517578125,4.306365013122559,-1.0134446620941162,-0.7832527160644531
1733231742148165400,6.141165283203125,3.0939083099365234,-1.1102291345596313,-1.3017325401306152
1733231742158175000,6.151175048828125,1.7182607650756836,-1.1751759052276611,-1.295918583869934
1733231742168154000,6.161154052734375,0.8028135299682617,-1.1764578819274902,-1.4525450468063354
1733231742178164000,6.1711640625,0.24036312103271484,-1.3338052034378052,-1.5121527910232544
1733231742188173600,6.181173583984375,0.13729286193847656,-1.4374802112579346,-0.9999918341636658
1733231742198153000,6.191153076171875,-0.007099151611328125,-1.3749752044677734,-0.555351197719574
1733231742208162800,6.201162841796875,-0.3842353820800781,-1.4226102828979492,-0.17700433731079102
1733231742218172400,6.21117236328125,-0.38578224182128906,-1.2964847087860107,0.05790697783231735
1733231742228151800,6.22115185546875,0.3024015426635742,-1.4200820922851562,0.22451689839363098
1733231742238161700,6.23116162109375,-0.2874412536621094,-1.3018302917480469,-0.6734204292297363
1733231742248171300,6.241171142578125,-1.2221508026123047,-1.2742177248001099,-0.4606986939907074
1733231742258150400,6.251150390625,-1.4445323944091797,-1.2851570844650269,-0.2888769209384918
1733231742268160300,6.26116015625,-1.9945030212402344,-1.2305535078048706,-0.40275129675865173
1733231742278169900,6.271169921875,-2.525320053100586,-1.230562686920166,-0.655771791934967
1733231742288149200,6.281149169921875,-2.535369396209717,-1.2708604335784912,-0.7236779928207397
1733231742298159000,6.2911591796875,-2.2583608627319336,-1.2068445682525635,-0.7521929740905762
1733231742308169000,6.3011689453125,-1.7157812118530273,-1.3889392614364624,-0.771942138671875
1733231742318148000,6.311148193359375,-0.9985780715942383,-1.6329376697540283,-0.8005856871604919
1733231742328158000,6.321157958984375,-0.5586919784545898,-1.5316176414489746,-0.8992979526519775
1733231742338167800,6.331167724609375,0.15240192413330078,-1.5597058534622192,-0.6890045404434204
