time,seconds_elapsed,z,y,x
1733231736218172400,0.21117236328125,8.959102630615234,2.4013843536376953,-1.0295066833496094
1733231736228151800,0.22115185546875,8.853757858276367,2.454056739807129,-0.9911994934082031
1733231736238161700,0.23116162109375,8.877699851989746,2.494758129119873,-0.7805097699165344
1733231736248171300,0.241171142578125,9.244012832641602,2.4851813316345215,-0.49559974670410156
1733231736258150400,0.251150390625,9.945513725280762,2.5474305152893066,-0.08619125932455063
1733231736268160300,0.26116015625,10.335768699645996,2.5067291259765625,0.0454898327589035
1733231736278169900,0.271169921875,10.340557098388672,2.542642116546631,-0.07900865375995636
1733231736288149200,0.281149169921875,9.897629737854004,2.5737667083740234,-0.16998831927776337
1733231736298159000,0.2911591796875,9.32302188873291,2.583343744277954,-0.42377370595932007
1733231736308169000,0.3011689453125,8.676587104797363,2.5737667083740234,-0.7589619159698486
1733231736318148000,0.311148193359375,8.343792915344238,2.609679937362671,-0.790086567401886
1733231736328158000,0.321157958984375,8.504204750061035,2.691082715988159,-0.6416460275650024
1733231736338167800,0.331167724609375,8.877699851989746,2.669534921646118,-0.5506663918495178
1733231736348177400,0.341177490234375,9.284713745117188,2.626439332962036,-0.5434837937355042
1733231736358156500,0.351156494140625,9.607931137084961,2.561795711517334,-0.5434837937355042
1733231736368166100,0.361166259765625,9.909601211547852,2.5737667083740234,-0.47405192255973816
1733231736378176000,0.371176025390625,10.127472877502441,2.561795711517334,-0.28969839215278625
1733231736388155400,0.3811552734375,10.362105369567871,2.5091233253479004,-0.1843535304069519
1733231736398165200,0.391165283203125,10.469843864440918,2.494758129119873,-0.1149216815829277
1733231736408174800,0.4011748046875,10.259154319763184,2.4588451385498047,-0.20350714027881622
1733231736418154200,0.411154296875,9.830592155456543,2.449268341064453,-0.35434186458587646
1733231736428164000,0.4211640625,9.430760383605957,2.4468741416931152,-0.43335050344467163
1733231736438173700,0.431173583984375,9.035717010498047,2.449268341064453,-0.40222588181495667
1733231736448152800,0.44115283203125,8.99740982055664,2.516305923461914,-0.3687070608139038
1733231736458162700,0.45116259765625,9.040505409240723,2.63362193107605,-0.19393034279346466
1733231736468172300,0.46117236328125,9.133879661560059,2.647987127304077,-0.07182604819536209
1733231736478151700,0.471151611328125,9.23443603515625,2.6886885166168213,0.031124621629714966
1733231736488161500,0.48116162109375,9.167398452758789,2.719813108444214,0.043095629662275314
1733231736498171100,0.491171142578125,8.99740982055664,2.801215887069702,0.08858546614646912
1733231736508150500,0.501150634765625,8.779537200927734,2.9017724990844727,0.2849099934101105
1733231736518160400,0.511160400390625,8.619126319885254,2.9544448852539062,0.4620809257030487
1733231736528170000,0.521169921875,8.446743965148926,2.9951462745666504,0.5219359993934631
1733231736538149000,0.531149169921875,8.382100105285645,2.9735984802246094,0.44532153010368347
1733231736548159000,0.541158935546875,8.47547435760498,2.937685489654541,0.3998316824436188
1733231736558168600,0.55116845703125,8.62630844116211,2.8443117141723633,0.38067805767059326
1733231736568148000,0.56114794921875,9.01895809173584,2.738966703414917,0.31842881441116333
1733231736578157800,0.57115771484375,9.205705642700195,2.647987127304077,0.33758243918418884
1733231736588167700,0.581167724609375,9.433155059814453,2.612074136734009,0.363918662071228
1733231736598177300,0.59117724609375,9.440337181091309,2.669534921646118,0.4596867263317108
1733231736608156700,0.60115673828125,9.210494041442871,2.7485435009002686,0.5626373887062073
1733231736618166500,0.61116650390625,9.121908187866211,2.806004285812378,0.5434837937355042
1733231736628176100,0.621176025390625,9.121908187866211,2.8107926845550537,0.44532153010368347
1733231736638155300,0.6311552734375,9.131484985351562,2.827552318572998,0.35434186458587646
1733231736648165000,0.6411650390625,9.251194953918457,2.8155810832977295,0.38546648621559143
1733231736658175000,0.651175048828125,9.53849983215332,2.7748796939849854,0.3878606855869293
1733231736668154000,0.661154052734375,9.806650161743164,2.7533318996429443,0.33997663855552673
1733231736678164000,0.6711640625,9.983820915222168,2.6862943172454834,0.40462008118629456
1733231736688173600,0.681173583984375,9.9000244140625,2.693476915359497,0.5889736413955688
1733231736698153000,0.691153076171875,9.579200744628906,2.7676970958709717,0.7398083209991455
1733231736708162800,0.701162841796875,9.330204010009766,2.806004285812378,0.7972691655158997
1733231736718172400,0.71117236328125,9.21288776397705,2.8443117141723633,0.8690952062606812
1733231736728151800,0.72115185546875,9.311050415039062,2.8993782997131348,1.137245774269104
1733231736738161700,0.73116162109375,10.553641319274902,3.3638534545898438,2.1116859912872314
1733231736748171300,0.741171142578125,8.951920509338379,2.87064790725708,0.8619126081466675
1733231736758150400,0.751150390625,9.05247688293457,3.098097085952759,0.43335050344467163
1733231736768160300,0.76116015625,9.232041358947754,3.2178070545196533,0.9002198576927185
1733231736778169900,0.771169921875,9.093177795410156,3.1004912853240967,1.1109095811843872
1733231736788149200,0.781149169921875,8.83699893951416,3.0597896575927734,0.7541735172271729
1733231736798159000,0.7911591796875,9.026140213012695,3.0597896575927734,0.8475474119186401
1733231736808169000,0.8011689453125,9.346963882446289,3.0406360626220703,1.094150185585022
1733231736818148000,0.811148193359375,9.53849983215332,2.9951462745666504,0.9552865028381348
1733231736828158000,0.821157958984375,9.442731857299805,3.021482467651367,0.5506663918495178
1733231736838167800,0.831167724609375,9.167398452758789,3.0526070594787598,0.14844051003456116
1733231736848177400,0.841177490234375,8.83699893951416,3.095702886581421,-0.30885201692581177
1733231736858156500,0.851156494140625,8.614337921142578,3.155557870864868,-0.7254431247711182
1733231736868166100,0.861166259765625,8.358158111572266,3.203441858291626,-1.1252747774124146
1733231736878176000,0.871176025390625,8.070854187011719,3.205836057662964,-1.5107412338256836
1733231736888155400,0.8811552734375,7.9631147384643555,3.28963303565979,-1.7549498081207275
1733231736898165200,0.891165283203125,8.202534675598145,3.3901896476745605,-1.6687586307525635
1733231736908174800,0.9011748046875,8.561665534973145,3.397372245788574,-1.37906014919281
1733231736918154200,0.911154296875,9.064447402954102,3.294421434402466,-1.0007762908935547
1733231736928164000,0.9211640625,9.615114212036133,3.2297780513763428,-0.7469909191131592
1733231736938173700,0.931173583984375,10.505757331848145,3.0526070594787598,-0.5913678407669067
1733231736948152800,0.94115283203125,11.453861236572266,2.8826189041137695,-0.6177040338516235
1733231736958162700,0.95116259765625,12.057199478149414,2.5977089405059814,-0.8882488012313843
1733231736968172300,0.96117236328125,11.980585098266602,2.4396915435791016,-1.3718775510787964
1733231736978151700,0.971151611328125,11.410765647888184,2.449268341064453,-1.7525556087493896
1733231736988161500,0.98116162109375,10.417171478271484,2.518700122833252,-1.9608511924743652
1733231736998171100,0.991171142578125,9.500192642211914,2.6623523235321045,-1.9728221893310547
1733231737008150500,1.001150634765625,8.731653213500977,2.8371291160583496,-1.7741034030914307
1733231737018160400,1.011160400390625,8.29830265045166,3.0406360626220703,-1.5107412338256836
1733231737028170000,1.021169921875,8.022970199584961,3.2178070545196533,-1.400607943534851
1733231737038149000,1.031149169921875,8.118738174438477,3.31118106842041,-1.4484920501708984
1733231737048159000,1.041158935546875,8.35097599029541,3.3039982318878174,-1.4508862495422363
1733231737058168600,1.05116845703125,8.757989883422852,3.224989652633667,-1.5155296325683594
1733231737068148000,1.06114794921875,9.124302864074707,3.157952070236206,-1.6519991159439087
1733231737078157800,1.07115771484375,9.097966194152832,3.0310592651367188,-1.699883222579956
1733231737088167400,1.08116748046875,8.901641845703125,2.956839084625244,-1.7262194156646729
1733231737098177300,1.09117724609375,8.791508674621582,2.940079689025879,-1.7070658206939697
1733231737108156700,1.10115673828125,8.801085472106934,2.942473888397217,-1.623268723487854
1733231737118166500,1.11116650390625,8.973467826843262,2.937685489654541,-1.4317326545715332
1733231737128176000,1.121176025390625,9.437943458557129,3.0119056701660156,-1.1276689767837524
1733231737138155500,1.131155517578125,9.770736694335938,3.0789434909820557,-0.8954314589500427
1733231737148165000,1.1411650390625,9.837775230407715,3.090914487838745,-1.091755986213684
1733231737158175000,1.151175048828125,9.634267807006836,3.071760892868042,-1.3551181554794312
1733231737168154000,1.161154052734375,9.368511199951172,3.1028854846954346,-1.5322890281677246
1733231737178164000,1.1711640625,9.17697525024414,3.160346269607544,-1.659181833267212
1733231737188173600,1.181173583984375,9.162610054016113,3.2130186557769775,-1.7190368175506592
1733231737198153000,1.191153076171875,9.421183586120605,3.2632968425750732,-1.721431016921997
1733231737208162800,1.201162841796875,9.86889934539795,3.3255462646484375,-1.745373010635376
1733231737218172400,1.21117236328125,10.146626472473145,3.318363666534424,-1.6879122257232666
1733231737228151800,1.22115185546875,10.393229484558105,3.361459255218506,-1.6687586307525635
1733231737238161700,1.23116162109375,10.280701637268066,3.3710360527038574,-1.7357962131500244
1733231737248171300,1.241171142578125,9.99100399017334,3.4093432426452637,-1.9081788063049316
1733231737258150400,1.251150390625,9.636661529541016,3.4620156288146973,-2.006340980529785
1733231737268160300,1.26116015625,9.354146003723145,3.5458126068115234,-1.9967641830444336
1733231737278169900,1.271169921875,9.346963882446289,3.600879430770874,-1.9632453918457031
1733231737288149200,1.281149169921875,9.519346237182617,3.667917013168335,-1.86508309841156
1733231737298159000,1.2911591796875,9.742006301879883,3.7277719974517822,-1.6974890232086182
1733231737308169000,1.3011689453125,9.86889934539795,3.754108190536499,-1.4844050407409668
1733231737318148000,1.311148193359375,9.99100399017334,3.799597978591919,-1.2330138683319092
1733231737328158000,1.321157958984375,10.304644584655762,3.8714241981506348,-0.9313444495201111
1733231737338167800,1.331167724609375,10.551246643066406,3.8355112075805664,-0.7757213711738586
1733231737348177400,1.341177490234375,10.745177268981934,3.818751811981201,-0.8427590131759644
1733231737358156500,1.351156494140625,10.584765434265137,3.861847400665283,-0.933738648891449
1733231737368166100,1.361166259765625,10.041281700134277,3.885789394378662,-0.9696516990661621
1733231737378176000,1.371176025390625,9.342175483703613,3.914519786834717,-0.9265560507774353
1733231737388155400,1.3811552734375,8.908824920654297,3.9624037742614746,-0.7661445140838623
1733231737398165200,1.391165283203125,8.942343711853027,4.010287761688232,-0.6392518281936646
1733231737408174800,1.4011748046875,9.502586364746094,3.9839515686035156,-0.545877993106842
1733231737418154200,1.411154296875,10.108319282531738,3.845088005065918,-0.5339069962501526
1733231737428164000,1.4211640625,10.60152530670166,3.801992416381836,-0.5291185975074768
1733231737438173700,1.431173583984375,10.845733642578125,3.8331170082092285,-0.6153098344802856
1733231737448152800,1.44115283203125,10.699687004089355,3.8522706031799316,-0.6440402865409851
1733231737458162700,1.45116259765625,10.251971244812012,3.825934410095215,-0.5961562395095825
1733231737468172300,1.46117236328125,9.758766174316406,3.670311212539673,-0.1364694982767105
1733231737478151700,1.471151611328125,9.41400146484375,3.354276657104492,0.3471592366695404
1733231737488161500,1.48116162109375,9.713275909423828,3.045424461364746,0.6943184733390808
1733231737498171100,1.491171142578125,10.714052200317383,2.693476915359497,0.9097966551780701
1733231737508150500,1.501150634765625,12.05959415435791,2.099714994430542,0.7661445140838623
1733231737518160400,1.511160400390625,13.151350021362305,1.656787633895874,0.38307225704193115
1733231737528170000,1.521169921875,14.032416343688965,1.3120225667953491,-0.12689268589019775
1733231737538149000,1.531149169921875,14.293384552001953,1.0821791887283325,-0.5123591423034668
1733231737548159000,1.541158935546875,13.929465293884277,1.0007762908935547,-0.6607996821403503
1733231737558168600,1.55116845703125,13.019668579101562,1.1252747774124146,-0.6368576288223267
1733231737568148000,1.56114794921875,11.908759117126465,1.3335703611373901,-0.4596867263317108
1733231737578157800,1.57115771484375,10.697293281555176,1.6160861253738403,-0.07661445438861847
1733231737588167400,1.58116748046875,9.732429504394531,1.8100165128707886,0.304063618183136
1733231737598177300,1.59117724609375,8.69095230102539,2.051830768585205,0.7350199222564697
1733231737608156700,1.60115673828125,7.948749542236328,2.1475989818573,1.0797849893569946
1733231737618166500,1.61116650390625,7.422025203704834,2.121262788772583,1.2713210582733154
1733231737628176100,1.621176025390625,7.0772600173950195,1.9991583824157715,1.3407529592514038
1733231737638155500,1.631155517578125,7.15387487411499,1.8626888990402222,1.4293384552001953
1733231737648165000,1.6411650390625,7.65186882019043,1.7142484188079834,1.577778935432434
1733231737658175000,1.651175048828125,8.161833763122559,1.6280571222305298,1.6927006244659424
1733231737668154000,1.661154052734375,8.53532886505127,1.558625340461731,1.8124107122421265
1733231737678164000,1.6711640625,8.695740699768066,1.5514427423477173,1.9919757843017578
1733231737688173600,1.681173583984375,8.858546257019043,1.5682021379470825,2.1475989818573
1733231737698153000,1.691153076171875,9.188945770263672,1.5059528350830078,2.233790159225464
1733231737708162800,1.701162841796875,9.502586364746094,1.4532804489135742,2.188300371170044
1733231737718172400,1.71117236328125,9.497797966003418,1.3670891523361206,1.802833914756775
1733231737728151800,1.72115185546875,9.330204010009766,1.3694833517074585,1.173158884048462
1733231737738161700,1.73116162109375,9.095572471618652,1.3623007535934448,0.6153098344802856
1733231737748171300,1.741171142578125,8.592789649963379,1.4197616577148438,0.18914192914962769
1733231737758150400,1.751150390625,8.480262756347656,1.5514427423477173,0.0454898327589035
1733231737768160300,1.76116015625,8.53293514251709,1.7070658206939697,0.07661445438861847
1733231737778169900,1.771169921875,8.523358345031738,1.965639591217041,0.363918662071228
1733231737788149200,1.781149169921875,8.312667846679688,2.255337953567505,0.6799532771110535
1733231737798159000,1.7911591796875,7.7763671875,2.5665841102600098,1.2114660739898682
1733231737808169000,1.8011689453125,7.321468830108643,2.8347349166870117,1.4413094520568848
1733231737818148000,1.811148193359375,7.314286231994629,3.047818660736084,1.45806884765625
1733231737828158000,1.821157958984375,7.9415669441223145,3.0334534645080566,1.335964560508728
1733231737838167800,1.831167724609375,8.530540466308594,2.8203697204589844,0.7398083209991455
1733231737848177400,1.841177490234375,8.75080680847168,2.698265314102173,0.15322890877723694
1733231737858156500,1.851156494140625,8.779537200927734,2.5665841102600098,-0.2944868206977844
1733231737868166100,1.861166259765625,8.437167167663574,2.5689783096313477,-0.40701428055763245
1733231737878176000,1.871176025390625,8.085219383239746,2.671929121017456,-0.42856210470199585
1733231737888155400,1.8811552734375,7.841010570526123,2.7916390895843506,-0.3016694188117981
1733231737898165200,1.891165283203125,7.829039573669434,2.8826189041137695,-0.12689268589019775
1733231737908174800,1.9011748046875,8.090007781982422,2.9688100814819336,0.10534487664699554
1733231737918154200,1.911154296875,8.26239013671875,3.0765492916107178,0.27054479718208313
1733231737928164000,1.9211640625,8.564059257507324,3.157952070236206,0.2322375625371933
1733231737938173700,1.931173583984375,8.829815864562988,3.181894063949585,-0.05746084079146385
1733231737948152800,1.94115283203125,9.35654067993164,3.1316158771514893,-0.363918662071228
1733231737958162700,1.95116259765625,9.785101890563965,3.0573954582214355,-0.6177040338516235
1733231737968172300,1.96117236328125,10.046070098876953,3.026270866394043,-0.9864110946655273
1733231737978151700,1.971151611328125,9.995792388916016,3.045424461364746,-1.2521674633026123
1733231737988161500,1.98116162109375,9.710882186889648,3.1004912853240967,-1.1468225717544556
1733231737998171100,1.991171142578125,9.334992408752441,3.246537446975708,-0.8834604024887085
1733231738008150500,2.001150634765625,9.129091262817383,3.4380736351013184,-0.6536170840263367
1733231738018160400,2.011160400390625,9.02135181427002,3.5865142345428467,-0.3711012601852417
1733231738028170000,2.021169921875,9.035717010498047,3.7445313930511475,-0.24181437492370605
1733231738038149000,2.031149169921875,9.397241592407227,3.840299606323242,-0.12449848651885986
1733231738048159000,2.041158935546875,9.988609313964844,3.8570590019226074,-0.05027823522686958
1733231738058168800,2.0511689453125,10.582371711730957,3.825934410095215,-0.2777273952960968
1733231738068148000,2.06114794921875,10.855310440063477,3.773261785507202,-0.47405192255973816
1733231738078157800,2.07115771484375,10.879252433776855,3.7038300037384033,-0.47884035110473633
1733231738088167400,2.08116748046875,10.927136421203613,3.7277719974517822,-0.33279404044151306
1733231738098177300,2.09117724609375,10.836156845092773,3.7229835987091064,0.038307227194309235
1733231738108156700,2.10115673828125,10.503362655639648,3.643975019454956,0.4596867263317108
1733231738118166500,2.11116650390625,10.038887977600098,3.622427225112915,0.6129156351089478
1733231738128176000,2.121176025390625,9.397241592407227,3.466804027557373,0.33518823981285095
1733231738138155500,2.131155517578125,8.769960403442383,3.4117374420166016,-0.3447650372982025
1733231738148165000,2.1411650390625,8.190564155578613,3.375824451446533,-1.1348515748977661
1733231738158175000,2.151175048828125,7.91283655166626,3.44765043258667,-1.7142484188079834
1733231738168154000,2.161154052734375,8.157045364379883,3.4835634231567383,-2.0183119773864746
1733231738178164000,2.1711640625,8.69095230102539,3.399766445159912,-1.8267759084701538
1733231738188173600,2.181173583984375,9.354146003723145,3.3231520652770996,-1.1779472827911377
1733231738198153000,2.191153076171875,9.3828763961792,3.5625722408294678,0.7876923680305481
1733231738208162800,2.201162841796875,10.74996566772461,3.2800562381744385,0.4357447028160095
1733231738218172400,2.21117236328125,11.693281173706055,2.4851813316345215,-0.10055647045373917
1733231738228151800,2.22115185546875,12.215216636657715,1.821987509727478,-1.6280571222305298
1733231738238161700,2.23116162109375,12.770671844482422,1.170764684677124,-1.800439715385437
1733231738248171300,2.241171142578125,12.820950508117676,1.0414776802062988,-1.4700398445129395
1733231738258150400,2.251150390625,12.526463508605957,1.173158884048462,-1.0247182846069336
1733231738268160300,2.26116015625,12.05959415435791,1.3120225667953491,-0.629675030708313
1733231738278169900,2.271169921875,11.552022933959961,1.6424223184585571,-0.5339069962501526
1733231738288149200,2.281149169921875,11.022904396057129,1.7621324062347412,-0.5793967843055725
1733231738298159000,2.2911591796875,10.453084945678711,1.8100165128707886,-0.5602431893348694
1733231738308169000,2.3011689453125,9.897629737854004,1.8962076902389526,-0.6344634294509888
1733231738318148000,2.311148193359375,9.074024200439453,1.8387469053268433,-0.730231523513794
1733231738328158000,2.321157958984375,8.583212852478027,1.6855180263519287,-0.9074024558067322
1733231738338167800,2.331167724609375,8.676587104797363,1.6352397203445435,-1.0534487962722778
1733231738348177400,2.341177490234375,9.229647636413574,1.403002142906189,-0.9289502501487732
1733231738358156500,2.351156494140625,9.567230224609375,1.2234370708465576,-0.9193734526634216
1733231738368166100,2.361166259765625,9.445125579833984,1.2473790645599365,-0.8834604024887085
1733231738378176000,2.371176025390625,9.255983352661133,1.2449848651885986,-0.8044517636299133
1733231738388155400,2.3811552734375,8.96149730682373,1.2545616626739502,-0.768538773059845
1733231738398165200,2.391165283203125,8.846575736999512,1.37906014919281,-0.7541735172271729
1733231738408174800,2.4011748046875,8.681375503540039,1.5083470344543457,-0.6344634294509888
1733231738418154200,2.411154296875,8.394071578979492,1.7286136150360107,-0.5099649429321289
1733231738428164000,2.4211640625,8.02536392211914,1.9560627937316895,-0.5003881454467773
1733231738438173700,2.431173583984375,7.934384346008301,2.097320795059204,-0.6344634294509888
1733231738448152800,2.44115283203125,8.006210327148438,2.1308395862579346,-0.6751648783683777
1733231738458162700,2.45116259765625,8.195352554321289,2.1332337856292725,-0.7182605266571045
1733231738468172300,2.46117236328125,8.415618896484375,2.207453966140747,-0.7230489253997803
1733231738478151700,2.471151611328125,8.631096839904785,2.250549554824829,-0.7326257228851318
1733231738488161500,2.48116162109375,8.738836288452148,2.233790159225464,-0.7254431247711182
1733231738498171100,2.491171142578125,8.808267593383789,2.2888567447662354,-0.9145850539207458
1733231738508150500,2.501150634765625,8.798690795898438,2.3535003662109375,-1.0582371950149536
1733231738518160400,2.511160400390625,8.667010307312012,2.432508945465088,-1.0678139925003052
1733231738528170000,2.521169921875,8.71489429473877,2.5091233253479004,-1.0845733880996704
1733231738538149000,2.531149169921875,8.844181060791016,2.564189910888672,-1.1683704853057861
1733231738548159000,2.541158935546875,9.045293807983398,2.631227731704712,-1.0845733880996704
1733231738558168800,2.5511689453125,9.162610054016113,2.784456491470337,-0.8786720037460327
1733231738568148000,2.56114794921875,9.181763648986816,2.9520506858825684,-0.5650315880775452
1733231738578157800,2.57115771484375,9.071630477905273,2.999934673309326,-0.3878606855869293
1733231738588167400,2.58116748046875,9.004592895507812,3.1316158771514893,-0.3471592366695404
1733231738598177300,2.59117724609375,8.645462036132812,3.184288263320923,-0.3663128614425659
1733231738608156700,2.60115673828125,8.336610794067383,3.2417490482330322,-0.5003881454467773
1733231738618166500,2.61116650390625,8.087613105773926,3.246537446975708,-0.7326257228851318
1733231738628176100,2.621176025390625,7.948749542236328,3.2752678394317627,-0.9313444495201111
1733231738638155500,2.631155517578125,7.948749542236328,3.3231520652770996,-0.9217676520347595
1733231738648165000,2.6411650390625,8.075642585754395,3.4308910369873047,-0.8236053586006165
1733231738658175000,2.651175048828125,8.185775756835938,3.5458126068115234,-0.629675030708313
1733231738668154000,2.661154052734375,8.24084186553955,3.603273630142212,-0.5171475410461426
1733231738678164000,2.6711640625,8.367734909057617,3.691859006881714,-0.545877993106842
1733231738688173600,2.681173583984375,8.614337921142578,3.8355112075805664,-0.5219359993934631
1733231738698153000,2.691153076171875,8.640673637390137,3.9671921730041504,-0.5003881454467773
1733231738708162800,2.701162841796875,8.554482460021973,4.07014274597168,-0.5937620401382446
1733231738718172400,2.71117236328125,8.552088737487793,4.108449935913086,-0.7038952708244324
1733231738728151800,2.72115185546875,8.695740699768066,4.120420932769775,-0.7613561153411865
1733231738738161700,2.73116162109375,8.863334655761719,4.14915132522583,-0.689530074596405
1733231738748171300,2.741171142578125,9.21288776397705,4.180276393890381,-0.5674257874488831
1733231738758150400,2.751150390625,9.761159896850586,4.122815132141113,-0.4668693244457245
1733231738768160300,2.76116015625,10.1753568649292,4.072536945343018,-0.31364041566848755
1733231738778169900,2.771169921875,10.271124839782715,4.077325344085693,-0.3423708379268646
1733231738788149200,2.781149169921875,10.096348762512207,4.050989151000977,-0.3519476354122162
1733231738798159000,2.7911591796875,10.029311180114746,4.0294413566589355,-0.304063618183136
1733231738808169000,2.8011689453125,10.02452278137207,3.9456443786621094,-0.1412578970193863
1733231738818148000,2.811148193359375,10.11789608001709,3.8355112075805664,-0.033518824726343155
1733231738828158000,2.821157958984375,10.769119262695312,3.8283286094665527,0.1173158809542656
1733231738838167800,2.831167724609375,11.334151268005371,3.670311212539673,0.4381389021873474
1733231738848177400,2.841177490234375,11.834539413452148,3.5410242080688477,0.6919242739677429
1733231738858156500,2.851156494140625,12.15057373046875,3.5697548389434814,0.8906430602073669
1733231738868166100,2.861166259765625,12.145785331726074,3.7253777980804443,1.192312479019165
1733231738878176000,2.871176025390625,11.738770484924316,3.778050184249878,1.5705963373184204
1733231738888155400,2.8811552734375,10.922348022460938,3.8067808151245117,1.8171991109848022
1733231738898165200,2.891165283203125,9.856928825378418,3.7397429943084717,2.1140801906585693
1733231738908174800,2.9011748046875,9.023746490478516,3.313575267791748,2.2697031497955322
1733231738918154200,2.911154296875,8.592789649963379,2.4133553504943848,2.43011474609375
1733231738928164000,2.9211640625,8.772355079650879,1.5682021379470825,2.073378562927246
1733231738938173700,2.931173583984375,10.500968933105469,1.070208191871643,1.7118542194366455
1733231738948152800,2.94115283203125,12.437877655029297,0.7254431247711182,1.5179238319396973
1733231738958162700,2.95116259765625,14.255077362060547,0.5315127968788147,1.3718775510787964
1733231738968172300,2.96117236328125,14.824896812438965,0.7565677165985107,1.4245500564575195
1733231738978151700,2.971151611328125,14.03959846496582,1.2521674633026123,1.577778935432434
1733231738988161500,2.98116162109375,12.380416870117188,1.7286136150360107,1.4652514457702637
1733231738998171100,2.991171142578125,10.163386344909668,2.1356279850006104,1.314416766166687
1733231739008150500,3.001150634765625,8.195352554321289,2.3247697353363037,1.0869675874710083
1733231739018160400,3.011160400390625,6.89530086517334,2.5019407272338867,0.5554547905921936
1733231739028170000,3.021169921875,6.0405707359313965,2.5498247146606445,0.08858546614646912
1733231739038149000,3.031149169921875,5.872976779937744,2.3535003662109375,-0.1867477297782898
1733231739048159000,3.041158935546875,6.086060523986816,2.2146365642547607,-0.08619125932455063
1733231739058168800,3.0511689453125,6.593631267547607,2.1380221843719482,0.4692635238170624
1733231739068148000,3.06114794921875,7.553706169128418,1.9488801956176758,0.993593692779541
1733231739078157800,3.07115771484375,8.712499618530273,1.699883222579956,1.2856862545013428
1733231739088167400,3.08116748046875,10.11550235748291,1.501164436340332,1.4867992401123047
1733231739098177300,3.09117724609375,11.065999984741211,1.3670891523361206,1.5322890281677246
1733231739108156700,3.10115673828125,11.549629211425781,1.3407529592514038,1.479616641998291
1733231739118166500,3.11116650390625,11.32457447052002,1.3742717504501343,1.3646949529647827
1733231739128176000,3.121176025390625,10.587160110473633,1.479616641998291,1.278503656387329
1733231739138155500,3.131155517578125,9.44991397857666,1.7310078144073486,1.2114660739898682
1733231739148165000,3.1411650390625,8.607154846191406,1.9129672050476074,1.2090718746185303
1733231739158175000,3.151175048828125,7.800309181213379,2.1284453868865967,1.1875240802764893
1733231739168154000,3.161154052734375,7.4555439949035645,2.2601263523101807,1.1683704853057861
1733231739178164000,3.1711640625,7.338228225708008,2.38462495803833,1.137245774269104
1733231739188173600,3.181173583984375,7.400477409362793,2.408566951751709,1.039083480834961
1733231739198153000,3.191153076171875,7.580042362213135,2.456450939178467,1.072602391242981
1733231739208162800,3.201162841796875,7.91283655166626,2.47560453414917,1.192312479019165
1733231739218172400,3.21117236328125,8.219294548034668,2.4684219360351562,1.2186486721038818
1733231739228151800,3.22115185546875,8.504204750061035,2.4396915435791016,1.137245774269104
1733231739238161700,3.23116162109375,8.588001251220703,2.4612393379211426,1.237802267074585
1733231739248171300,3.241171142578125,8.547300338745117,2.52109432220459,1.3479355573654175
1733231739258150400,3.251150390625,8.451532363891602,2.612074136734009,1.525106430053711
1733231739268160300,3.26116015625,8.185775756835938,2.6839001178741455,1.6208745241165161
1733231739278169900,3.271169921875,8.027758598327637,2.784456491470337,1.599326729774475
1733231739288149200,3.281149169921875,7.934384346008301,2.894589900970459,1.5873557329177856
1733231739298159000,3.2911591796875,8.054094314575195,2.956839084625244,1.5298948287963867
1733231739308169000,3.3011689453125,8.437167167663574,2.999934673309326,1.3886369466781616
1733231739318148000,3.311148193359375,8.810662269592285,3.0765492916107178,1.3024457693099976
1733231739328158000,3.321157958984375,9.186552047729492,3.205836057662964,1.3527239561080933
1733231739338167800,3.331167724609375,9.59596061706543,3.2992098331451416,1.4269442558288574
1733231739348177400,3.341177490234375,9.763554573059082,3.44765043258667,1.3766659498214722
1733231739358156500,3.351156494140625,9.763554573059082,3.600879430770874,1.3718775510787964
1733231739368166100,3.361166259765625,9.454702377319336,3.708618402481079,1.2042834758758545
1733231739378176000,3.371176025390625,9.148244857788086,3.8546648025512695,0.9816226959228516
1733231739388155400,3.3811552734375,9.0859956741333,3.9480385780334473,0.790086567401886
1733231739398165200,3.391165283203125,9.133879661560059,3.9815573692321777,0.5219359993934631
1733231739408174800,3.4011748046875,9.50498104095459,3.976768970489502,0.4405331015586853
1733231739418154200,3.411154296875,10.156203269958496,4.01268196105957,0.49320554733276367
1733231739428164000,3.4211640625,10.714052200317383,3.9671921730041504,0.4908113479614258
1733231739438173700,3.431173583984375,11.094730377197266,3.931279182434082,0.45010992884635925
1733231739448152800,3.44115283203125,11.343728065490723,3.9647979736328125,0.4692635238170624
1733231739458162700,3.45116259765625,11.32457447052002,3.9432501792907715,0.5722141861915588
1733231739468172300,3.46117236328125,11.08754825592041,3.869029998779297,0.5315127968788147
1733231739478151700,3.471151611328125,10.90798282623291,3.8379054069519043,0.28969839215278625
1733231739488161500,3.48116162109375,10.723628997802734,3.892971992492676,-0.05746084079146385
1733231739498171100,3.491171142578125,10.359710693359375,3.955221176147461,-0.30885201692581177
1733231739508150500,3.501150634765625,9.708487510681152,3.950432777404785,-0.6488286852836609
1733231739518160400,3.511160400390625,9.069235801696777,3.869029998779297,-0.9720458984375
1733231739528170000,3.521169921875,8.47786808013916,3.4308910369873047,-1.1037269830703735
1733231739538149000,3.531149169921875,7.982268333435059,2.8634653091430664,-1.1348515748977661
1733231739548159000,3.541158935546875,8.398859977722168,2.2026655673980713,-1.0103530883789062
1733231739558168800,3.5511689453125,10.426748275756836,1.6328455209732056,-0.9888052940368652
1733231739568148000,3.56114794921875,12.825738906860352,0.9552865028381348,-0.7254431247711182
1733231739578157800,3.57115771484375,15.095441818237305,0.5626373887062073,-0.6153098344802856
1733231739588167400,3.58116748046875,16.182409286499023,0.5363011956214905,-0.6272808313369751
1733231739598177300,3.59117724609375,15.971719741821289,0.6919242739677429,-0.569819986820221
1733231739608156700,3.60115673828125,14.528016090393066,1.0821791887283325,-0.5770025849342346
1733231739618166500,3.61116650390625,12.131420135498047,1.4844050407409668,-1.05105459690094
1733231739628176100,3.621176025390625,9.9000244140625,1.5825673341751099,-1.5322890281677246
1733231739638155500,3.631155517578125,7.879317760467529,1.6855180263519287,-2.0374655723571777
1733231739648165000,3.6411650390625,6.7061591148376465,1.778891921043396,-2.434903144836426
1733231739658175000,3.651175048828125,6.1530985832214355,1.7262194156646729,-2.6001031398773193
1733231739668154000,3.661154052734375,6.315904140472412,1.6543933153152466,-2.454056739807129
1733231739678164000,3.6711640625,7.060500621795654,1.5873557329177856,-1.8602946996688843
1733231739688173600,3.681173583984375,8.051700592041016,1.5969325304031372,-1.1803414821624756
1733231739698153000,3.691153076171875,8.695740699768066,1.5155296325683594,-0.7134721279144287
1733231739708162800,3.701162841796875,9.284713745117188,1.5490485429763794,-0.2082955539226532
1733231739718172400,3.71117236328125,9.48343276977539,1.577778935432434,0.10295066982507706
1733231739728151800,3.72115185546875,9.397241592407227,1.5705963373184204,0.22266076505184174
1733231739738161700,3.73116162109375,9.169792175292969,1.7142484188079834,0.1364694982767105
1733231739748171300,3.741171142578125,8.789113998413086,1.8818424940109253,-0.031124621629714966
1733231739758150400,3.751150390625,8.434772491455078,1.9536685943603516,-0.19153612852096558
1733231739768160300,3.76116015625,8.355764389038086,2.0231003761291504,-0.2753331959247589
1733231739778169900,3.771169921875,8.516175270080566,2.051830768585205,-0.2346317619085312
1733231739788149200,3.781149169921875,8.5903959274292,2.0374655723571777,-0.21308395266532898
1733231739798159000,3.7911591796875,8.650250434875488,1.9776105880737305,-0.22505496442317963
1733231739808169000,3.8011689453125,8.69095230102539,2.032677173614502,-0.2849099934101105
1733231739818148000,3.811148193359375,8.736441612243652,2.0853497982025146,-0.3902548849582672
1733231739828158000,3.821157958984375,8.578424453735352,2.1092917919158936,-0.49320554733276367
1733231739838167800,3.831167724609375,8.238448143005371,2.248155355453491,-0.524330198764801
1733231739848177400,3.841177490234375,7.886500358581543,2.3056161403656006,-0.47884035110473633
1733231739858156500,3.851156494140625,7.51779317855835,2.3798365592956543,-0.5123591423034668
1733231739868166400,3.86116650390625,7.347805023193359,2.4588451385498047,-0.6224924325942993
1733231739878176000,3.871176025390625,7.405265808105469,2.4660277366638184,-0.7398083209991455
1733231739888155400,3.8811552734375,7.762001991271973,2.43011474609375,-0.7038952708244324
1733231739898165200,3.891165283203125,8.22887134552002,2.4420857429504395,-0.6823474764823914
1733231739908174800,3.9011748046875,8.655038833618164,2.454056739807129,-0.7541735172271729
1733231739918154200,3.911154296875,8.93037223815918,2.477998733520508,-0.8571242094039917
1733231739928164000,3.9211640625,9.119514465332031,2.5761611461639404,-0.8906430602073669
1733231739938173700,3.931173583984375,9.184157371520996,2.669534921646118,-0.9289502501487732
1733231739948152800,3.94115283203125,9.181763648986816,2.7748796939849854,-0.8906430602073669
1733231739958162700,3.95116259765625,9.191340446472168,2.9257144927978516,-0.8379706144332886
1733231739968172300,3.96117236328125,9.184157371520996,3.095702886581421,-0.8451532125473022
1733231739978151700,3.971151611328125,9.066842079162598,3.184288263320923,-0.9385270476341248
1733231739988161500,3.98116162109375,8.877699851989746,3.3207578659057617,-1.1635819673538208
1733231739998171100,3.991171142578125,8.777143478393555,3.49314022064209,-1.1851298809051514
1733231740008150500,4.001150634765625,8.69334602355957,3.6080620288848877,-1.1085153818130493
1733231740018160400,4.011160400390625,8.736441612243652,3.7253777980804443,-1.0821791887283325
1733231740028170000,4.021169921875,8.892065048217773,3.8546648025512695,-1.0223240852355957
1733231740038149000,4.031149169921875,9.102754592895508,3.931279182434082,-0.8786720037460327
1733231740048159000,4.041158935546875,9.263166427612305,3.957615375518799,-0.7852981686592102
1733231740058168800,4.0511689453125,9.478644371032715,3.97916316986084,-0.7469909191131592
1733231740068148000,4.06114794921875,9.804255485534668,3.9671921730041504,-0.6871358752250671
1733231740078157800,4.07115771484375,10.259154319763184,4.0078935623168945,-0.5889736413955688
1733231740088167400,4.08116748046875,10.608707427978516,4.003105163574219,-0.5003881454467773
1733231740098177300,4.09117724609375,10.87446403503418,4.003105163574219,-0.4165911078453064
1733231740108156700,4.10115673828125,11.010933876037598,4.015076160430908,-0.4118026793003082
1733231740118166500,4.11116650390625,11.025299072265625,3.936067581176758,-0.3232172429561615
1733231740128176000,4.121176025390625,10.984597206115723,3.7876269817352295,-0.1604115068912506
1733231740138155500,4.131155517578125,10.891223907470703,3.667917013168335,0.009576806798577309
1733231740148165000,4.1411650390625,11.042057991027832,3.4763808250427246,0.3064578175544739
1733231740158175000,4.151175048828125,11.219228744506836,3.3423056602478027,0.45250412821769714
1733231740168154000,4.161154052734375,11.499350547790527,3.464409828186035,0.49320554733276367
1733231740178164000,4.1711640625,11.585541725158691,3.555389642715454,0.6607996821403503
1733231740188173600,4.181173583984375,11.27190113067627,3.531447410583496,0.8523358106613159
1733231740198153000,4.191153076171875,10.730812072753906,3.40216064453125,1.0630255937576294
1733231740208162800,4.201162841796875,10.125079154968262,2.896984100341797,1.4748282432556152
1733231740218172400,4.21117236328125,9.837775230407715,2.145204782485962,1.6735470294952393
1733231740228151800,4.22115185546875,10.366893768310547,1.3886369466781616,1.4963760375976562
1733231740238161700,4.23116162109375,11.882423400878906,0.8236053586006165,1.625662922859192
1733231740248171300,4.241171142578125,13.381193161010742,0.40222588181495667,1.7741034030914307
1733231740258150400,4.251150390625,14.815320014953613,0.4189853072166443,2.027888774871826
1733231740268160300,4.26116015625,15.138537406921387,0.5410895943641663,2.2912509441375732
1733231740278169900,4.271169921875,13.989320755004883,0.9528923034667969,2.3367409706115723
1733231740288149200,4.281149169921875,11.944672584533691,1.460463047027588,1.6352397203445435
1733231740298159000,4.2911591796875,9.385271072387695,1.6519991159439087,1.0127472877502441
1733231740308169000,4.3011689453125,7.50582218170166,1.721431016921997,0.5602431893348694
1733231740318148000,4.311148193359375,5.947196960449219,1.843535304069519,0.15801730751991272
1733231740328158000,4.321157958984375,5.4013190269470215,1.8531121015548706,0.031124621629714966
1733231740338167800,4.331167724609375,5.789179801940918,1.7166426181793213,0
1733231740348177400,4.341177490234375,6.938396453857422,1.721431016921997,0.31124621629714966
1733231740358156500,4.351156494140625,8.118738174438477,1.5442601442337036,0.9385270476341248
1733231740368166100,4.361166259765625,9.301473617553711,1.3120225667953491,1.3335703611373901
1733231740378176000,4.371176025390625,10.218452453613281,1.2689268589019775,1.5634137392044067
1733231740388155400,4.3811552734375,10.87446403503418,1.3287819623947144,1.6759412288665771
1733231740398165200,4.391165283203125,10.982203483581543,1.434126853942871,1.7357962131500244
1733231740408174800,4.4011748046875,10.520122528076172,1.4724340438842773,1.766920804977417
1733231740418154200,4.411154296875,9.720458984375,1.5921441316604614,1.6328455209732056
1733231740428164000,4.4211640625,8.647856712341309,1.7836803197860718,1.292868971824646
1733231740438173700,4.431173583984375,7.7643961906433105,1.9728221893310547,1.0989385843276978
1733231740448152800,4.44115283203125,7.12035608291626,2.126051187515259,1.0678139925003052
1733231740458162700,4.45116259765625,6.967126846313477,2.207453966140747,1.0654197931289673
1733231740468172300,4.46117236328125,7.220912456512451,2.250549554824829,0.9145850539207458
1733231740478151700,4.471151611328125,7.771578788757324,2.2888567447662354,0.8092401623725891
1733231740488161500,4.48116162109375,8.188169479370117,2.2840683460235596,0.8547300100326538
1733231740498171100,4.491171142578125,8.576030731201172,2.2697031497955322,0.871489405632019
1733231740508150500,4.501150634765625,8.681375503540039,2.2816741466522217,0.8738836050033569
1733231740518160400,4.511160400390625,8.508993148803711,2.319981336593628,0.8092401623725891
1733231740528170000,4.521169921875,8.178592681884766,2.346317768096924,0.7206547260284424
1733231740538149400,4.5311494140625,7.8314337730407715,2.382230758666992,0.6943184733390808
1733231740548159000,4.541158935546875,7.668628215789795,2.3918075561523438,0.7134721279144287
1733231740558168800,4.5511689453125,7.637503623962402,2.449268341064453,0.6943184733390808
1733231740568148000,4.56114794921875,7.718906402587891,2.5043349266052246,0.7469909191131592
1733231740578157800,4.57115771484375,8.037335395812988,2.5498247146606445,0.7757213711738586
1733231740588167400,4.58116748046875,8.432378768920898,2.5953147411346436,0.8068459630012512
1733231740598177300,4.59117724609375,8.755595207214355,2.676717519760132,0.790086567401886
1733231740608156700,4.60115673828125,9.205705642700195,2.784456491470337,0.8020575642585754
1733231740618166500,4.61116650390625,9.57201862335205,2.832340717315674,0.7374141216278076
1733231740628176100,4.621176025390625,9.856928825378418,2.9041666984558105,0.5889736413955688
1733231740638155500,4.631155517578125,9.981427192687988,3.021482467651367,0.4836287498474121
1733231740648165000,4.6411650390625,10.08437728881836,3.1483752727508545,0.33279404044151306
1733231740658175000,4.651175048828125,10.160991668701172,3.272873640060425,0.11252748221158981
1733231740668154000,4.661154052734375,10.244789123535156,3.375824451446533,-0.0933738648891449
1733231740678164000,4.6711640625,10.311826705932617,3.4739866256713867,-0.2346317619085312
1733231740688173600,4.681173583984375,10.307038307189941,3.531447410583496,-0.33279404044151306
1733231740698153000,4.691153076171875,10.321403503417969,3.531447410583496,-0.42616790533065796
1733231740708162800,4.701162841796875,10.278307914733887,3.485957622528076,-0.4572925269603729
1733231740718172400,4.71117236328125,10.342951774597168,3.3949780464172363,-0.42616790533065796
1733231740728151800,4.72115185546875,10.467450141906738,3.3303346633911133,-0.45489832758903503
1733231740738161700,4.73116162109375,10.539276123046875,3.2154128551483154,-0.4141969084739685
1733231740748171300,4.741171142578125,10.572794914245605,3.1483752727508545,-0.4189853072166443
1733231740758150400,4.751150390625,10.556035041809082,3.117250680923462,-0.5363011956214905
1733231740768160300,4.76116015625,10.445901870727539,3.1268274784088135,-0.6727706789970398
1733231740778169900,4.771169921875,10.08437728881836,3.3039982318878174,-0.9074024558067322
1733231740788149200,4.781149169921875,9.502586364746094,3.4524388313293457,-1.015141487121582
1733231740798159000,4.7911591796875,8.736441612243652,3.60566782951355,-1.314416766166687
1733231740808169000,4.8011689453125,7.95832633972168,3.177105665206909,-1.5059528350830078
1733231740818148000,4.811148193359375,7.850587368011475,2.5785553455352783,-1.8722656965255737
1733231740828158000,4.821157958984375,9.48343276977539,1.9057846069335938,-2.3582887649536133
1733231740838167800,4.831167724609375,12.15057373046875,1.1755530834197998,-1.8626888990402222
1733231740848177400,4.841177490234375,14.961366653442383,0.7398083209991455,-1.4437036514282227
1733231740858156500,4.851156494140625,16.59181785583496,0.5961562395095825,-0.7876923680305481
1733231740868166100,4.861166259765625,16.9581298828125,0.7493851184844971,-0.2513911724090576
1733231740878176000,4.871176025390625,15.832856178283691,0.9600749015808105,0.06224924325942993
1733231740888155400,4.8811552734375,13.615824699401855,1.0797849893569946,-0.36152446269989014
1733231740898165200,4.891165283203125,11.54244613647461,1.0797849893569946,-1.0845733880996704
1733231740908174800,4.9011748046875,9.557653427124023,1.0342950820922852,-1.4867992401123047
1733231740918154200,4.911154296875,8.846575736999512,1.0989385843276978,-1.6615760326385498
1733231740928164000,4.9211640625,9.121908187866211,0.912190854549408,-1.5179238319396973
1733231740938173700,4.931173583984375,9.923966407775879,0.7589619159698486,-1.2210428714752197
1733231740948152800,4.94115283203125,10.326191902160645,0.730231523513794,-0.7182605266571045
1733231740958162700,4.95116259765625,10.1753568649292,0.8475474119186401,-0.181959331035614
1733231740968172300,4.96117236328125,9.59835433959961,0.9050082564353943,0.05027823522686958
1733231740978151700,4.971151611328125,8.712499618530273,1.05105459690094,0.05267243832349777
1733231740988161500,4.98116162109375,7.982268333435059,1.2689268589019775,0.10295066982507706
1733231740998171100,4.991171142578125,7.113173484802246,1.45806884765625,0.10055647045373917
1733231741008150500,5.001150634765625,6.555324077606201,1.5849615335464478,0.05506663769483566
1733231741018160400,5.011160400390625,6.270414352416992,1.678335428237915,0.021547814831137657
1733231741028170000,5.021169921875,6.335057735443115,1.723825216293335,0.016759412363171577
1733231741038149400,5.0311494140625,6.517016887664795,1.6831238269805908,-0.05985504388809204
1733231741048159000,5.041158935546875,6.933608055114746,1.699883222579956,-0.05746084079146385
1733231741058168800,5.0511689453125,7.285555839538574,1.7262194156646729,-0.08140286058187485
1733231741068148000,5.06114794921875,7.680599212646484,1.7764976024627686,-0.1843535304069519
1733231741078157800,5.07115771484375,8.159439086914062,1.8100165128707886,-0.15562310814857483
1733231741088167400,5.08116748046875,8.554482460021973,1.8171991109848022,-0.16759411990642548
1733231741098177300,5.09117724609375,8.848969459533691,1.8483237028121948,-0.1843535304069519
1733231741108156700,5.10115673828125,9.028534889221191,1.9153614044189453,-0.19871874153614044
1733231741118166500,5.11116650390625,9.167398452758789,1.9752163887023926,-0.2322375625371933
1733231741128176000,5.121176025390625,9.265560150146484,1.9800047874450684,-0.3758896589279175
1733231741138155500,5.131155517578125,9.282320022583008,2.013523578643799,-0.45250412821769714
1733231741148165000,5.1411650390625,9.141061782836914,2.0805611610412598,-0.5267243981361389
1733231741158175000,5.151175048828125,8.81784439086914,2.1715409755706787,-0.5793967843055725
1733231741168154000,5.161154052734375,8.461109161376953,2.2673089504241943,-0.6320692300796509
1733231741178164000,5.1711640625,8.106766700744629,2.3080103397369385,-0.689530074596405
1733231741188173600,5.181173583984375,7.903259754180908,2.43011474609375,-0.6871358752250671
1733231741198153000,5.191153076171875,7.994239330291748,2.5091233253479004,-0.6584054827690125
1733231741208162800,5.201162841796875,8.11634349822998,2.580949544906616,-0.6153098344802856
1733231741218172400,5.21117236328125,8.276755332946777,2.760514497756958,-0.629675030708313
1733231741228151800,5.22115185546875,8.413225173950195,2.868253707885742,-0.646434485912323
1733231741238161700,5.23116162109375,8.628703117370605,2.9496564865112305,-0.7086837291717529
1733231741248171300,5.241171142578125,8.956708908081055,3.066972494125366,-0.7805097699165344
1733231741258150400,5.251150390625,9.294290542602539,3.155557870864868,-0.7230489253997803
1733231741268160300,5.26116015625,9.502586364746094,3.2082302570343018,-0.6248866319656372
1733231741278169900,5.271169921875,9.521739959716797,3.2585084438323975,-0.5722141861915588
1733231741288149200,5.281149169921875,9.346963882446289,3.292027235031128,-0.40940847992897034
1733231741298159000,5.2911591796875,9.241618156433105,3.31118106842041,-0.40222588181495667
1733231741308169000,5.3011689453125,9.215282440185547,3.3686418533325195,-0.3256114423274994
1733231741318148000,5.311148193359375,9.246406555175781,3.375824451446533,-0.1843535304069519
1733231741328158000,5.321157958984375,9.445125579833984,3.361459255218506,-0.11971008777618408
1733231741338167800,5.331167724609375,9.68933391571045,3.3949780464172363,-0.0933738648891449
1733231741348177400,5.341177490234375,9.904812812805176,3.337517261505127,-0.047884032130241394
1733231741358156500,5.351156494140625,10.144232749938965,3.31118106842041,0
1733231741368166100,5.361166259765625,10.36449909210205,3.2848446369171143,-0.021547814831137657
1733231741378176000,5.371176025390625,10.630255699157715,3.2417490482330322,0.05506663769483566
1733231741388155400,5.3811552734375,10.81460952758789,3.272873640060425,0.11013327538967133
1733231741398165200,5.391165283203125,10.848128318786621,3.3446998596191406,0.1412578970193863
1733231741408174800,5.4011748046875,10.699687004089355,3.4548330307006836,0.2106897532939911
1733231741418154200,5.411154296875,10.285490036010742,3.4308910369873047,0.45489832758903503
1733231741428164000,5.4211640625,9.849745750427246,3.359065055847168,0.6919242739677429
1733231741438173700,5.431173583984375,9.272743225097656,3.023876667022705,1.0534487962722778
1733231741448152800,5.44115283203125,8.78432559967041,2.4181437492370605,1.4676456451416016
1733231741458162700,5.45116259765625,8.951920509338379,1.843535304069519,1.4891934394836426
1733231741468172300,5.46117236328125,10.630255699157715,1.4173674583435059,1.5514427423477173
1733231741478151700,5.471151611328125,13.496114730834961,1.0055646896362305,2.427720546722412
1733231741488161500,5.48116162109375,15.909470558166504,0.8858546018600464,2.612074136734009
1733231741498171100,5.491171142578125,16.910245895385742,0.8882488012313843,2.75812029838562
1733231741508150500,5.501150634765625,16.63970184326172,1.036689281463623,2.9927520751953125
1733231741518160400,5.511160400390625,14.982913970947266,1.2306196689605713,3.093308687210083
1733231741528170000,5.521169921875,12.301408767700195,1.525106430053711,2.1284453868865967
1733231741538149400,5.5311494140625,9.68694019317627,1.6496049165725708,1.3670891523361206
1733231741548159000,5.541158935546875,7.139509677886963,1.6639702320098877,0.8044517636299133
1733231741558168800,5.5511689453125,5.623979568481445,1.7334020137786865,0.3016694188117981
1733231741568148200,5.561148193359375,5.027823448181152,1.8315643072128296,0.0071826050989329815
1733231741578157800,5.57115771484375,5.343858242034912,1.845929503440857,-0.05027823522686958
1733231741588167700,5.581167724609375,6.538564682006836,1.7932571172714233,0.272938996553421
1733231741598177300,5.59117724609375,8.018181800842285,1.6496049165725708,1.0319008827209473
1733231741608156700,5.60115673828125,9.196128845214844,1.4293384552001953,1.5538369417190552
1733231741618166300,5.611166259765625,10.287884712219238,1.4077905416488647,1.5945383310317993
1733231741628176100,5.621176025390625,10.975020408630371,1.4652514457702637,1.4460978507995605
1733231741638155500,5.631155517578125,11.305420875549316,1.479616641998291,1.2856862545013428
1733231741648165000,5.6411650390625,11.173739433288574,1.4460978507995605,1.1444283723831177
1733231741658175000,5.651175048828125,10.915165901184082,1.5394717454910278,0.8667010068893433
1733231741668154000,5.661154052734375,10.606313705444336,1.647210717201233,0.730231523513794
1733231741678164000,5.6711640625,10.070012092590332,1.6974890232086182,0.7757213711738586
1733231741688173600,5.681173583984375,9.830592155456543,1.764526605606079,0.8427590131759644
1733231741698153000,5.691153076171875,9.651026725769043,1.766920804977417,0.7876923680305481
1733231741708162800,5.701162841796875,9.366117477416992,1.7310078144073486,0.6967126727104187
1733231741718172400,5.71117236328125,8.995016098022461,1.7741034030914307,0.6248866319656372
1733231741728151800,5.72115185546875,8.667010307312012,1.7501614093780518,0.5219359993934631
1733231741738161700,5.73116162109375,8.497021675109863,1.8052281141281128,0.40462008118629456
1733231741748171300,5.741171142578125,8.554482460021973,1.987187385559082,0.38307225704193115
1733231741758150400,5.751150390625,8.743624687194824,1.9249382019042969,0.3447650372982025
1733231741768160300,5.76116015625,8.951920509338379,1.8722656965255737,0.26336219906806946
1733231741778169900,5.771169921875,8.889671325683594,1.922544002532959,0.2849099934101105
1733231741788149200,5.781149169921875,8.573636054992676,2.030282974243164,0.42377370595932007
1733231741798159000,5.7911591796875,8.458714485168457,2.0470423698425293,0.5123591423034668
1733231741808168700,5.801168701171875,8.494627952575684,2.099714994430542,0.5003881454467773
1733231741818148000,5.811148193359375,8.621520042419434,2.1499931812286377,0.524330198764801
1733231741828158000,5.821157958984375,8.652645111083984,2.070984363555908,0.6560112833976746
1733231741838167600,5.83116748046875,8.638279914855957,2.0374655723571777,0.7445967197418213
1733231741848177400,5.841177490234375,8.520963668823242,2.185906171798706,0.6871358752250671
1733231741858156500,5.851156494140625,8.4108304977417,2.3271639347076416,0.6440402865409851
1733231741868166400,5.86116650390625,8.78432559967041,2.3582887649536133,0.667982280254364
1733231741878176000,5.871176025390625,9.294290542602539,2.4013843536376953,0.5578489899635315
1733231741888155400,5.8811552734375,9.830592155456543,2.4803929328918457,0.3519476354122162
1733231741898165000,5.8911650390625,9.81143856048584,2.559401512145996,0.38307225704193115
1733231741908174800,5.9011748046875,9.48343276977539,2.585737943649292,0.47405192255973816
1733231741918154200,5.911154296875,9.188945770263672,2.7102363109588623,0.5171475410461426
1733231741928164000,5.9211640625,9.121908187866211,2.7964274883270264,0.43335050344467163
1733231741938174000,5.931174072265625,9.167398452758789,2.8179752826690674,0.3734954595565796
1733231741948152800,5.94115283203125,9.296685218811035,2.806004285812378,0.2753331959247589
1733231741958162700,5.95116259765625,9.188945770263672,2.9017724990844727,0.16759411990642548
1733231741968172300,5.96117236328125,9.102754592895508,2.9735984802246094,0.2753331959247589
1733231741978151700,5.971151611328125,9.402029991149902,2.9257144927978516,0.28730419278144836
1733231741988161500,5.98116162109375,9.708487510681152,2.894589900970459,0.17717093229293823
1733231741998172000,5.991171875,9.797073364257812,2.8658595085144043,0.19153612852096558
1733231742008150500,6.001150634765625,9.696516990661621,2.875436305999756,0.2777273952960968
1733231742018160400,6.011160400390625,9.701305389404297,3.0190882682800293,0.20111294090747833
1733231742028170000,6.021169921875,9.734824180603027,3.090914487838745,0.16759411990642548
1733231742038149400,6.0311494140625,9.428366661071777,3.179499864578247,0.08619125932455063
1733231742048159000,6.041158935546875,8.69334602355957,3.098097085952759,-0.2082955539226532
1733231742058168800,6.0511689453125,7.841010570526123,2.7940332889556885,-0.4596867263317108
1733231742068148000,6.06114794921875,7.47230339050293,2.4875755310058594,-0.6009446382522583
1733231742078157800,6.07115771484375,8.456320762634277,2.032677173614502,-0.40701428055763245
1733231742088167400,6.08116748046875,10.244789123535156,1.7381904125213623,-0.07182604819536209
1733231742098177300,6.09117724609375,12.310985565185547,1.4437036514282227,0.1604115068912506
1733231742108156700,6.10115673828125,13.706804275512695,1.0965443849563599,0.24660277366638184
1733231742118166500,6.11116650390625,14.413094520568848,1.3263877630233765,0.2537853717803955
1733231742128176000,6.121176025390625,14.67406177520752,1.6927006244659424,0.15322890877723694
1733231742138155500,6.131155517578125,13.792996406555176,1.4389152526855469,-0.38307225704193115
1733231742148165400,6.141165283203125,12.593501091003418,1.3024457693099976,-0.9744400978088379
1733231742158175000,6.151175048828125,11.224017143249512,1.2234370708465576,-1.0558429956436157
1733231742168154000,6.161154052734375,10.311826705932617,1.216254472732544,-1.2976573705673218
1733231742178164000,6.1711640625,9.751583099365234,1.0534487962722778,-1.4221558570861816
1733231742188173600,6.181173583984375,9.651026725769043,0.9409212470054626,-0.950498104095459
1733231742198153000,6.191153076171875,9.509769439697266,0.9911994934082031,-0.5267243981361389
1733231742208162800,6.201162841796875,9.136273384094238,0.9289502501487732,-0.15562310814857483
1733231742218172400,6.21117236328125,9.138668060302734,1.039083480834961,0.07661445438861847
1733231742228151800,6.22115185546875,9.830592155456543,0.9002198576927185,0.23702596127986908
1733231742238161700,6.23116162109375,9.239224433898926,1.0247182846069336,-0.6871358752250671
1733231742248171300,6.241171142578125,8.300697326660156,1.0678139925003052,-0.48602294921875
1733231742258150400,6.251150390625,8.073247909545898,1.0773907899856567,-0.31364041566848755
1733231742268160300,6.26116015625,7.515398979187012,1.1635819673538208,-0.4189853072166443
1733231742278169900,6.271169921875,6.976703643798828,1.194706678390503,-0.6536170840263367
1733231742288149200,6.281149169921875,6.959944248199463,1.1803414821624756,-0.6919242739677429
1733231742298159000,6.2911591796875,7.232883453369141,1.259350061416626,-0.6847416758537292
1733231742308169000,6.3011689453125,7.7763671875,1.072602391242981,-0.6703764796257019
1733231742318148000,6.311148193359375,8.497021675109863,0.8140285611152649,-0.6727706789970398
1733231742328158000,6.321157958984375,8.942343711853027,0.8930372595787048,-0.751779317855835
1733231742338167800,6.331167724609375,9.660603523254395,0.8355764150619507,-0.524330198764801
