time,seconds_elapsed,z,y,x
1733230293023908900,0.473908935546875,0.057682037353515625,0.0066814422607421875,0.003634840250015259
1733230293034058800,0.484058837890625,0.0988016128540039,0.026099085807800293,0.01702815294265747
1733230293044038100,0.4940380859375,0.03558158874511719,0.05977976322174072,0.03308245539665222
1733230293054047700,0.5040478515625,-0.04088783264160156,0.09564852714538574,0.01130688190460205
1733230293064057300,0.514057373046875,-0.16356563568115234,0.06062805652618408,-0.02975127100944519
1733230293074036700,0.52403662109375,-0.2678871154785156,0.03821694850921631,-0.0875975489616394
1733230293084046300,0.53404638671875,-0.3423328399658203,0.0008866786956787109,-0.18091551959514618
1733230293094056200,0.54405615234375,-0.3479747772216797,-0.014841079711914062,-0.2321358323097229
1733230293104035600,0.55403564453125,-0.26214027404785156,0.0019990205764770508,-0.20029449462890625
1733230293114045200,0.564045166015625,-0.16463756561279297,-0.02737724781036377,-0.07945485413074493
1733230293124055000,0.574054931640625,-0.10523796081542969,-0.029018640518188477,-0.0063918232917785645
1733230293134034400,0.584034423828125,-0.026169776916503906,-0.007576584815979004,0.006577819585800171
1733230293144044000,0.5940439453125,0.06026744842529297,0.013292551040649414,0.02804848551750183
1733230293154054000,0.604053955078125,0.20853137969970703,0.015490412712097168,0.02464154362678528
1733230293164033000,0.614032958984375,0.33645153045654297,-0.015767216682434082,0.04546043276786804
1733230293174042600,0.624042724609375,0.44700145721435547,-0.03495323657989502,0.04236459732055664
1733230293184052500,0.634052490234375,0.5072412490844727,-0.03982079029083252,0.0828850269317627
1733230293194031900,0.644031982421875,0.49620914459228516,-0.032091498374938965,0.13014397025108337
1733230293204041500,0.65404150390625,0.4660367965698242,-0.044693708419799805,0.13199371099472046
1733230293214051300,0.66405126953125,0.4936227798461914,-0.028543591499328613,0.1284778118133545
1733230293224030700,0.67403076171875,0.5209531784057617,-0.026073455810546875,0.06977760791778564
1733230293234040300,0.684040283203125,0.5686511993408203,-0.024580955505371094,-0.025265783071517944
1733230293244050200,0.69405029296875,0.5730962753295898,-0.04215538501739502,-0.06328094005584717
1733230293254029300,0.704029296875,0.5301542282104492,0.0060797929763793945,-0.13536174595355988
1733230293264039000,0.714038818359375,0.40985584259033203,0.05896162986755371,-0.11671382188796997
1733230293274048800,0.724048828125,0.21094989776611328,0.07309842109680176,-0.03865694999694824
1733230293284028200,0.734028076171875,-0.04430961608886719,0.08564960956573486,0.10453754663467407
1733230293294037800,0.744037841796875,-0.2221660614013672,0.09907126426696777,0.20051229000091553
1733230293304047600,0.754047607421875,-0.30826854705810547,0.11878156661987305,0.1796482801437378
1733230293314057500,0.764057373046875,-0.2944478988647461,0.20703959465026855,0.13138055801391602
1733230293324036900,0.774036865234375,-0.28803539276123047,0.2565622329711914,0.08286893367767334
1733230293334046500,0.78404638671875,-0.2625751495361328,0.27085113525390625,0.03267282247543335
1733230293344056300,0.794056396484375,-0.14861583709716797,0.22328400611877441,0.050642162561416626
1733230293354035500,0.804035400390625,-0.02520275115966797,0.1787872314453125,0.06276264786720276
1733230293364045000,0.814045166015625,0.1531381607055664,0.11606979370117188,-0.060519278049468994
1733230293374055000,0.824054931640625,0.30025386810302734,0.07583057880401611,-0.10939544439315796
1733230293384034300,0.834034423828125,0.4306316375732422,0.007113456726074219,-0.06105756759643555
1733230293394044000,0.8440439453125,0.4678335189819336,-0.017287611961364746,0.06029859185218811
1733230293404053800,0.8540537109375,0.4550151824951172,-0.08154523372650146,0.08877179026603699
1733230293414033200,0.864033203125,0.46407413482666016,-0.10254931449890137,0.0005464255809783936
1733230293424042800,0.874042724609375,0.45430469512939453,-0.1523280143737793,-0.2037765085697174
1733230293434052600,0.884052490234375,0.3227195739746094,-0.1946309208869934,-0.3566598892211914
1733230293444031700,0.89403173828125,0.1051187515258789,-0.24810630083084106,-0.5259461402893066
1733230293454041600,0.90404150390625,-0.16276836395263672,-0.24248987436294556,-0.7017370462417603
1733230293464051200,0.91405126953125,-0.31148719787597656,-0.2604016065597534,-0.7341286540031433
1733230293474030600,0.924030517578125,-0.33872413635253906,-0.2905789613723755,-0.5950988531112671
1733230293484040200,0.934040283203125,-0.2540712356567383,-0.3364803194999695,-0.47320878505706787
1733230293494050000,0.944050048828125,-0.11729717254638672,-0.33167797327041626,-0.40916207432746887
1733230293504029400,0.954029541015625,0.10521888732910156,-0.3106115460395813,-0.34936684370040894
1733230293514039000,0.9640390625,0.23167800903320312,-0.3292611837387085,-0.1492193341255188
1733230293524049000,0.974048828125,0.27216529846191406,-0.3650018572807312,0.07695314288139343
1733230293534028300,0.9840283203125,0.3035697937011719,-0.2840893268585205,0.08711804449558258
1733230293544038000,0.994037841796875,0.23725605010986328,-0.27089715003967285,0.09079521894454956
1733230293554047700,1.0040478515625,0.0994577407836914,-0.26978909969329834,-0.044740229845047
1733230293564057600,1.0140576171875,-0.062056541442871094,-0.22283411026000977,-0.2760714292526245
1733230293574036700,1.02403662109375,-0.21389389038085938,-0.15798038244247437,-0.3810603618621826
1733230293584046300,1.03404638671875,-0.3632793426513672,-0.13248759508132935,-0.40182942152023315
1733230293594056200,1.04405615234375,-0.4935464859008789,-0.08566302061080933,-0.40256404876708984
1733230293604035600,1.05403564453125,-0.5544624328613281,0.00738602876663208,-0.38074982166290283
1733230293614045200,1.064045166015625,-0.4719209671020508,0.04977679252624512,-0.3270007371902466
1733230293624055000,1.074054931640625,-0.27230167388916016,0.08047068119049072,-0.21807964146137238
1733230293634034400,1.084034423828125,-0.09921836853027344,0.08254176378250122,-0.11925888061523438
1733230293644044000,1.0940439453125,0.08813858032226562,0.05964016914367676,-0.06356664001941681
1733230293654053600,1.1040537109375,0.2156839370727539,0.07260149717330933,-0.010249614715576172
1733230293664033000,1.114032958984375,0.2380514144897461,0.03642064332962036,0.041966721415519714
1733230293674042600,1.124042724609375,0.10516834259033203,0.020536303520202637,-0.012862071394920349
1733230293684052500,1.134052490234375,0.02761363983154297,0.04274284839630127,-0.11919036507606506
1733230293694032000,1.144031982421875,-0.10487079620361328,0.008443117141723633,-0.21611888706684113
1733230293704041500,1.15404150390625,-0.19421958923339844,-0.012052595615386963,-0.26860344409942627
1733230293714051300,1.16405126953125,-0.24532032012939453,-0.020093083381652832,-0.2756270170211792
1733230293724030700,1.17403076171875,-0.18163490295410156,-0.017039239406585693,-0.21343788504600525
1733230293734040600,1.18404052734375,-0.03676128387451172,-0.013589084148406982,-0.10031764209270477
1733230293744050200,1.19405029296875,0.20603466033935547,-0.009012043476104736,-0.043549586087465286
1733230293754029300,1.204029296875,0.47032928466796875,0.008827686309814453,-0.031841300427913666
1733230293764039000,1.214038818359375,0.6006631851196289,0.023585498332977295,0.022221937775611877
1733230293774048800,1.224048828125,0.530156135559082,0.0664975643157959,0.04492175579071045
1733230293784028200,1.234028076171875,0.4336519241333008,0.11236768960952759,0.06378761678934097
1733230293794038000,1.2440380859375,0.2848062515258789,0.19464105367660522,0.11299202591180801
1733230293804047600,1.254047607421875,0.12665557861328125,0.2637392282485962,0.10617948323488235
1733230293814057500,1.264057373046875,0.019003868103027344,0.3035149574279785,0.04141821712255478
1733230293824036600,1.27403662109375,-0.09332847595214844,0.3465425968170166,0.03948620706796646
1733230293834046500,1.28404638671875,-0.16487407684326172,0.3525422215461731,0.1355624496936798
1733230293844056300,1.294056396484375,-0.18611526489257812,0.3486996293067932,0.26209959387779236
1733230293854035500,1.304035400390625,-0.17862606048583984,0.32105720043182373,0.29686489701271057
1733230293864045000,1.314045166015625,-0.1304779052734375,0.3109283447265625,0.258606493473053
1733230293874055000,1.324054931640625,-0.09681034088134766,0.2569730877876282,0.23890331387519836
1733230293884034300,1.334034423828125,0.2577676773071289,0.4345836043357849,0.6064215898513794
1733230293894044000,1.3440439453125,0.6265659332275391,0.4130370020866394,0.9720327854156494
1733230293904053800,1.3540537109375,0.8056802749633789,0.2733168601989746,1.0482361316680908
1733230293914033000,1.364032958984375,0.8045167922973633,0.23958855867385864,0.581220269203186
1733230293924042800,1.374042724609375,0.7558460235595703,0.09989786148071289,0.06597346812486649
1733230293934052600,1.384052490234375,0.5687952041625977,0.11273026466369629,-0.3191855251789093
1733230293944031700,1.39403173828125,0.16199016571044922,0.07362616062164307,-0.4808058738708496
1733230293954041600,1.40404150390625,-0.4286327362060547,0.16869395971298218,-0.6061569452285767
1733230293964051200,1.41405126953125,-0.8511285781860352,0.2976706027984619,-0.5027726292610168
1733230293974030600,1.424030517578125,-0.1794729232788086,0.30262017250061035,-0.26416727900505066
1733230293984040400,1.43404052734375,0.3961467742919922,0.2898350954055786,-0.0025364235043525696
1733230293994050000,1.444050048828125,0.39022350311279297,0.27346086502075195,-0.04876750335097313
1733230294004029400,1.454029541015625,0.549860954284668,0.3250252604484558,-0.3739687204360962
1733230294014039000,1.4640390625,0.5366411209106445,0.31126630306243896,-0.5352737903594971
1733230294024049000,1.474048828125,0.1701374053955078,0.5404021143913269,-0.3435330092906952
1733230294034028300,1.4840283203125,-0.34906578063964844,0.6555221080780029,-0.2552027106285095
1733230294044038000,1.494037841796875,-0.9645462036132812,0.735598087310791,-0.2190132588148117
1733230294054047700,1.5040478515625,-1.4579925537109375,0.7985225915908813,-0.10817104578018188
1733230294064057300,1.514057373046875,-1.79146146774292,0.8954328298568726,0.008955180644989014
1733230294074036700,1.52403662109375,-1.8816609382629395,0.8145092725753784,0.04563084989786148
1733230294084046300,1.53404638671875,-1.8204283714294434,0.7015870809555054,0.053116343915462494
1733230294094056200,1.54405615234375,-1.6025505065917969,0.6804473400115967,-0.24258792400360107
1733230294104035300,1.554035400390625,-1.2263116836547852,0.5016622543334961,-0.12889918684959412
1733230294114045200,1.564045166015625,-0.7138242721557617,0.2587379217147827,-0.1649288684129715
1733230294124055000,1.574054931640625,-0.11397933959960938,0.06968355178833008,-0.15668311715126038
1733230294134034400,1.584034423828125,0.8273429870605469,-0.05462300777435303,-0.20198728144168854
1733230294144044000,1.5940439453125,1.3904962539672852,-0.042550086975097656,-0.36385399103164673
1733230294154054000,1.604053955078125,1.8129024505615234,-0.059073448181152344,-0.2572248578071594
1733230294164033000,1.614032958984375,2.1307296752929688,-0.038379549980163574,-0.034653231501579285
1733230294174042600,1.624042724609375,2.1836843490600586,-0.03263586759567261,0.12472334504127502
1733230294184052500,1.634052490234375,2.0512638092041016,-0.038392722606658936,0.15851804614067078
1733230294194031900,1.644031982421875,1.9006004333496094,-0.05517858266830444,0.17192277312278748
1733230294204041500,1.65404150390625,1.6981000900268555,-0.019832313060760498,0.09635733813047409
1733230294214051300,1.66405126953125,1.4102020263671875,0.053622305393218994,0.017561014741659164
1733230294224030700,1.67403076171875,0.9961776733398438,0.21083825826644897,-0.20531632006168365
1733230294234040300,1.684040283203125,0.760075569152832,0.4925212860107422,-0.16365382075309753
1733230294244050200,1.69405029296875,-0.0092620849609375,0.5642454624176025,-0.19690850377082825
1733230294254029300,1.704029296875,-0.7825403213500977,0.7045401930809021,-0.5534049272537231
1733230294264039000,1.714038818359375,-1.0960607528686523,0.8304804563522339,-0.3405601382255554
1733230294274048800,1.724048828125,-1.2065343856811523,0.8585444688796997,-0.06410031765699387
1733230294284028200,1.734028076171875,-1.1855049133300781,0.80250084400177,-0.20322807133197784
1733230294294037800,1.744037841796875,-0.9712619781494141,0.70313560962677,-0.3889595568180084
1733230294304047600,1.754047607421875,-0.772038459777832,0.6482868194580078,-0.5263168215751648
1733230294314057500,1.764057373046875,-0.6283931732177734,0.6125689744949341,-0.5273988842964172
1733230294324036900,1.774036865234375,-0.44435691833496094,0.620457649230957,-0.39453989267349243
1733230294334046500,1.78404638671875,-0.2821006774902344,0.6306940317153931,-0.31347963213920593
1733230294344056000,1.79405615234375,-0.15334701538085938,0.6051144599914551,-0.30818161368370056
1733230294354035500,1.804035400390625,-0.12987709045410156,0.5984690189361572,-0.44580507278442383
1733230294364045000,1.814045166015625,-0.11582756042480469,0.5715377330780029,-0.5240273475646973
1733230294374055000,1.824054931640625,-0.10174369812011719,0.3329569101333618,-0.3962253928184509
1733230294384034300,1.834034423828125,0.024147987365722656,0.30892086029052734,0.022528350353240967
1733230294394044000,1.8440439453125,-0.042059898376464844,0.22036373615264893,-0.1471441090106964
1733230294404053800,1.8540537109375,-0.10420036315917969,0.14613330364227295,-0.25087013840675354
1733230294414033200,1.864033203125,-0.0025911331176757812,0.15166282653808594,-0.3125252425670624
1733230294424042800,1.874042724609375,0.112030029296875,0.13845598697662354,-0.22920161485671997
1733230294434052600,1.884052490234375,0.2875823974609375,0.1760796308517456,-0.1250927448272705
1733230294444031700,1.89403173828125,0.3020915985107422,0.1920105218887329,-0.15350502729415894
1733230294454041600,1.90404150390625,0.24974918365478516,0.20878839492797852,-0.16708296537399292
1733230294464051200,1.91405126953125,0.2780942916870117,0.2515486478805542,-0.06959301233291626
1733230294474030600,1.924030517578125,0.3690032958984375,0.32282328605651855,-0.08205634355545044
1733230294484040200,1.934040283203125,0.3789196014404297,0.38907742500305176,-0.08793836832046509
1733230294494050000,1.944050048828125,0.43975257873535156,0.5139356851577759,-0.08388829231262207
1733230294504029400,1.954029541015625,0.3695802688598633,0.5345327854156494,-0.14378446340560913
1733230294514039000,1.9640390625,0.06587409973144531,0.5543065071105957,-0.48404377698898315
1733230294524049000,1.974048828125,0.06959819793701172,0.5430165529251099,-0.4438450336456299
1733230294534028300,1.9840283203125,0.006924629211425781,0.5560808181762695,-0.43285518884658813
1733230294544038000,1.994037841796875,0.06178092956542969,0.6120524406433105,-0.41018539667129517
1733230294554047700,2.0040478515625,0.1638650894165039,0.5703871250152588,-0.19924390316009521
1733230294564057300,2.014057373046875,0.16724586486816406,0.48265767097473145,0.002549111843109131
1733230294574036700,2.02403662109375,0.33286094665527344,0.5355212688446045,0.08924797177314758
1733230294584046300,2.03404638671875,0.25412464141845703,0.528952956199646,0.06653416156768799
1733230294594056200,2.04405615234375,0.10402297973632812,0.5847066640853882,0.0029691457748413086
1733230294604035600,2.05403564453125,-0.06925201416015625,0.6369930505752563,0.08663049340248108
1733230294614045200,2.064045166015625,-0.2227621078491211,0.6196879148483276,0.2910851836204529
1733230294624055000,2.074054931640625,-0.19933605194091797,0.518092155456543,0.54236900806427
1733230294634034400,2.084034423828125,-0.05759620666503906,0.2988492250442505,0.8494491577148438
1733230294644044000,2.0940439453125,0.1178293228149414,0.05179941654205322,0.8973574042320251
1733230294654054000,2.104053955078125,0.44382572174072266,-0.06772005558013916,0.9206497669219971
1733230294664033000,2.114032958984375,0.9724912643432617,-0.12932312488555908,1.0127675533294678
1733230294674042600,2.124042724609375,1.4247808456420898,-0.33542513847351074,1.1795222759246826
1733230294684052500,2.134052490234375,1.925623893737793,-0.7953327894210815,1.5957832336425781
1733230294694032000,2.144031982421875,2.441250801086426,-1.5434391498565674,2.1393823623657227
1733230294704041700,2.154041748046875,2.967923164367676,-2.678264856338501,2.031097173690796
1733230294714051300,2.16405126953125,3.565908432006836,-3.8801279067993164,1.6077553033828735
1733230294724030700,2.17403076171875,4.430513381958008,-4.658437252044678,0.946311354637146
1733230294734040600,2.18404052734375,5.0047760009765625,-4.8083086013793945,0.12651267647743225
1733230294744050200,2.19405029296875,4.643527984619141,-4.604397773742676,-0.0019397437572479248
1733230294754029300,2.204029296875,3.6642560958862305,-3.987311601638794,-0.4159890115261078
1733230294764039000,2.214038818359375,1.9883537292480469,-3.3701400756835938,-0.1872105598449707
1733230294774048800,2.224048828125,0.29717445373535156,-2.640373706817627,0.14547273516654968
1733230294784028200,2.234028076171875,-1.2335271835327148,-2.3219363689422607,0.7761844992637634
1733230294794038000,2.2440380859375,-2.546306610107422,-1.738387107849121,1.0777541399002075
1733230294804047600,2.254047607421875,-3.4715542793273926,-1.3423758745193481,1.3360105752944946
1733230294814057500,2.264057373046875,-4.238454818725586,-0.9855006337165833,1.64337158203125
1733230294824036600,2.27403662109375,-4.458991050720215,-0.8632091283798218,1.944298505783081
1733230294834046500,2.28404638671875,-4.075613975524902,-1.0805964469909668,2.139463424682617
1733230294844056300,2.294056396484375,-3.296450138092041,-1.2455804347991943,2.18428373336792
1733230294854035500,2.304035400390625,-2.104004383087158,-1.4520061016082764,1.9957630634307861
1733230294864045000,2.314045166015625,-1.0375747680664062,-1.562618374824524,1.656947135925293
1733230294874055000,2.324054931640625,0.5080175399780273,-1.3143174648284912,1.520758867263794
1733230294884034300,2.334034423828125,0.6240100860595703,-1.5558092594146729,0.7914786338806152
1733230294894044000,2.3440439453125,0.7334756851196289,-1.8918704986572266,0.45348310470581055
1733230294904053800,2.3540537109375,0.8004817962646484,-2.0759787559509277,-0.11631911993026733
1733230294914033200,2.364033203125,1.0534639358520508,-2.074249744415283,-0.39551842212677
1733230294924042800,2.374042724609375,1.6110239028930664,-1.8158950805664062,-0.31509655714035034
1733230294934052600,2.384052490234375,1.9207477569580078,-1.589744210243225,-0.17785102128982544
1733230294944031700,2.39403173828125,1.8297882080078125,-1.4527575969696045,-0.10343325138092041
1733230294954041600,2.40404150390625,1.5054550170898438,-1.3729957342147827,-0.21309542655944824
1733230294964051500,2.414051513671875,0.9977169036865234,-1.1679329872131348,-0.24870502948760986
1733230294974030600,2.424030517578125,0.4023017883300781,-1.0016889572143555,-0.12584835290908813
1733230294984040400,2.43404052734375,-0.3444385528564453,-0.8511397838592529,0.1211010217666626
1733230294994050000,2.444050048828125,-0.9584445953369141,-0.782783567905426,0.2630799412727356
1733230295004029400,2.454029541015625,-1.157942771911621,-0.6863610744476318,0.25267159938812256
1733230295014039000,2.4640390625,-0.8055229187011719,-0.48418259620666504,0.3580244779586792
1733230295024049000,2.474048828125,-0.869105339050293,-0.5067511796951294,0.19476884603500366
1733230295034028300,2.4840283203125,-0.8502922058105469,-0.3566467761993408,0.16815733909606934
1733230295044038100,2.4940380859375,-0.9333963394165039,-0.12193048000335693,0.3989662230014801
1733230295054047700,2.5040478515625,-1.2523231506347656,0.14599275588989258,0.6376500129699707
1733230295064057300,2.514057373046875,-1.5075006484985352,0.3310573101043701,0.7843220233917236
1733230295074036500,2.524036376953125,-1.5969772338867188,0.5527849197387695,0.9152930378913879
1733230295084046300,2.53404638671875,-1.7917423248291016,0.6176505088806152,1.0541937351226807
1733230295094056200,2.54405615234375,-2.029913902282715,0.524665355682373,1.1945831775665283
1733230295104035600,2.55403564453125,-1.8834023475646973,0.5092548131942749,1.3209154605865479
1733230295114045200,2.564045166015625,-1.7594847679138184,0.37487733364105225,1.3587448596954346
1733230295124055000,2.574054931640625,-1.4021739959716797,0.1942451000213623,1.368199348449707
1733230295134034400,2.584034423828125,-0.910038948059082,0.06412267684936523,1.2802433967590332
1733230295144044000,2.5940439453125,-0.26076698303222656,-0.029053092002868652,1.1529275178909302
1733230295154054000,2.604053955078125,0.19411277770996094,-0.014200210571289062,1.0875898599624634
1733230295164033000,2.614032958984375,0.5509166717529297,0.033225178718566895,1.0642437934875488
1733230295174042600,2.624042724609375,0.6710758209228516,0.04724156856536865,1.1170023679733276
1733230295184052500,2.634052490234375,0.5217094421386719,0.0721198320388794,1.153191089630127
1733230295194031900,2.644031982421875,0.30602359771728516,0.008352994918823242,0.8382130265235901
1733230295204041500,2.65404150390625,0.04587268829345703,-0.10286903381347656,0.8438171744346619
1733230295214051300,2.66405126953125,-0.09981060028076172,-0.23434996604919434,0.8173539042472839
1733230295224030700,2.67403076171875,0.14165019989013672,-0.30225813388824463,0.646007776260376
1733230295234040300,2.684040283203125,0.5896024703979492,-0.3998204469680786,0.2739518880844116
1733230295244050200,2.69405029296875,1.0687150955200195,-0.5490198135375977,-0.258836567401886
1733230295254029300,2.704029296875,1.5586137771606445,-0.515662431716919,-0.8438107371330261
1733230295264039000,2.714038818359375,1.9163942337036133,-0.33658158779144287,-1.2027547359466553
1733230295274048800,2.724048828125,2.1689224243164062,-0.1053088903427124,-1.751298427581787
1733230295284028200,2.734028076171875,2.3381309509277344,0.1029818058013916,-2.2282655239105225
1733230295294037800,2.744037841796875,2.5484743118286133,0.30732810497283936,-2.610672950744629
1733230295304047600,2.754047607421875,2.641946792602539,0.32870030403137207,-2.869490623474121
1733230295314057500,2.764057373046875,2.6545333862304688,0.24456965923309326,-3.043224811553955
1733230295324036900,2.774036865234375,2.5814027786254883,0.24565339088439941,-3.055199146270752
1733230295334046500,2.78404638671875,2.4270639419555664,0.3031795024871826,-2.8804099559783936
1733230295344056000,2.79405615234375,2.3011837005615234,0.07243788242340088,-2.441349506378174
1733230295354035500,2.804035400390625,2.2430601119995117,-0.6061434149742126,-1.758817195892334
1733230295364045000,2.814045166015625,2.492100715637207,-1.924558162689209,-0.8254395127296448
1733230295374055000,2.824054931640625,3.115144729614258,-3.2952017784118652,-0.25599396228790283
1733230295384034300,2.834034423828125,4.761568069458008,-4.235540866851807,-0.3466039299964905
1733230295394044000,2.8440439453125,5.847899436950684,-4.802082061767578,-1.6264183521270752
1733230295404053800,2.8540537109375,6.278049468994141,-4.705864429473877,-2.925381898880005
1733230295414033200,2.864033203125,5.664999961853027,-4.265597343444824,-3.296177625656128
1733230295424042800,2.874042724609375,3.8084802627563477,-3.3801746368408203,-2.7727084159851074
1733230295434052600,2.884052490234375,1.0548410415649414,-2.7100906372070312,-2.029562473297119
1733230295444031700,2.89403173828125,-1.5322141647338867,-2.122826337814331,-1.5384918451309204
1733230295454041600,2.90404150390625,-4.041526794433594,-1.4840974807739258,-1.10282301902771
1733230295464051500,2.914051513671875,-5.75905704498291,-1.0867953300476074,-0.5344530344009399
1733230295474030600,2.924030517578125,-7.181126117706299,-0.9054404497146606,0.3395687937736511
1733230295484040200,2.934040283203125,-7.672850608825684,-0.9067734479904175,0.9481254816055298
1733230295494050000,2.944050048828125,-6.879105567932129,-0.9969748258590698,1.1599767208099365
1733230295504029400,2.954029541015625,-5.323322296142578,-1.3334014415740967,0.7822852730751038
1733230295514039000,2.9640390625,-3.1688485145568848,-1.5474975109100342,0.9617114663124084
1733230295524049000,2.974048828125,-1.3795089721679688,-1.7189967632293701,0.633162796497345
1733230295534028300,2.9840283203125,0.11515140533447266,-1.8034425973892212,0.04589724540710449
1733230295544038000,2.994037841796875,1.095240592956543,-1.7903764247894287,-0.22975564002990723
1733230295554047700,3.0040478515625,1.4137563705444336,-1.652057409286499,-0.34778764843940735
1733230295564057600,3.0140576171875,1.201181411743164,-1.3939402103424072,-0.49613791704177856
1733230295574036700,3.02403662109375,0.6214885711669922,-1.1992371082305908,-0.5697890520095825
1733230295584046300,3.03404638671875,-0.07800483703613281,-0.9005235433578491,-0.6891906261444092
1733230295594056200,3.04405615234375,-0.578953742980957,-0.7299477458000183,-0.5631332397460938
1733230295604035600,3.05403564453125,-0.9257297515869141,-0.5441430807113647,-0.6295097470283508
1733230295614045200,3.064045166015625,-0.9970989227294922,-0.42334282398223877,-0.7972859144210815
1733230295624055000,3.074054931640625,-0.7333307266235352,-0.3660295009613037,-0.9250191450119019
1733230295634034400,3.084034423828125,-0.5463123321533203,-0.28348982334136963,-1.0453518629074097
1733230295644044000,3.0940439453125,-0.4476184844970703,-0.20047950744628906,-1.1920764446258545
1733230295654053600,3.1040537109375,-0.5512943267822266,-0.04167044162750244,-1.2006499767303467
1733230295664033000,3.114032958984375,-0.7282772064208984,0.06835579872131348,-1.1226930618286133
1733230295674042600,3.124042724609375,-1.079197883605957,0.13720917701721191,-1.0636093616485596
1733230295684052500,3.134052490234375,-1.307459831237793,0.21698713302612305,-1.054602861404419
1733230295694032000,3.144031982421875,-1.4838972091674805,0.263036847114563,-1.078320026397705
1733230295704041700,3.154041748046875,-1.5302610397338867,0.24502432346343994,-1.0954957008361816
1733230295714051300,3.16405126953125,-1.4143333435058594,0.16570544242858887,-1.1489508152008057
1733230295724030700,3.17403076171875,-1.1894702911376953,0.01598215103149414,-1.2333567142486572
1733230295734040300,3.184040283203125,-0.809844970703125,-0.16575992107391357,-1.3433246612548828
1733230295744050200,3.19405029296875,-0.5218172073364258,-0.3282722234725952,-1.3472579717636108
1733230295754029300,3.204029296875,-0.17660999298095703,-0.4394378662109375,-1.2882628440856934
1733230295764039200,3.2140390625,0.029767990112304688,-0.44731271266937256,-1.131108283996582
1733230295774048800,3.224048828125,0.12758922576904297,-0.3798147439956665,-0.9203047752380371
1733230295784028200,3.234028076171875,0.13329696655273438,-0.2366122007369995,-1.0034091472625732
1733230295794037800,3.244037841796875,0.07292556762695312,-0.06825482845306396,-1.0038225650787354
1733230295804047600,3.254047607421875,-0.005797386169433594,0.13884127140045166,-0.8528699278831482
1733230295814057500,3.264057373046875,-0.18190765380859375,0.26089394092559814,-0.6328610181808472
1733230295824036900,3.274036865234375,-0.18049049377441406,0.3339552879333496,-0.4991297125816345
1733230295834046500,3.28404638671875,0.10078239440917969,0.306607723236084,-0.3449469208717346
1733230295844056300,3.294056396484375,0.5798864364624023,0.12745916843414307,-0.23834753036499023
1733230295854035500,3.304035400390625,1.026799201965332,-0.03836703300476074,-0.23466357588768005
1733230295864045000,3.314045166015625,1.5929546356201172,-0.28875064849853516,-0.22368130087852478
1733230295874055000,3.324054931640625,2.1544628143310547,-0.41398823261260986,-0.1526927351951599
1733230295884034300,3.334034423828125,2.479391098022461,-0.4716073274612427,-0.25855758786201477
1733230295894044000,3.3440439453125,2.7381839752197266,-0.3138556480407715,0.1486915946006775
1733230295904053800,3.3540537109375,2.5648012161254883,-0.2608276605606079,0.3953147530555725
1733230295914033200,3.364033203125,2.2275466918945312,0.24497532844543457,0.49061068892478943
1733230295924042800,3.374042724609375,1.8865232467651367,0.4873936176300049,0.8639963865280151
1733230295934052600,3.384052490234375,1.46429443359375,0.46002912521362305,1.4313076734542847
1733230295944031700,3.39403173828125,1.1339225769042969,-0.057557106018066406,2.2782466411590576
1733230295954041600,3.40404150390625,1.1846961975097656,-1.2539920806884766,2.818816661834717
1733230295964051500,3.414051513671875,2.0993614196777344,-2.4896440505981445,2.317126512527466
1733230295974030600,3.424030517578125,4.006753921508789,-3.750044345855713,1.2378329038619995
1733230295984040200,3.434040283203125,6.266173362731934,-4.437193870544434,-0.07688838243484497
1733230295994050000,3.444050048828125,7.667806625366211,-4.56203556060791,-0.8641620874404907
1733230296004029400,3.454029541015625,7.766145706176758,-4.098862648010254,-0.8017942309379578
1733230296014039300,3.464039306640625,6.319387435913086,-3.527564287185669,-0.2878262996673584
1733230296024049000,3.474048828125,3.349090576171875,-2.972433090209961,0.012494921684265137
1733230296034028300,3.4840283203125,0.48132896423339844,-2.6259865760803223,0.2285083532333374
1733230296044038100,3.4940380859375,-2.2542343139648438,-2.0950658321380615,0.1923246681690216
1733230296054047700,3.5040478515625,-4.148566246032715,-1.692466378211975,0.22920280694961548
1733230296064057300,3.514057373046875,-5.545018672943115,-1.4988418817520142,0.3986680209636688
1733230296074036700,3.52403662109375,-5.877403259277344,-1.4410561323165894,0.2768065929412842
1733230296084046300,3.53404638671875,-5.197101593017578,-1.5549900531768799,-0.1449185311794281
1733230296094056200,3.54405615234375,-3.5839929580688477,-1.6041957139968872,-0.5612503290176392
1733230296104035600,3.55403564453125,-2.1856493949890137,-1.6463440656661987,-0.9164316654205322
1733230296114045200,3.564045166015625,-1.0874385833740234,-1.7080097198486328,-1.2120519876480103
1733230296124055000,3.574054931640625,-0.5665493011474609,-1.6739610433578491,-1.4606000185012817
1733230296134034400,3.584034423828125,-0.48000049591064453,-1.649021029472351,-1.5859463214874268
1733230296144044000,3.5940439453125,-0.7981176376342773,-1.5242007970809937,-1.5508289337158203
1733230296154054000,3.604053955078125,-1.3007001876831055,-1.2834941148757935,-1.3835721015930176
1733230296164033000,3.614032958984375,-1.7503232955932617,-1.0140444040298462,-1.238187551498413
1733230296174042600,3.624042724609375,-2.1342973709106445,-0.7187221646308899,-1.0758793354034424
1733230296184052500,3.634052490234375,-2.3167853355407715,-0.4779198169708252,-0.9070751667022705
1733230296194031900,3.644031982421875,-2.365245819091797,-0.32760441303253174,-0.757811963558197
1733230296204041500,3.65404150390625,-2.330203056335449,-0.26873886585235596,-0.6927794218063354
1733230296214051300,3.66405126953125,-2.123293876647949,-0.27115070819854736,-0.6775025725364685
1733230296224030700,3.67403076171875,-1.735032558441162,-0.31967663764953613,-0.5888100266456604
1733230296234040300,3.684040283203125,-1.3188610076904297,-0.30973851680755615,-0.40539753437042236
1733230296244050200,3.69405029296875,-0.8022966384887695,-0.33863890171051025,-0.07494348287582397
1733230296254029300,3.704029296875,-0.45319175720214844,-0.2909296751022339,0.10164664685726166
1733230296264039000,3.714038818359375,-0.07728385925292969,-0.28868281841278076,0.2514730989933014
1733230296274048800,3.724048828125,0.19859981536865234,-0.3133828639984131,0.3753872513771057
1733230296284028200,3.734028076171875,0.3080148696899414,-0.26995110511779785,0.44022712111473083
1733230296294037800,3.744037841796875,0.24266338348388672,-0.2302490472793579,0.5378020405769348
1733230296304047600,3.754047607421875,0.19469356536865234,-0.16826355457305908,0.6599429845809937
1733230296314057500,3.764057373046875,0.17499732971191406,-0.10175728797912598,0.7973920106887817
1733230296324036600,3.77403662109375,0.1366748809814453,-0.041927337646484375,0.87812340259552
1733230296334046500,3.78404638671875,0.08684158325195312,0.03573405742645264,0.9068353176116943
1733230296344056300,3.794056396484375,0.09968757629394531,0.16025829315185547,0.8725854158401489
1733230296354035500,3.804035400390625,0.1153116226196289,0.3177527189254761,0.8886664509773254
1733230296364045000,3.814045166015625,0.054714202880859375,0.5177829265594482,0.783374011516571
1733230296374055000,3.824054931640625,-0.10590744018554688,0.7258222103118896,0.7402533292770386
1733230296384034300,3.834034423828125,-0.26355743408203125,0.8650426864624023,0.748693585395813
1733230296394044000,3.8440439453125,-0.34228992462158203,0.7886520624160767,0.5602712631225586
1733230296404053800,3.8540537109375,-0.3227252960205078,0.6798168420791626,0.512361466884613
1733230296414033200,3.864033203125,-0.04916954040527344,0.4125169515609741,0.481850802898407
1733230296424042800,3.874042724609375,0.23185157775878906,0.14304053783416748,0.464713990688324
1733230296434052600,3.884052490234375,0.5703306198120117,-0.1735628843307495,0.354794442653656
1733230296444031700,3.89403173828125,0.8032436370849609,-0.7186392545700073,0.2697618007659912
1733230296454041600,3.90404150390625,1.2884807586669922,-0.9866560101509094,0.059309542179107666
1733230296464051500,3.914051513671875,2.191573143005371,-1.0597560405731201,-0.5680421590805054
1733230296474030600,3.924030517578125,2.9769906997680664,-0.9110965728759766,-1.3249263763427734
1733230296484040400,3.93404052734375,3.671755790710449,-0.7039807438850403,-2.479580879211426
1733230296494050000,3.944050048828125,3.948714256286621,-0.5561013221740723,-2.504607677459717
1733230296504029400,3.954029541015625,3.669994354248047,-0.5479017496109009,-2.7316513061523438
1733230296514039000,3.9640390625,3.1662368774414062,-0.6604073643684387,-2.9789493083953857
1733230296524049000,3.974048828125,2.800509452819824,-0.6178920269012451,-3.205075979232788
1733230296534028300,3.9840283203125,2.683894157409668,-0.5860944986343384,-3.316558361053467
1733230296544038100,3.9940380859375,2.709885597229004,-0.8687352538108826,-3.245328426361084
1733230296554047700,4.0040478515625,2.8280105590820312,-1.5403350591659546,-2.919567584991455
1733230296564057300,4.014057373046875,2.8827943801879883,-2.544434070587158,-2.1916394233703613
1733230296574036500,4.024036376953125,3.1499881744384766,-3.550337076187134,-1.8705744743347168
1733230296584046300,4.03404638671875,3.7926902770996094,-3.938837766647339,-2.3174312114715576
1733230296594056200,4.04405615234375,4.298784255981445,-3.9415245056152344,-2.837937355041504
1733230296604035600,4.05403564453125,3.861355781555176,-3.741605281829834,-3.0603761672973633
1733230296614045200,4.064045166015625,2.5393686294555664,-3.4798316955566406,-3.101247787475586
1733230296624055000,4.074054931640625,1.0349769592285156,-3.0062167644500732,-2.3818187713623047
1733230296634034400,4.084034423828125,-0.06280231475830078,-2.1236610412597656,-1.5937070846557617
1733230296644044000,4.0940439453125,-2.7850608825683594,-2.403430700302124,-1.04343843460083
1733230296654054000,4.104053955078125,-4.873886585235596,-2.463132858276367,-1.130028486251831
1733230296664032800,4.11403271484375,-5.971240043640137,-2.141173839569092,-1.1901612281799316
1733230296674042600,4.124042724609375,-5.957979202270508,-1.9186091423034668,-1.0037941932678223
1733230296684052500,4.134052490234375,-5.167342662811279,-1.8975692987442017,-0.9034262299537659
1733230296694032000,4.144031982421875,-3.870903491973877,-2.180187463760376,-0.5821601748466492
1733230296704041500,4.15404150390625,-2.2519335746765137,-2.43107533454895,-0.6822293996810913
1733230296714051300,4.16405126953125,-0.6766319274902344,-2.269319772720337,-0.9478253126144409
1733230296724030700,4.17403076171875,0.42061710357666016,-2.0730369091033936,-0.8756022453308105
1733230296734040300,4.184040283203125,0.7556209564208984,-1.9871727228164673,-0.5457430481910706
1733230296744050200,4.19405029296875,0.7420883178710938,-1.7079994678497314,-0.15231135487556458
1733230296754029300,4.204029296875,0.5418357849121094,-1.5761417150497437,0.007725179195404053
1733230296764039000,4.214038818359375,0.054442405700683594,-1.4191526174545288,-0.47555413842201233
1733230296774048800,4.224048828125,-0.3495054244995117,-1.1325411796569824,-0.9448678493499756
1733230296784028200,4.234028076171875,-0.5962591171264648,-0.8619614243507385,-1.089324712753296
1733230296794037800,4.244037841796875,-0.8584403991699219,-0.6345902681350708,-1.0283180475234985
1733230296804047600,4.254047607421875,-1.176919937133789,-0.548693060874939,-0.9636673331260681
1733230296814057500,4.264057373046875,-1.4369831085205078,-0.38555908203125,-1.0189757347106934
1733230296824036900,4.274036865234375,-1.5794124603271484,-0.1607574224472046,-1.0117138624191284
1733230296834046500,4.28404638671875,-1.6691622734069824,0.049091219902038574,-0.9311111569404602
1733230296844056000,4.29405615234375,-1.7086238861083984,0.20127081871032715,-0.9671813249588013
1733230296854035500,4.304035400390625,-1.7409496307373047,0.38024449348449707,-1.0558935403823853
1733230296864045000,4.314045166015625,-1.7350292205810547,0.4638960361480713,-1.041480541229248
1733230296874055000,4.324054931640625,-1.6191301345825195,0.5486571788787842,-1.019875407218933
1733230296884034300,4.334034423828125,-1.2809209823608398,0.5734646320343018,-1.0652931928634644
1733230296894044000,4.3440439453125,-0.9507999420166016,0.5049235820770264,-1.1498675346374512
1733230296904053800,4.3540537109375,-0.6427440643310547,0.37397170066833496,-1.3282616138458252
1733230296914033200,4.364033203125,-0.46906375885009766,0.1260746717453003,-1.441604733467102
1733230296924042800,4.374042724609375,-0.33617401123046875,-0.08982563018798828,-1.4651260375976562
1733230296934052600,4.384052490234375,-0.1770639419555664,-0.26741647720336914,-1.6319210529327393
1733230296944031700,4.39403173828125,0.06807613372802734,-0.5213403701782227,-1.6930758953094482
1733230296954041600,4.40404150390625,0.3188762664794922,-0.5915312170982361,-1.5712406635284424
1733230296964051500,4.414051513671875,0.6229963302612305,-0.5058867931365967,-1.3898580074310303
1733230296974030600,4.424030517578125,0.8578786849975586,-0.3836207389831543,-1.0836002826690674
1733230296984040200,4.434040283203125,1.0224971771240234,-0.1947479248046875,-1.0862252712249756
1733230296994050000,4.444050048828125,0.9344539642333984,-0.21898186206817627,-1.680890440940857
1733230297004029400,4.454029541015625,0.9838571548461914,-0.13738131523132324,-1.2587777376174927
1733230297014039000,4.4640390625,0.9525470733642578,-0.09939157962799072,-0.6836603879928589
1733230297024049000,4.474048828125,0.9833955764770508,-0.08405053615570068,-0.27108293771743774
1733230297034028300,4.4840283203125,1.114579200744629,-0.25464940071105957,-0.033724382519721985
1733230297044038000,4.494037841796875,1.2926921844482422,-0.5027414560317993,-0.2303067445755005
1733230297054047700,4.5040478515625,1.4819393157958984,-1.0009713172912598,-0.6984704732894897
1733230297064057600,4.5140576171875,1.7250909805297852,-1.3860269784927368,-0.4404606521129608
1733230297074036700,4.52403662109375,2.445283889770508,-1.6738413572311401,-0.0808347761631012
1733230297084046300,4.53404638671875,3.086602210998535,-1.7949808835983276,-0.4784870147705078
1733230297094056200,4.54405615234375,3.314525604248047,-2.1098709106445312,-0.5176931023597717
1733230297104035600,4.55403564453125,4.475668907165527,-1.010742425918579,0.29648539423942566
1733230297114045200,4.564045166015625,4.327558517456055,-1.1768934726715088,1.4596058130264282
1733230297124055000,4.574054931640625,3.946664810180664,-1.9368354082107544,3.151301145553589
1733230297134034400,4.584034423828125,3.600849151611328,-2.454497814178467,4.000569820404053
1733230297144044000,4.5940439453125,3.2969837188720703,-3.3141062259674072,2.572115659713745
1733230297154054000,4.604053955078125,3.393911361694336,-3.724167823791504,0.9618632793426514
1733230297164033000,4.614032958984375,3.278315544128418,-3.7391395568847656,0.09740740060806274
1733230297174042600,4.624042724609375,2.7282018661499023,-3.451129198074341,0.3614140450954437
1733230297184052500,4.634052490234375,1.6392879486083984,-2.828068494796753,0.6631660461425781
1733230297194031900,4.644031982421875,0.39215087890625,-2.207324504852295,0.774554967880249
1733230297204041500,4.65404150390625,-1.4860401153564453,-1.7442822456359863,0.9539228677749634
1733230297214051300,4.66405126953125,-3.6410794258117676,-1.434286117553711,1.1123268604278564
1733230297224030700,4.67403076171875,-5.229823589324951,-1.2813210487365723,1.3892793655395508
1733230297234040300,4.684040283203125,-6.138221263885498,-1.2510359287261963,1.693983554840088
1733230297244050200,4.69405029296875,-5.874578475952148,-1.4664504528045654,1.8175239562988281
1733230297254029300,4.704029296875,-4.247876167297363,-1.8328438997268677,1.3110898733139038
1733230297264039000,4.714038818359375,-2.5576171875,-2.023451089859009,0.5791715383529663
1733230297274048800,4.724048828125,-0.8434686660766602,-2.170443534851074,-0.25300052762031555
1733230297284028200,4.734028076171875,0.39054012298583984,-2.3105428218841553,-0.7382683157920837
1733230297294037800,4.744037841796875,1.3597602844238281,-2.4042868614196777,-1.1076610088348389
1733230297304047600,4.754047607421875,1.8456497192382812,-2.356222629547119,-1.3473953008651733
1733230297314057500,4.764057373046875,1.8155364990234375,-2.179908275604248,-1.412026047706604
1733230297324036600,4.77403662109375,1.3487176895141602,-1.9470382928848267,-1.3005343675613403
1733230297334046500,4.78404638671875,0.8140439987182617,-1.6726397275924683,-1.037907361984253
1733230297344056300,4.794056396484375,0.2908668518066406,-1.2841455936431885,-0.859816312789917
1733230297354035500,4.804035400390625,-0.23408031463623047,-1.0271425247192383,-0.7442746758460999
1733230297364045000,4.814045166015625,-0.7993307113647461,-0.8208500146865845,-0.6872788667678833
1733230297374055000,4.824054931640625,-1.064011573791504,-0.6919125318527222,-0.45223525166511536
1733230297384034300,4.834034423828125,-1.1777658462524414,-0.5585653781890869,-0.24929198622703552
1733230297394044000,4.8440439453125,-1.2269020080566406,-0.5291616320610046,-0.10594147443771362
1733230297404053800,4.8540537109375,-1.2591838836669922,-0.47678816318511963,0.08885785937309265
1733230297414033000,4.864032958984375,-1.2362098693847656,-0.32482993602752686,0.25873371958732605
1733230297424042800,4.874042724609375,-1.201066017150879,-0.17151975631713867,0.533096194267273
1733230297434052600,4.884052490234375,-1.0939617156982422,-0.01639699935913086,0.8066012263298035
1733230297444032000,4.894031982421875,-1.1310911178588867,0.11176300048828125,1.016840934753418
1733230297454041600,4.90404150390625,-1.2414894104003906,0.14236044883728027,1.2317676544189453
1733230297464051500,4.914051513671875,-1.2512807846069336,0.16483032703399658,1.3440169095993042
1733230297474030600,4.924030517578125,-1.2133283615112305,0.08460378646850586,1.2064201831817627
1733230297484040200,4.934040283203125,-1.003361701965332,0.025070786476135254,1.4946787357330322
1733230297494050000,4.944050048828125,-0.7982473373413086,0.006436705589294434,1.5897393226623535
1733230297504029400,4.954029541015625,-0.665745735168457,-0.1051793098449707,1.4214506149291992
1733230297514039000,4.9640390625,-0.5577220916748047,-0.13331937789916992,1.1422984600067139
1733230297524049000,4.974048828125,-0.47081756591796875,-0.0836402177810669,0.8351625800132751
1733230297534028300,4.9840283203125,-0.5494499206542969,-0.0158308744430542,0.6459164023399353
1733230297544038100,4.9940380859375,-0.6969776153564453,0.03643941879272461,0.40998968482017517
1733230297554047700,5.0040478515625,-0.8319644927978516,0.0730217695236206,0.3371058702468872
1733230297564057300,5.014057373046875,-1.0005035400390625,0.02413177490234375,0.1397935152053833
1733230297574036500,5.024036376953125,-0.9372634887695312,-0.0829470157623291,0.09223102033138275
1733230297584046300,5.03404638671875,-0.7838764190673828,-0.24571669101715088,0.17381298542022705
1733230297594056200,5.04405615234375,-0.47110843658447266,-0.481922447681427,0.193607360124588
1733230297604035600,5.05403564453125,0.19716167449951172,-0.7660962343215942,0.07560323178768158
1733230297614045200,5.064045166015625,0.9623250961303711,-0.9539961218833923,-0.058456793427467346
1733230297624055000,5.074054931640625,1.9017457962036133,-0.9717370271682739,-0.15643645823001862
1733230297634034400,5.084034423828125,2.579930305480957,-0.8669530749320984,-0.36530065536499023
1733230297644044000,5.0940439453125,3.0338354110717773,-0.5139909982681274,-0.6978820562362671
1733230297654054000,5.104053955078125,3.1203136444091797,-0.12591242790222168,-1.2040518522262573
1733230297664033000,5.114032958984375,2.65289306640625,-0.004872918128967285,-1.4859387874603271
1733230297674042600,5.124042724609375,1.8445816040039062,0.07934939861297607,-1.4599528312683105
1733230297684052500,5.134052490234375,1.209467887878418,0.1565932035446167,-1.2909923791885376
1733230297694032000,5.144031982421875,0.9715137481689453,0.008919119834899902,-1.177082896232605
1733230297704041500,5.15404150390625,1.212224006652832,-0.500083863735199,-0.9529145956039429
1733230297714051300,5.16405126953125,1.7832746505737305,-1.5531656742095947,-0.7472572326660156
1733230297724030700,5.17403076171875,2.7518415451049805,-2.8175601959228516,-0.5654130578041077
1733230297734040300,5.184040283203125,4.297992706298828,-4.037101745605469,-0.650407612323761
1733230297744050200,5.19405029296875,5.927209854125977,-4.436615467071533,-1.309464693069458
1733230297754029300,5.204029296875,7.25784969329834,-4.124414443969727,-1.7080055475234985
1733230297764039000,5.214038818359375,7.18064022064209,-3.6036393642425537,-1.623239517211914
1733230297774048800,5.224048828125,5.770689010620117,-2.9244232177734375,-1.8032089471817017
1733230297784028200,5.234028076171875,3.082308769226074,-2.17923641204834,-1.497050166130066
1733230297794037800,5.244037841796875,0.3922853469848633,-1.7329182624816895,-1.102283239364624
1733230297804047600,5.254047607421875,-2.6010332107543945,-1.2776038646697998,-0.5648128986358643
1733230297814057500,5.264057373046875,-3.820594310760498,-0.6124351620674133,0.17436467111110687
1733230297824036900,5.274036865234375,-6.2308549880981445,-1.2190704345703125,0.6406846642494202
1733230297834046500,5.28404638671875,-7.337719440460205,-1.6761527061462402,0.7634437084197998
1733230297844056000,5.29405615234375,-6.937443733215332,-1.9847283363342285,0.6689947843551636
1733230297854035500,5.304035400390625,-4.854956150054932,-2.414903163909912,0.5475895404815674
1733230297864045000,5.314045166015625,-2.1426186561584473,-2.7557411193847656,0.5033127069473267
1733230297874055000,5.324054931640625,0.4754371643066406,-2.763669490814209,0.01305420696735382
1733230297884034300,5.334034423828125,2.2277889251708984,-2.767000913619995,-0.15594686567783356
1733230297894044000,5.3440439453125,3.2541189193725586,-2.6012282371520996,-0.056236740201711655
1733230297904053800,5.3540537109375,3.20443058013916,-2.2711570262908936,0.03832703083753586
1733230297914033200,5.364033203125,2.1441221237182617,-1.9103491306304932,0.10276103019714355
1733230297924042800,5.374042724609375,0.6855735778808594,-1.5450401306152344,0.5484714508056641
1733230297934052600,5.384052490234375,-1.047515869140625,-1.168328046798706,0.6144840717315674
1733230297944032000,5.394031982421875,-2.2042274475097656,-0.9539976119995117,0.6466562747955322
1733230297954041600,5.40404150390625,-2.9919252395629883,-0.7264602184295654,0.7462600469589233
1733230297964051500,5.414051513671875,-3.189220905303955,-0.5931491255760193,0.7080840468406677
1733230297974030600,5.424030517578125,-2.9884390830993652,-0.486794650554657,0.4029458165168762
1733230297984040200,5.434040283203125,-2.4065966606140137,-0.37746429443359375,0.011540025472640991
1733230297994050000,5.444050048828125,-1.827104091644287,-0.3320654034614563,-0.14023053646087646
1733230298004029400,5.454029541015625,-1.2793607711791992,-0.24830961227416992,-0.1530471295118332
1733230298014039000,5.4640390625,-0.9996852874755859,-0.12685751914978027,-0.14466089010238647
1733230298024049000,5.474048828125,-0.9516563415527344,-0.005275845527648926,-0.0203617662191391
1733230298034028300,5.4840283203125,-1.0585145950317383,0.1342456340789795,0.022907286882400513
1733230298044038000,5.494037841796875,-1.241288185119629,0.3039447069168091,0.03003852069377899
1733230298054047700,5.5040478515625,-1.4810171127319336,0.4192159175872803,0.06773747503757477
1733230298064057600,5.5140576171875,-1.6654787063598633,0.4682084321975708,0.15069927275180817
1733230298074036700,5.52403662109375,-1.656397819519043,0.38136565685272217,0.15827767550945282
1733230298084046300,5.53404638671875,-1.4109983444213867,0.19980788230895996,0.09033970534801483
1733230298094056200,5.54405615234375,-0.8480424880981445,0.02321934700012207,0.028727173805236816
1733230298104035600,5.55403564453125,-0.28107357025146484,-0.2207881212234497,0.014447018504142761
1733230298114045200,5.564045166015625,0.42426109313964844,-0.45772039890289307,-0.1414739489555359
1733230298124055000,5.574054931640625,1.0863561630249023,-0.5898674130439758,-0.29554739594459534
1733230298134034400,5.584034423828125,1.6936378479003906,-0.6183782815933228,-0.422055721282959
1733230298144044000,5.5940439453125,2.0769758224487305,-0.6232005953788757,-0.4972667098045349
1733230298154053600,5.6040537109375,2.2978992462158203,-0.35194623470306396,-0.5021796226501465
1733230298164033000,5.614032958984375,2.2309999465942383,-0.24337494373321533,-0.5185680389404297
1733230298174042600,5.624042724609375,2.050403594970703,-0.151591956615448,-0.4651564061641693
1733230298184052500,5.634052490234375,1.7919340133666992,-0.09902918338775635,-0.4252800941467285
1733230298194031900,5.644031982421875,1.4435081481933594,-0.18178683519363403,-0.41283881664276123
1733230298204041500,5.65404150390625,1.2155685424804688,-0.2313486933708191,-0.4075024127960205
1733230298214051300,5.66405126953125,1.1964139938354492,-0.3066824674606323,-0.34133103489875793
1733230298224030700,5.67403076171875,1.2491111755371094,-0.23919188976287842,-0.41737812757492065
1733230298234040300,5.684040283203125,1.3112611770629883,-0.17217683792114258,-0.3553226888179779
1733230298244050200,5.69405029296875,1.2486906051635742,-0.33784037828445435,-0.000425189733505249
1733230298254029300,5.704029296875,1.0877399444580078,-0.573287844657898,0.4250803291797638
1733230298264039000,5.714038818359375,1.0294580459594727,-0.6737515330314636,0.737808108329773
1733230298274048800,5.724048828125,1.1719903945922852,-0.5067671537399292,0.8555248379707336
1733230298284028200,5.734028076171875,1.3285417556762695,-0.2274494171142578,1.0886753797531128
1733230298294037800,5.744037841796875,1.286172866821289,-0.10918021202087402,1.3177286386489868
1733230298304047600,5.754047607421875,0.9996156692504883,-0.3539099097251892,1.9121531248092651
1733230298314057500,5.764057373046875,0.7176837921142578,-1.219362735748291,2.332462787628174
1733230298324036900,5.774036865234375,0.5574169158935547,-2.4965574741363525,2.281036615371704
1733230298334046500,5.78404638671875,0.7598400115966797,-3.443819761276245,1.7189810276031494
1733230298344056300,5.794056396484375,1.589920997619629,-3.8423919677734375,0.7722169160842896
1733230298354035500,5.804035400390625,2.807784080505371,-3.9163334369659424,-0.013707578182220459
1733230298364045000,5.814045166015625,3.2387590408325195,-3.6731464862823486,-0.08601418137550354
1733230298374055000,5.824054931640625,2.852659225463867,-3.2387547492980957,0.22716525197029114
1733230298384034300,5.834034423828125,1.6871700286865234,-2.982405185699463,0.18559280037879944
1733230298394044000,5.8440439453125,-0.24239635467529297,-2.639705181121826,0.3253048360347748
1733230298404053800,5.8540537109375,-2.1365771293640137,-2.3629167079925537,0.6456749439239502
1733230298414033000,5.864032958984375,-3.9892964363098145,-2.050661325454712,0.9052035212516785
1733230298424042800,5.874042724609375,-5.30037260055542,-1.8865482807159424,1.1652843952178955
1733230298434052600,5.884052490234375,-5.630142688751221,-2.064234972000122,1.1803624629974365
1733230298444032000,5.894031982421875,-4.915445804595947,-2.3210370540618896,0.8566304445266724
1733230298454041600,5.90404150390625,-3.4779086112976074,-2.3993635177612305,0.4804742932319641
1733230298464051500,5.914051513671875,-1.4384536743164062,-2.4567131996154785,0.07699508965015411
1733230298474030600,5.924030517578125,0.21669864654541016,-2.4703783988952637,-0.46194785833358765
1733230298484040200,5.934040283203125,1.6488122940063477,-2.3542044162750244,-1.1103739738464355
1733230298494050000,5.944050048828125,2.371549606323242,-2.2077722549438477,-1.446958065032959
1733230298504029400,5.954029541015625,2.427046775817871,-2.071019411087036,-1.4884512424468994
1733230298514039000,5.9640390625,1.9533510208129883,-1.855889081954956,-1.457971215248108
1733230298524049000,5.974048828125,1.1317882537841797,-1.5408333539962769,-1.3592662811279297
1733230298534028300,5.9840283203125,0.3445854187011719,-1.2176278829574585,-1.1316550970077515
1733230298544038000,5.994037841796875,-0.28339576721191406,-0.9608756899833679,-0.8340144157409668
1733230298554047700,6.0040478515625,-0.8126201629638672,-0.7603437900543213,-0.5699927806854248
1733230298564057300,6.014057373046875,-1.078404426574707,-0.6762906312942505,-0.41104328632354736
1733230298574036500,6.024036376953125,-1.0819292068481445,-0.64583820104599,-0.16115623712539673
1733230298584046300,6.03404638671875,-0.9403610229492188,-0.6194161772727966,-0.03546100854873657
1733230298594056200,6.04405615234375,-0.6626806259155273,-0.6237937211990356,0.046662330627441406
1733230298604035300,6.054035400390625,-0.39222145080566406,-0.6132938265800476,0.15052245557308197
1733230298614045200,6.064045166015625,-0.12634754180908203,-0.5232899188995361,0.36367160081863403
1733230298624055000,6.074054931640625,-0.1208944320678711,-0.42697083950042725,0.570794403553009
1733230298634034400,6.084034423828125,-0.29413414001464844,-0.3036871552467346,0.7750371694564819
1733230298644044000,6.0940439453125,-0.514312744140625,-0.19505774974822998,0.838482677936554
1733230298654054000,6.104053955078125,-0.7956161499023438,-0.17265409231185913,1.058414101600647
1733230298664033000,6.114032958984375,-1.033395767211914,-0.16769766807556152,1.299636721611023
1733230298674042600,6.124042724609375,-1.1081714630126953,-0.11046820878982544,1.5251219272613525
1733230298684052500,6.134052490234375,-0.9410648345947266,0.07256203889846802,1.7276670932769775
1733230298694032000,6.144031982421875,-1.1832523345947266,-0.311140775680542,1.696422815322876
1733230298704041500,6.15404150390625,-1.6190519332885742,-0.2353004813194275,1.527519702911377
1733230298714051300,6.16405126953125,-1.5590248107910156,-0.12019050121307373,1.560051441192627
1733230298724030700,6.17403076171875,-1.7122936248779297,-0.06954193115234375,1.7703578472137451
1733230298734040300,6.184040283203125,-1.7393274307250977,-0.14221036434173584,1.8014981746673584
1733230298744050200,6.19405029296875,-1.6853933334350586,-0.06530129909515381,1.7832351922988892
1733230298754029300,6.204029296875,-1.409480094909668,-0.06540405750274658,1.6742101907730103
1733230298764039000,6.214038818359375,-1.1870718002319336,-0.08219796419143677,1.5707602500915527
1733230298774048800,6.224048828125,-0.9005584716796875,-0.11304539442062378,1.27104914188385
1733230298784028200,6.234028076171875,-0.7292623519897461,-0.15000933408737183,0.8436230421066284
1733230298794038000,6.2440380859375,-0.6756114959716797,-0.3467499613761902,0.4019426703453064
1733230298804047600,6.254047607421875,-0.5577640533447266,-0.5136445164680481,0.0911131501197815
1733230298814057500,6.264057373046875,-0.09774971008300781,-0.6185305118560791,-0.24019795656204224
1733230298824036900,6.274036865234375,0.4199228286743164,-0.6258829236030579,-0.4774675965309143
1733230298834046500,6.28404638671875,0.8544797897338867,-0.5622761249542236,-0.6682673096656799
1733230298844056300,6.294056396484375,1.0169334411621094,-0.5143974423408508,-0.8963759541511536
1733230298854035500,6.304035400390625,1.2401971817016602,-0.2916884422302246,-1.3388869762420654
1733230298864045000,6.314045166015625,1.5263862609863281,-0.0777079164981842,-1.842768669128418
1733230298874055000,6.324054931640625,1.738525390625,0.1304377019405365,-2.364295482635498
1733230298884034300,6.334034423828125,1.8568487167358398,0.18802744150161743,-2.537184953689575
1733230298894044000,6.3440439453125,1.967085838317871,0.008526861667633057,-2.5652458667755127
1733230298904053800,6.3540537109375,2.4596004486083984,-0.30488064885139465,-2.1986160278320312
1733230298914033200,6.364033203125,3.011471748352051,-0.1795521378517151,-2.158202648162842
1733230298924042800,6.374042724609375,3.568361282348633,0.23549270629882812,-2.788297176361084
1733230298934052600,6.384052490234375,3.901177406311035,0.6316653490066528,-3.503838539123535
1733230298944032000,6.394031982421875,4.860530853271484,-0.6291540265083313,-1.83494234085083
1733230298954041600,6.40404150390625,5.009305000305176,-2.3897554874420166,-0.27205437421798706
1733230298964051500,6.414051513671875,4.308956146240234,-3.691904306411743,-0.5071196556091309
1733230298974030600,6.424030517578125,4.544726371765137,-4.697206020355225,-0.7871273756027222
1733230298984040200,6.434040283203125,5.56208610534668,-5.229143142700195,-0.8738032579421997
1733230298994050000,6.444050048828125,6.148313522338867,-5.132846355438232,-1.4614479541778564
1733230299004029400,6.454029541015625,5.368030548095703,-4.737428188323975,-1.8089563846588135
1733230299014039000,6.4640390625,3.940323829650879,-4.01170015335083,-1.8553298711776733
1733230299024049000,6.474048828125,2.2155752182006836,-3.379565715789795,-0.9925239682197571
1733230299034028300,6.4840283203125,-0.700592041015625,-3.2131173610687256,-0.5826214551925659
1733230299044038000,6.494037841796875,-3.358736991882324,-2.923370122909546,-0.479092538356781
1733230299054047700,6.5040478515625,-5.716853618621826,-2.0779433250427246,-0.21991491317749023
1733230299064057300,6.514057373046875,-7.384915828704834,-1.7590982913970947,0.13580375909805298
1733230299074036700,6.52403662109375,-8.084248542785645,-1.6739165782928467,0.436136931180954
1733230299084046300,6.53404638671875,-7.500914573669434,-2.0828542709350586,1.0289463996887207
1733230299094056200,6.54405615234375,-6.060386657714844,-2.5663132667541504,1.1112018823623657
1733230299104035600,6.55403564453125,-3.764739513397217,-3.027975082397461,1.1679472923278809
1733230299114045200,6.564045166015625,-1.4218721389770508,-3.261186361312866,1.0628831386566162
1733230299124055000,6.574054931640625,0.7198171615600586,-3.313549518585205,0.7002235651016235
1733230299134034400,6.584034423828125,2.0685977935791016,-3.1680526733398438,0.08932924270629883
1733230299144044000,6.5940439453125,2.7502708435058594,-2.99324369430542,-0.5179705619812012
1733230299154053600,6.6040537109375,2.6306543350219727,-2.8112688064575195,-0.661283016204834
1733230299164033000,6.614032958984375,1.8792572021484375,-2.6396219730377197,-0.3867364525794983
1733230299174042600,6.624042724609375,0.9598197937011719,-2.425387382507324,-0.1188100278377533
1733230299184052500,6.634052490234375,-0.06345558166503906,-2.215009927749634,-0.002684265375137329
1733230299194031900,6.644031982421875,-0.7945375442504883,-2.073568820953369,0.14895480871200562
1733230299204041500,6.65404150390625,-1.1406669616699219,-1.9119387865066528,0.31202831864356995
1733230299214051300,6.66405126953125,-1.1908798217773438,-1.7444429397583008,0.38470688462257385
1733230299224030700,6.67403076171875,-0.9006118774414062,-1.6667017936706543,0.45452362298965454
1733230299234040300,6.684040283203125,-0.22332191467285156,-1.6732978820800781,0.5212176442146301
1733230299244050200,6.69405029296875,0.3403940200805664,-1.6446768045425415,0.5204910039901733
1733230299254029300,6.704029296875,1.1009941101074219,-1.753469705581665,0.527243971824646
1733230299264039000,6.714038818359375,1.6512279510498047,-1.7701671123504639,0.26025059819221497
1733230299274048800,6.724048828125,1.7426137924194336,-1.754294753074646,-0.10563679039478302
1733230299284028200,6.734028076171875,1.5164480209350586,-1.6947708129882812,-0.4812636375427246
1733230299294037800,6.744037841796875,1.0708837509155273,-1.6719489097595215,-0.6179479956626892
1733230299304047600,6.754047607421875,0.6498270034790039,-1.6139198541641235,-0.40445613861083984
1733230299314057500,6.764057373046875,0.29867076873779297,-1.6592210531234741,-0.21662743389606476
1733230299324036600,6.77403662109375,0.17508316040039062,-1.656141757965088,0.1271873116493225
1733230299334046500,6.78404638671875,0.14241695404052734,-1.577163815498352,0.35121235251426697
1733230299344056300,6.794056396484375,0.12400531768798828,-1.4864389896392822,0.42841440439224243
1733230299354035500,6.804035400390625,-0.076446533203125,-1.4421099424362183,0.39556884765625
1733230299364045300,6.81404541015625,-0.3799400329589844,-1.4540541172027588,0.528719425201416
1733230299374055000,6.824054931640625,-0.6931343078613281,-1.5396541357040405,0.6401470899581909
1733230299384034300,6.834034423828125,-1.1165790557861328,-1.5901484489440918,0.7294439077377319
1733230299394044000,6.8440439453125,-1.4473209381103516,-1.1039539575576782,0.6132538914680481
1733230299404053800,6.8540537109375,-1.6350383758544922,-0.9708113670349121,0.5236390829086304
1733230299414033200,6.864033203125,-1.5536794662475586,-1.0578818321228027,0.5732700824737549
1733230299424042800,6.874042724609375,-1.2132844924926758,-1.0940238237380981,0.669650137424469
1733230299434052600,6.884052490234375,-0.6903858184814453,-1.1451643705368042,0.6412720680236816
1733230299444032000,6.894031982421875,-0.3106698989868164,-1.192495346069336,0.43936046957969666
1733230299454041600,6.90404150390625,-0.09821414947509766,-1.2544231414794922,0.16137884557247162
1733230299464051500,6.914051513671875,-0.024537086486816406,-1.228388786315918,-0.1181604266166687
1733230299474030600,6.924030517578125,-0.029977798461914062,-1.1629399061203003,-0.45599237084388733
1733230299484040400,6.93404052734375,-0.15304851531982422,-1.1254284381866455,-0.5809323191642761
1733230299494050000,6.944050048828125,-0.4753246307373047,-1.0674757957458496,-0.7486017942428589
1733230299504029400,6.954029541015625,-0.7957639694213867,-0.9129416346549988,-1.045381784439087
1733230299514039300,6.964039306640625,-1.0878543853759766,-0.8697106242179871,-1.2538732290267944
1733230299524049000,6.974048828125,-1.1022663116455078,-0.8705877661705017,-1.3905930519104004
1733230299534028300,6.9840283203125,-0.9271249771118164,-0.8223788738250732,-1.3555105924606323
1733230299544038100,6.9940380859375,-0.6653852462768555,-0.799352765083313,-1.3053243160247803
1733230299554047700,7.0040478515625,-0.38405418395996094,-0.8275962471961975,-1.2451057434082031
1733230299564057300,7.014057373046875,-0.035282135009765625,-0.8026126027107239,-1.0481748580932617
1733230299574036700,7.02403662109375,0.4024782180786133,-0.8327323794364929,-0.9668460488319397
1733230299584046300,7.03404638671875,0.8022603988647461,-0.9243736863136292,-1.0806587934494019
1733230299594056200,7.04405615234375,1.2831878662109375,-0.7974775433540344,-0.8991886377334595
1733230299604035300,7.054035400390625,0.8150300979614258,-0.7267051339149475,-1.0641506910324097
1733230299614045200,7.064045166015625,0.25150108337402344,-0.6358319520950317,-0.6534366607666016
1733230299624055000,7.074054931640625,0.42998409271240234,-0.5135992765426636,-0.5848147869110107
1733230299634034400,7.084034423828125,0.3954582214355469,-0.3401981592178345,-0.6349185705184937
1733230299644044000,7.0940439453125,0.42328548431396484,-0.3343486785888672,-0.2595127820968628
1733230299654054000,7.104053955078125,0.6476345062255859,-0.25355756282806396,-0.06069856137037277
1733230299664033000,7.114032958984375,0.9009294509887695,-0.2876083254814148,-0.0404495894908905
1733230299674042600,7.124042724609375,1.060995101928711,-0.22918987274169922,-0.017631683498620987
1733230299684052500,7.134052490234375,0.9023342132568359,-0.1941204071044922,0.01362602785229683
1733230299694032000,7.144031982421875,0.3702869415283203,-0.055741727352142334,0.18796002864837646
1733230299704041700,7.154041748046875,-0.20139026641845703,0.18468409776687622,0.23614716529846191
1733230299714051300,7.16405126953125,-0.6499462127685547,0.45412519574165344,0.2478092610836029
1733230299724030700,7.17403076171875,-0.7479391098022461,0.5025070309638977,0.19668373465538025
