time,seconds_elapsed,z,y,x
1733230293014111200,0.464111328125,0.08552113175392151,0.003054326167330146,-0.08979719132184982
1733230293023995100,0.4739951171875,0.08307767659425735,0.01771509274840355,-0.08735372871160507
1733230293034131000,0.484130859375,0.06780604273080826,0.025045474991202354,-0.07330382615327835
1733230293044131800,0.4941318359375,0.05253441259264946,0.018325956538319588,-0.0555887371301651
1733230293054120200,0.5041201171875,0.0354301854968071,-0.001832595793530345,-0.04214970022439957
1733230293064151300,0.5141513671875,0.019547687843441963,-0.02932153269648552,-0.0354301854968071
1733230293074109000,0.52410888671875,0.006719517521560192,-0.0555887371301651,-0.04581489413976669
1733230293084140500,0.534140625,0.010995574295520782,-0.0555887371301651,-0.06841690838336945
1733230293094128400,0.54412841796875,0.02687807008624077,-0.042760565876960754,-0.09834930300712585
1733230293104129300,0.55412939453125,0.051312681287527084,-0.015882495790719986,-0.13439035415649414
1733230293114116400,0.564116455078125,0.0708603709936142,0.010995574295520782,-0.16371189057826996
1733230293124148200,0.574148193359375,0.08246681094169617,0.036041051149368286,-0.1869247704744339
1733230293134105900,0.58410595703125,0.0861319974064827,0.06902777403593063,-0.2076941877603531
1733230293144137700,0.5941376953125,0.08491026610136032,0.10812314599752426,-0.23579397797584534
1733230293154125300,0.604125244140625,0.08124507963657379,0.11728613078594208,-0.2480112910270691
1733230293164126500,0.61412646484375,0.07391469180583954,0.11911872029304504,-0.2480112910270691
1733230293174114300,0.6241142578125,0.06780604273080826,0.1111774742603302,-0.23273965716362
1733230293184146000,0.63414599609375,0.05864306539297104,0.0910189226269722,-0.20525072515010834
1733230293194103600,0.644103515625,0.042760565876960754,0.05619960278272629,-0.1722639948129654
1733230293204135000,0.654135009765625,0.019547687843441963,0.018325956538319588,-0.14294247329235077
1733230293214123500,0.66412353515625,-0.0006108652451075613,-0.012828170321881771,-0.12400564551353455
1733230293224124700,0.674124755859375,-0.028099801391363144,-0.030543262138962746,-0.10384709388017654
1733230293234112500,0.684112548828125,-0.03420845419168472,-0.019547687843441963,-0.0861319974064827
1733230293244144000,0.69414404296875,-0.031154127791523933,0.005497787147760391,-0.06169738993048668
1733230293254101500,0.7041015625,-0.018936822190880775,0.039706241339445114,-0.030543262138962746
1733230293264133000,0.714133056640625,0.003054326167330146,0.06414084881544113,0.0024434609804302454
1733230293274121200,0.724121337890625,0.02687807008624077,0.07330382615327835,0.021991148591041565
1733230293284122000,0.7341220703125,0.04153883829712868,0.07757988572120667,0.028099801391363144
1733230293294110200,0.744110107421875,0.03237585723400116,0.07941248267889023,0.006719517521560192
1733230293304141600,0.7541416015625,0.014049900695681572,0.07330382615327835,-0.02321287989616394
1733230293314129400,0.76412939453125,-0.003054326167330146,0.07330382615327835,-0.05314527451992035
1733230293324130800,0.774130859375,-0.02015855349600315,0.08246681094169617,-0.07391469180583954
1733230293334118700,0.78411865234375,-0.036651913076639175,0.0959058403968811,-0.08857546001672745
1733230293344150300,0.794150390625,-0.04948008432984352,0.1111774742603302,-0.1014036312699318
1733230293354107600,0.804107666015625,-0.06658431142568588,0.11728613078594208,-0.10995574295520782
1733230293364139300,0.81413916015625,-0.09040805697441101,0.10934487730264664,-0.1111774742603302
1733230293374127000,0.824127197265625,-0.09834930300712585,0.0959058403968811,-0.10384709388017654
1733230293384128500,0.83412841796875,-0.10384709388017654,0.08307767659425735,-0.08429940044879913
1733230293394116000,0.8441162109375,-0.11911872029304504,0.06169738993048668,-0.06291911751031876
1733230293404148000,0.85414794921875,-0.14294247329235077,0.03848451003432274,-0.036651913076639175
1733230293414105000,0.86410498046875,-0.17348572611808777,0.02076941914856434,-0.010995574295520782
1733230293424137000,0.874136962890625,-0.19486601650714874,0.001832595793530345,0.012828170321881771
1733230293434124800,0.884124755859375,-0.20341812074184418,-0.012217304669320583,0.039095375686883926
1733230293444126000,0.8941259765625,-0.19303341209888458,-0.021380282938480377,0.06536258012056351
1733230293454113800,0.90411376953125,-0.16982053220272064,-0.01038470957428217,0.06169738993048668
1733230293464145400,0.9141455078125,-0.13316862285137177,-0.00733038317412138,0.0354301854968071
1733230293474102800,0.924102783203125,-0.09896016865968704,-0.01160643994808197,-0.014049900695681572
1733230293484134400,0.934134521484375,-0.07635815441608429,-0.009162978269159794,-0.06169738993048668
1733230293494122200,0.944122314453125,-0.06536258012056351,0,-0.10018189996480942
1733230293504123400,0.954123291015625,-0.05742133408784866,0.007941247895359993,-0.1270599663257599
1733230293514111200,0.964111328125,-0.048258353024721146,0.00855211354792118,-0.13255776464939117
1733230293524142600,0.974142578125,-0.05803219974040985,-0.01160643994808197,-0.11545353382825851
1733230293534100200,0.984100341796875,-0.07880161702632904,-0.0354301854968071,-0.09346238523721695
1733230293544131800,0.9941318359375,-0.09773843735456467,-0.06108652427792549,-0.06841690838336945
1733230293554120000,1.004119873046875,-0.11484266817569733,-0.0757472887635231,-0.04581489413976669
1733230293564151600,1.014151611328125,-0.11850785464048386,-0.07696902006864548,-0.03237585723400116
1733230293574108700,1.024108642578125,-0.10323622822761536,-0.06230825558304787,-0.027488935738801956
1733230293584140500,1.034140625,-0.07391469180583954,-0.030543262138962746,-0.03787364438176155
1733230293594128400,1.04412841796875,-0.05314527451992035,-0.016493361443281174,-0.06291911751031876
1733230293604129500,1.054129638671875,-0.03298672288656235,-0.0012217304902151227,-0.09834930300712585
1733230293614117400,1.064117431640625,-0.015271631069481373,0.012217304669320583,-0.13805554807186127
1733230293624149000,1.07414892578125,-0.005497787147760391,0.021380282938480377,-0.1716531366109848
1733230293634106400,1.0841064453125,-0.005497787147760391,0.033597588539123535,-0.1918116807937622
1733230293644138000,1.094137939453125,-0.010995574295520782,0.045204028487205505,-0.19303341209888458
1733230293654126000,1.1041259765625,-0.02076941914856434,0.045204028487205505,-0.18081611394882202
1733230293664127000,1.114126953125,-0.04703662544488907,0.031154127791523933,-0.14294247329235077
1733230293674115000,1.124114990234375,-0.06352998316287994,0.016493361443281174,-0.11789698898792267
1733230293684146700,1.134146728515625,-0.07208210229873657,0.009162978269159794,-0.10384709388017654
1733230293694104000,1.14410400390625,-0.07024950534105301,0.016493361443281174,-0.09957103431224823
1733230293704135700,1.1541357421875,-0.0555887371301651,0.036041051149368286,-0.10384709388017654
1733230293714123500,1.16412353515625,-0.03726277872920036,0.059864792972803116,-0.11911872029304504
1733230293724124400,1.17412451171875,-0.01771509274840355,0.07452555745840073,-0.1459967941045761
1733230293734112500,1.184112548828125,0.006719517521560192,0.07024950534105301,-0.18081611394882202
1733230293744144000,1.194143798828125,0.014049900695681572,0.05619960278272629,-0.1918116807937622
1733230293754101500,1.2041015625,0.019547687843441963,0.031154127791523933,-0.18387043476104736
1733230293764132900,1.2141328125,0.02382374368607998,0.007941247895359993,-0.1514945775270462
1733230293774121200,1.224121337890625,0.02932153269648552,-0.00427605677396059,-0.10934487730264664
1733230293784122000,1.2341220703125,0.03726277872920036,-0.009773843921720982,-0.06841690838336945
1733230293794110000,1.24410986328125,0.04337143152952194,-0.01710422709584236,-0.03848451003432274
1733230293804141600,1.2541416015625,0.04886921867728233,-0.02076941914856434,-0.01771509274840355
1733230293814129700,1.264129638671875,0.05314527451992035,-0.013439035043120384,-0.016493361443281174
1733230293824130300,1.27413037109375,0.06108652427792549,-0.00855211354792118,-0.022602014243602753
1733230293834118700,1.28411865234375,0.07208210229873657,-0.0006108652451075613,-0.039706241339445114
1733230293844150000,1.29414990234375,0.07269296050071716,0.00855211354792118,-0.05864306539297104
1733230293854107600,1.304107666015625,0.06536258012056351,0.009773843921720982,-0.08185594528913498
1733230293864139300,1.31413916015625,0.0555887371301651,0.012217304669320583,-0.10384709388017654
1733230293874127400,1.32412744140625,0.045204028487205505,0.019547687843441963,-0.11911872029304504
1733230293884128300,1.334128173828125,0.04337143152952194,0.06291911751031876,-0.12828169763088226
1733230293894116000,1.3441162109375,0.07269296050071716,0.31520646810531616,-0.14538592100143433
1733230293904147700,1.354147705078125,0.03726277872920036,0.3738495409488678,-0.1368338167667389
1733230293914105000,1.36410498046875,-0.00733038317412138,0.29016098380088806,-0.10384709388017654
1733230293924136700,1.37413671875,-0.016493361443281174,0.21563543379306793,-0.045204028487205505
1733230293934124800,1.384124755859375,0.007941247895359993,0.1215621829032898,0.02321287989616394
1733230293944125700,1.394125732421875,0.048258353024721146,0.02321287989616394,0.09712757170200348
1733230293954113800,1.40411376953125,0.11423180252313614,-0.06108652427792549,0.16432274878025055
1733230293964145200,1.414145263671875,0.16004669666290283,-0.07269296050071716,0.15760323405265808
1733230293974102800,1.424102783203125,0.18448130786418915,-0.0555887371301651,0.12095131725072861
1733230293984134400,1.434134521484375,0.20097467303276062,0.12828169763088226,0.15821409225463867
1733230293994122500,1.44412255859375,0.18997909128665924,0.11362093687057495,0.19914206862449646
1733230294004123400,1.454123291015625,0.17043140530586243,0.10934487730264664,0.24068090319633484
1733230294014111200,1.464111328125,0.17409659922122955,0.11972958594560623,0.2987131178379059
1733230294024142800,1.474142822265625,0.182648703455925,0.09896016865968704,0.38606682419776917
1733230294034100500,1.4841005859375,0.17104226350784302,0.06230825558304787,0.4147774875164032
1733230294044131300,1.49413134765625,0.152105450630188,0.04886921867728233,0.40744712948799133
1733230294054120000,1.504119873046875,0.13439035415649414,0.06291911751031876,0.35552358627319336
1733230294064151000,1.514151123046875,0.11239920556545258,0.07391469180583954,0.26083946228027344
1733230294074109000,1.52410888671875,0.08368854224681854,0.06719517707824707,0.13316862285137177
1733230294084139800,1.534139892578125,0.04948008432984352,0.042760565876960754,-0.009773843921720982
1733230294094128400,1.54412841796875,0.027488935738801956,0.015271631069481373,-0.15943582355976105
1733230294104128500,1.55412841796875,0.025656340643763542,0.0012217304902151227,-0.3640756905078888
1733230294114116600,1.56411669921875,0.029932396486401558,0.012217304669320583,-0.48197266459465027
1733230294124148200,1.574148193359375,0.04214970022439957,0.05619960278272629,-0.5668829679489136
1733230294134105900,1.58410595703125,0.0354301854968071,0.08796459436416626,-0.5943718552589417
1733230294144137500,1.594137451171875,0.02382374368607998,0.0403171069920063,-0.5662720799446106
1733230294154125300,1.604125244140625,0.03420845419168472,-0.04642575979232788,-0.5082398653030396
1733230294164126500,1.61412646484375,0.05009094998240471,-0.13011430203914642,-0.43249258399009705
1733230294174114300,1.6241142578125,0.0555887371301651,-0.2376265823841095,-0.28649580478668213
1733230294184145700,1.634145751953125,0.05314527451992035,-0.2736676335334778,-0.19608774781227112
1733230294194103600,1.644103515625,0.05253441259264946,-0.27977627515792847,-0.11789698898792267
1733230294204135000,1.654135009765625,0.05619960278272629,-0.26145032048225403,-0.04153883829712868
1733230294214123500,1.66412353515625,0.06719517707824707,-0.2168571650981903,0.03237585723400116
1733230294224124400,1.67412451171875,0.08307767659425735,-0.15393804013729095,0.1062905490398407
1733230294234112500,1.684112548828125,0.10751228034496307,-0.08552113175392151,0.1722639948129654
1733230294244143900,1.694143798828125,0.13072516024112701,-0.009162978269159794,0.2541199326515198
1733230294254101500,1.7041015625,0.13744467496871948,0.036041051149368286,0.25595253705978394
1733230294264132400,1.71413232421875,0.15454891324043274,0.05192354694008827,0.2021963894367218
1733230294274121200,1.724121337890625,0.14355333149433136,0.04092797264456749,0.13255776464939117
1733230294284121300,1.734121337890625,0.1160643994808197,0.02687807008624077,0.06352998316287994
1733230294294110200,1.744110107421875,0.0959058403968811,0.028099801391363144,0.001832595793530345
1733230294304140800,1.754140869140625,0.08429940044879913,0.02321287989616394,-0.04581489413976669
1733230294314129700,1.764129638671875,0.07757988572120667,0.02076941914856434,-0.07635815441608429
1733230294324129800,1.7741298828125,0.07391469180583954,0.05375614017248154,-0.10262536257505417
1733230294334118700,1.78411865234375,0.06780604273080826,0.0861319974064827,-0.1062905490398407
1733230294344150000,1.79414990234375,0.05253441259264946,0.11423180252313614,-0.10567969083786011
1733230294354107600,1.804107666015625,0.03848451003432274,0.13072516024112701,-0.09651670604944229
1733230294364139000,1.814138916015625,0.033597588539123535,0.14782938361167908,-0.08735372871160507
1733230294374127400,1.82412744140625,0.029932396486401558,0.15760323405265808,-0.08124507963657379
1733230294384127200,1.834127197265625,0.024434609338641167,0.1618792861700058,-0.07757988572120667
1733230294394116000,1.8441162109375,-0.01771509274840355,0.1661553531885147,-0.06230825558304787
1733230294404147000,1.85414697265625,-0.02871066704392433,0.152105450630188,-0.06108652427792549
1733230294414105000,1.86410498046875,-0.03481931984424591,0.12034045159816742,-0.06658431142568588
1733230294424136200,1.87413623046875,-0.039095375686883926,0.06414084881544113,-0.07269296050071716
1733230294434124800,1.884124755859375,-0.04398229718208313,0.02076941914856434,-0.07208210229873657
1733230294444125200,1.894125244140625,-0.045204028487205505,-0.006108652334660292,-0.05742133408784866
1733230294454113800,1.90411376953125,-0.03726277872920036,-0.02321287989616394,-0.036651913076639175
1733230294464144600,1.91414453125,-0.01710422709584236,-0.04398229718208313,-0.016493361443281174
1733230294474102800,1.924102783203125,-0.003054326167330146,-0.05009094998240471,0.001832595793530345
1733230294484133400,1.93413330078125,0.016493361443281174,-0.04459316283464432,0.02626720629632473
1733230294494122200,1.944122314453125,0.036041051149368286,-0.03848451003432274,0.0507018156349659
1733230294504122600,1.95412255859375,0.056810468435287476,-0.03848451003432274,0.0806342139840126
1733230294514111200,1.964111328125,0.0757472887635231,-0.03726277872920036,0.1062905490398407
1733230294524142300,1.974142333984375,0.10873401165008545,-0.0012217304902151227,0.11362093687057495
1733230294534100200,1.984100341796875,0.13561208546161652,0.015882495790719986,0.10384709388017654
1733230294544131300,1.99413134765625,0.1618792861700058,-0.006719517521560192,0.06719517707824707
1733230294554120000,2.004119873046875,0.17104226350784302,-0.03481931984424591,0.048258353024721146
1733230294564151000,2.014151123046875,0.1716531366109848,-0.0659734457731247,0.03420845419168472
1733230294574108700,2.024108642578125,0.16249015927314758,-0.07330382615327835,0.030543262138962746
1733230294584139800,2.034139892578125,0.15271630883216858,-0.0708603709936142,0.04703662544488907
1733230294594128100,2.044128173828125,0.1459967941045761,-0.05192354694008827,0.06780604273080826
1733230294604128800,2.054128662109375,0.14782938361167908,-0.019547687843441963,0.07269296050071716
1733230294614117400,2.064117431640625,0.14538592100143433,0.03298672288656235,0.0403171069920063
1733230294624148500,2.0741484375,0.1313360333442688,0.0708603709936142,-0.022602014243602753
1733230294634134500,2.084134521484375,0.1014036312699318,0.0861319974064827,-0.10384709388017654
1733230294644137200,2.09413720703125,0.056810468435287476,0.07941248267889023,-0.19364428520202637
1733230294654125800,2.104125732421875,0.012828170321881771,0.0507018156349659,-0.29565876722335815
1733230294664126700,2.114126708984375,-0.03237585723400116,0.018936822190880775,-0.4001167416572571
1733230294674114800,2.12411474609375,-0.08185594528913498,-0.01771509274840355,-0.4899139404296875
1733230294684146400,2.134146484375,-0.1514945775270462,-0.1007927656173706,-0.5998696684837341
1733230294694104000,2.14410400390625,-0.2174680233001709,-0.16859880089759827,-0.6621779203414917
1733230294704135700,2.1541357421875,-0.31520646810531616,-0.2217440903186798,-0.7012733221054077
1733230294714123300,2.164123291015625,-0.4001167416572571,-0.17043140530586243,-0.6976081132888794
1733230294724123600,2.17412353515625,-0.46242499351501465,-0.1062905490398407,-0.6310238242149353
1733230294734112500,2.184112548828125,-0.4856378734111786,-0.014049900695681572,-0.4758640229701996
1733230294744143600,2.1941435546875,-0.47219884395599365,0.13011430203914642,-0.2168571650981903
1733230294754101500,2.2041015625,-0.47280970215797424,0.2681698501110077,0.07941248267889023
1733230294764133000,2.214133056640625,-0.4001167416572571,0.30970868468284607,0.4948008358478546
1733230294774121200,2.224121337890625,-0.31031954288482666,0.18631389737129211,0.6866125464439392
1733230294784122000,2.2341220703125,-0.2577851414680481,0.1062905490398407,0.8393288254737854
1733230294794110200,2.244110107421875,-0.22968533635139465,0.10690141469240189,0.9230173826217651
1733230294804141600,2.2541416015625,-0.20036379992961884,0.07269296050071716,0.9028588533401489
1733230294814129700,2.264129638671875,-0.20891591906547546,0.003054326167330146,0.7837401032447815
1733230294824129300,2.27412939453125,-0.2474004179239273,-0.08491026610136032,0.5589417219161987
1733230294834118700,2.28411865234375,-0.35124751925468445,-0.20097467303276062,0.11972958594560623
1733230294844149200,2.294149169921875,-0.42210787534713745,-0.25045475363731384,-0.16737708449363708
1733230294854107600,2.304107666015625,-0.47769662737846375,-0.23029619455337524,-0.39156460762023926
1733230294864139300,2.31413916015625,-0.4996877610683441,-0.16554448008537292,-0.5338962078094482
1733230294874127400,2.32412744140625,-0.4905247986316681,-0.07941248267889023,-0.5968153476715088
1733230294884128300,2.334128173828125,-0.4612032473087311,-0.060475658625364304,-0.5845980644226074
1733230294894116000,2.3441162109375,-0.3982841372489929,0.06780604273080826,-0.5461135506629944
1733230294904147500,2.3541474609375,-0.2993239760398865,0.2816088795661926,-0.4966334402561188
1733230294914105000,2.36410498046875,-0.22418753802776337,0.3891211748123169,-0.48319441080093384
1733230294924136400,2.374136474609375,-0.15332718193531036,0.40256020426750183,-0.46303585171699524
1733230294934124800,2.384124755859375,-0.10690141469240189,0.33719760179519653,-0.40622538328170776
1733230294944125700,2.394125732421875,-0.08368854224681854,0.23273965716362,-0.3121521472930908
1733230294954113800,2.40411376953125,-0.06719517707824707,0.12950342893600464,-0.20830504596233368
1733230294964145400,2.4141455078125,-0.04642575979232788,0.06169738993048668,-0.1007927656173706
1733230294974102800,2.424102783203125,-0.025045474991202354,0.025045474991202354,0.004886921960860491
1733230294984134400,2.434134521484375,-0.012828170321881771,-0.018936822190880775,0.11056660860776901
1733230294994122500,2.44412255859375,-0.024434609338641167,-0.036651913076639175,0.14355333149433136
1733230295004123100,2.454123046875,-0.04398229718208313,-0.0354301854968071,0.152105450630188
1733230295014111200,2.464111328125,-0.056810468435287476,-0.04642575979232788,0.18081611394882202
1733230295024142800,2.474142822265625,-0.07147123664617538,-0.05009094998240471,0.2370157092809677
1733230295034100500,2.4841005859375,-0.06291911751031876,-0.03726277872920036,0.29016098380088806
1733230295044131800,2.4941318359375,-0.0354301854968071,-0.02687807008624077,0.3481931984424591
1733230295054120000,2.504119873046875,-0.013439035043120384,-0.012217304669320583,0.4251621961593628
1733230295064150800,2.51415087890625,-0.00733038317412138,-0.00427605677396059,0.43249258399009705
1733230295074109000,2.52410888671875,-0.0024434609804302454,0,0.42088615894317627
1733230295084140000,2.53414013671875,-0.0012217304902151227,-0.009162978269159794,0.39156460762023926
1733230295094128400,2.54412841796875,-0.005497787147760391,-0.006719517521560192,0.3341432809829712
1733230295104128800,2.554128662109375,-0.012828170321881771,0.01771509274840355,0.252287358045578
1733230295114116600,2.56411669921875,-0.029932396486401558,0.04337143152952194,0.16249015927314758
1733230295124147700,2.574147705078125,-0.06719517707824707,0.09407325088977814,0.03848451003432274
1733230295134106000,2.584106201171875,-0.08918632566928864,0.10506882518529892,-0.02015855349600315
1733230295144137500,2.594137451171875,-0.09651670604944229,0.10018189996480942,-0.04703662544488907
1733230295154125300,2.604125244140625,-0.08979719132184982,0.09040805697441101,-0.03787364438176155
1733230295164126700,2.614126708984375,-0.07269296050071716,0.09712757170200348,0.00366519158706069
1733230295174114600,2.624114501953125,-0.05619960278272629,0.12095131725072861,0.06352998316287994
1733230295184146200,2.634146240234375,-0.042760565876960754,0.1508837193250656,0.12339477986097336
1733230295194103600,2.644103515625,-0.0354301854968071,0.16432274878025055,0.16432274878025055
1733230295204135000,2.654135009765625,-0.04581489413976669,0.13377949595451355,0.1667662113904953
1733230295214123500,2.66412353515625,-0.07880161702632904,0.10934487730264664,0.1264491081237793
1733230295224124700,2.674124755859375,-0.13255776464939117,0.08368854224681854,0.060475658625364304
1733230295234112500,2.684112548828125,-0.19608774781227112,0.033597588539123535,-0.015271631069481373
1733230295244144000,2.69414404296875,-0.24068090319633484,-0.012217304669320583,-0.07330382615327835
1733230295254101500,2.7041015625,-0.24007004499435425,-0.03420845419168472,-0.10018189996480942
1733230295264133400,2.71413330078125,-0.192422553896904,-0.031154127791523933,-0.09651670604944229
1733230295274121200,2.724121337890625,-0.06108652427792549,0.01038470957428217,-0.05192354694008827
1733230295284122000,2.7341220703125,0.06230825558304787,0.06536258012056351,-0.006108652334660292
1733230295294110200,2.744110107421875,0.19058994948863983,0.09957103431224823,0.03420845419168472
1733230295304140500,2.754140625,0.304210901260376,0.08002334833145142,0.06475171446800232
1733230295314129700,2.764129638671875,0.39767327904701233,0.009162978269159794,0.07880161702632904
1733230295324129300,2.77412939453125,0.46792277693748474,-0.07880161702632904,0.06780604273080826
1733230295334118700,2.78411865234375,0.513737678527832,-0.1368338167667389,0.031154127791523933
1733230295344150300,2.794150390625,0.523511528968811,-0.14233160018920898,-0.08918632566928864
1733230295354107600,2.804107666015625,0.4807509481906891,-0.1319468915462494,-0.20891591906547546
1733230295364139300,2.81413916015625,0.3885102868080139,-0.16982053220272064,-0.3628539443016052
1733230295374127000,2.824127197265625,0.252287358045578,-0.2577851414680481,-0.5119050741195679
1733230295384127200,2.834127197265625,0.09896016865968704,-0.4196644127368927,-0.5955936312675476
1733230295394116000,2.8441162109375,-0.019547687843441963,-0.5589417219161987,-0.5241223573684692
1733230295404147000,2.85414697265625,-0.029932396486401558,-0.44287729263305664,-0.24495697021484375
1733230295414105000,2.86410498046875,0.09346238523721695,-0.19547687470912933,0.20891591906547546
1733230295424136700,2.87413671875,0.37629300355911255,0.20586158335208893,1.037249207496643
1733230295434124800,2.884124755859375,0.5436700582504272,0.40133845806121826,1.4886785745620728
1733230295444125700,2.894125732421875,0.6530149579048157,0.49846604466438293,1.7550158500671387
1733230295454113800,2.90411376953125,0.7031059265136719,0.4813618063926697,1.8081611394882202
1733230295464144600,2.91414453125,0.6933320760726929,0.3836233615875244,1.6591099500656128
1733230295474102800,2.924102783203125,0.6145304441452026,0.182648703455925,1.3267992734909058
1733230295484135000,2.934135009765625,0.46547931432724,-0.060475658625364304,0.8411614298820496
1733230295494122200,2.944122314453125,0.1966986060142517,-0.35124751925468445,-0.0006108652451075613
1733230295504122000,2.9541220703125,0.056810468435287476,-0.4648684561252594,-0.48685958981513977
1733230295514111200,2.964111328125,-0.03298672288656235,-0.48869219422340393,-0.8130616545677185
1733230295524142600,2.974142578125,-0.10873401165008545,-0.3781255781650543,-0.9474520087242126
1733230295534100200,2.984100341796875,-0.12339477986097336,-0.2528982162475586,-0.9474520087242126
1733230295544131600,2.994131591796875,-0.07635815441608429,-0.12095131725072861,-0.8442157506942749
1733230295554120000,3.004119873046875,-0.001832595793530345,0.0006108652451075613,-0.6676757335662842
1733230295564151300,3.0141513671875,0.11362093687057495,0.17043140530586243,-0.3494149148464203
1733230295574108700,3.024108642578125,0.17592918872833252,0.24984388053417206,-0.1722639948129654
1733230295584140300,3.034140380859375,0.21807889640331268,0.27550023794174194,-0.06475171446800232
1733230295594128100,3.044128173828125,0.24190263450145721,0.24617868661880493,-0.02321287989616394
1733230295604129300,3.05412939453125,0.22602014243602753,0.17837265133857727,-0.031154127791523933
1733230295614117400,3.064117431640625,0.19425514340400696,0.09040805697441101,-0.07208210229873657
1733230295624149000,3.07414892578125,0.1618792861700058,0.009162978269159794,-0.1111774742603302
1733230295634106400,3.0841064453125,0.13255776464939117,-0.05192354694008827,-0.11789698898792267
1733230295644138000,3.094137939453125,0.10323622822761536,-0.09285151958465576,-0.06230825558304787
1733230295654125800,3.104125732421875,0.09407325088977814,-0.09285151958465576,-0.00733038317412138
1733230295664126200,3.114126220703125,0.08491026610136032,-0.08735372871160507,0.04214970022439957
1733230295674115000,3.124114990234375,0.07024950534105301,-0.0806342139840126,0.07330382615327835
1733230295684145400,3.1341455078125,0.051312681287527084,-0.07208210229873657,0.07880161702632904
1733230295694104000,3.14410400390625,0.027488935738801956,-0.07452555745840073,0.06475171446800232
1733230295704135000,3.154135009765625,0.0024434609804302454,-0.08185594528913498,0.028099801391363144
1733230295714123500,3.16412353515625,-0.03848451003432274,-0.06230825558304787,-0.039095375686883926
1733230295724123600,3.17412353515625,-0.06414084881544113,-0.033597588539123535,-0.08124507963657379
1733230295734112500,3.184112548828125,-0.0806342139840126,-0.00427605677396059,-0.10812314599752426
1733230295744144100,3.19414404296875,-0.09346238523721695,0.02382374368607998,-0.11484266817569733
1733230295754101500,3.2041015625,-0.09957103431224823,0.05314527451992035,-0.09834930300712585
1733230295764133000,3.214133056640625,-0.1007927656173706,0.07819075137376785,-0.06291911751031876
1733230295774121200,3.224121337890625,-0.09896016865968704,0.09346238523721695,-0.015271631069481373
1733230295784122000,3.2341220703125,-0.08735372871160507,0.09040805697441101,0.051312681287527084
1733230295794110200,3.244110107421875,-0.06780604273080826,0.07635815441608429,0.08857546001672745
1733230295804141800,3.254141845703125,-0.04337143152952194,0.03176499158143997,0.10873401165008545
1733230295814129700,3.264129638671875,-0.028099801391363144,-0.02871066704392433,0.1007927656173706
1733230295824130000,3.274130126953125,-0.025656340643763542,-0.11056660860776901,0.05864306539297104
1733230295834118700,3.28411865234375,-0.02871066704392433,-0.21624629199504852,-0.006719517521560192
1733230295844150000,3.29414990234375,-0.0354301854968071,-0.31154128909111023,-0.06963863968849182
1733230295854107600,3.304107666015625,-0.03848451003432274,-0.3732386529445648,-0.1062905490398407
1733230295864139000,3.314138916015625,-0.02932153269648552,-0.40744712948799133,-0.1160643994808197
1733230295874127400,3.32412744140625,-0.02076941914856434,-0.4092797040939331,-0.09529497474431992
1733230295884128300,3.334128173828125,-0.01466076634824276,-0.3952298164367676,-0.04703662544488907
1733230295894116000,3.3441162109375,0.010995574295520782,-0.394008070230484,0.021380282938480377
1733230295904147700,3.354147705078125,0.022602014243602753,-0.4202753007411957,0.09285151958465576
1733230295914105000,3.36410498046875,0.021991148591041565,-0.4447098970413208,0.14355333149433136
1733230295924136700,3.37413671875,0.02687807008624077,-0.46547931432724,0.13500121235847473
1733230295934124800,3.384124755859375,-0.018936822190880775,-0.5296201705932617,0.00366519158706069
1733230295944124400,3.39412451171875,-0.07819075137376785,-0.5870414972305298,-0.15943582355976105
1733230295954113800,3.40411376953125,-0.18875735998153687,-0.6126978397369385,-0.3799581825733185
1733230295964143900,3.414143798828125,-0.3323107063770294,-0.5876523852348328,-0.626747727394104
1733230295974102800,3.424102783203125,-0.4544837474822998,-0.4905247986316681,-0.8002334833145142
1733230295984133400,3.43413330078125,-0.5174028873443604,-0.2877175211906433,-0.7965682744979858
1733230295994122200,3.444122314453125,-0.4948008358478546,-0.013439035043120384,-0.5656611919403076
1733230296004123600,3.45412353515625,-0.3488040566444397,0.34208452701568604,0.13316862285137177
1733230296014111200,3.464111328125,-0.2528982162475586,0.4715879559516907,0.6786713004112244
1733230296024142600,3.474142578125,-0.18509216606616974,0.5210680365562439,1.1288789510726929
1733230296034100200,3.484100341796875,-0.13011430203914642,0.5485569834709167,1.3903292417526245
1733230296044131800,3.4941318359375,-0.10384709388017654,0.5607742667198181,1.4489723443984985
1733230296054120000,3.504119873046875,-0.11545353382825851,0.5455026626586914,1.3164145946502686
1733230296064150000,3.51414990234375,-0.16371189057826996,0.4917465150356293,1.007927656173706
1733230296074109000,3.52410888671875,-0.25106561183929443,0.44593164324760437,0.5821545720100403
1733230296084140500,3.534140625,-0.38728857040405273,0.3952298164367676,-0.09651670604944229
1733230296094128400,3.54412841796875,-0.43249258399009705,0.35246923565864563,-0.4440990388393402
1733230296104129800,3.5541298828125,-0.4337143301963806,0.32559117674827576,-0.636521577835083
1733230296114116600,3.56411669921875,-0.40194934606552124,0.32620203495025635,-0.6835582256317139
1733230296124148200,3.574148193359375,-0.35124751925468445,0.3225368559360504,-0.6328563690185547
1733230296134105900,3.58410595703125,-0.28466320037841797,0.31459560990333557,-0.5283984541893005
1733230296144137500,3.594137451171875,-0.21991148591041565,0.304210901260376,-0.4092797040939331
1733230296154125300,3.604125244140625,-0.12889257073402405,0.2687807083129883,-0.26145032048225403
1733230296164126200,3.614126220703125,-0.08307767659425735,0.22846360504627228,-0.2064724564552307
1733230296174114300,3.6241142578125,-0.04581489413976669,0.17837265133857727,-0.1875356286764145
1733230296184146000,3.63414599609375,-0.021380282938480377,0.12828169763088226,-0.1918116807937622
1733230296194103300,3.644103271484375,-0.009773843921720982,0.07696902006864548,-0.21319197118282318
1733230296204135000,3.654135009765625,-0.01038470957428217,0.03237585723400116,-0.24617868661880493
1733230296214123300,3.664123291015625,-0.010995574295520782,-0.0006108652451075613,-0.29016098380088806
1733230296224124700,3.674124755859375,-0.006719517521560192,-0.0354301854968071,-0.3494149148464203
1733230296234112800,3.68411279296875,0,-0.04886921867728233,-0.3689626157283783
1733230296244144000,3.69414404296875,0.0012217304902151227,-0.05497787147760391,-0.36713001132011414
1733230296254101500,3.7041015625,-0.007941247895359993,-0.06108652427792549,-0.34513887763023376
1733230296264133000,3.714133056640625,-0.016493361443281174,-0.05742133408784866,-0.31154128909111023
1733230296274121200,3.724121337890625,-0.02871066704392433,-0.06169738993048668,-0.26450464129447937
1733230296284122000,3.7341220703125,-0.0354301854968071,-0.054367005825042725,-0.2015855312347412
1733230296294110200,3.744110107421875,-0.03298672288656235,-0.04092797264456749,-0.13011430203914642
1733230296304141600,3.7541416015625,-0.028099801391363144,-0.03481931984424591,-0.03726277872920036
1733230296314129400,3.76412939453125,-0.02687807008624077,-0.0403171069920063,0.009162978269159794
1733230296324130300,3.77413037109375,-0.029932396486401558,-0.048258353024721146,0.04703662544488907
1733230296334118700,3.78411865234375,-0.039095375686883926,-0.048258353024721146,0.08002334833145142
1733230296344150300,3.794150390625,-0.04703662544488907,-0.0403171069920063,0.10567969083786011
1733230296354107600,3.804107666015625,-0.045204028487205505,-0.02687807008624077,0.13011430203914642
1733230296364138500,3.814138427734375,-0.04398229718208313,0.0006108652451075613,0.16065755486488342
1733230296374127000,3.824127197265625,-0.036041051149368286,0.04153883829712868,0.19486601650714874
1733230296384127700,3.834127685546875,-0.036041051149368286,0.07024950534105301,0.19120082259178162
1733230296394116000,3.8441162109375,-0.045204028487205505,0.09224065393209457,0.1618792861700058
1733230296404147200,3.854147216796875,-0.07024950534105301,0.10445795953273773,0.11178833991289139
1733230296414105000,3.86410498046875,-0.10751228034496307,0.09712757170200348,0.04703662544488907
1733230296424136200,3.87413623046875,-0.15393804013729095,0.08002334833145142,-0.01771509274840355
1733230296434124800,3.884124755859375,-0.20830504596233368,0.04459316283464432,-0.08857546001672745
1733230296444125700,3.894125732421875,-0.304210901260376,-0.02076941914856434,-0.18570303916931152
1733230296454113800,3.90411376953125,-0.3677408695220947,-0.015882495790719986,-0.2474004179239273
1733230296464145400,3.9141455078125,-0.40683624148368835,0.0012217304902151227,-0.28099802136421204
1733230296474102800,3.924102783203125,-0.40256020426750183,0,-0.2675589919090271
1733230296484134400,3.934134521484375,-0.3335324227809906,0.00733038317412138,-0.192422553896904
1733230296494122200,3.944122314453125,-0.19120082259178162,-0.027488935738801956,-0.07452555745840073
1733230296504123400,3.954123291015625,-0.06108652427792549,-0.04214970022439957,0.06963863968849182
1733230296514111200,3.964111328125,0.05192354694008827,-0.0024434609804302454,0.18387043476104736
1733230296524141000,3.97414111328125,0.18509216606616974,0.09162978827953339,0.22968533635139465
1733230296534100200,3.984100341796875,0.2321287989616394,0.15821409225463867,0.19303341209888458
1733230296544130300,3.99413037109375,0.24495697021484375,0.192422553896904,0.12950342893600464
1733230296554120000,4.004119873046875,0.23579397797584534,0.1661553531885147,0.051312681287527084
1733230296564151600,4.014151611328125,0.2021963894367218,0.06230825558304787,-0.03176499158143997
1733230296574109000,4.02410888671875,0.12278391420841217,-0.06963863968849182,-0.10934487730264664
1733230296584140500,4.034140625,0.0354301854968071,-0.12767083942890167,-0.14294247329235077
1733230296594128400,4.04412841796875,-0.0024434609804302454,-0.07269296050071716,0.012217304669320583
1733230296604129800,4.0541298828125,0.04581489413976669,0.006108652334660292,0.2681698501110077
1733230296614117400,4.064117431640625,0.14538592100143433,0.11239920556545258,0.5626068711280823
1733230296624149000,4.07414892578125,0.2577851414680481,0.20036379992961884,0.8216137290000916
1733230296634135000,4.084135009765625,0.33108896017074585,0.3090978264808655,1.017701506614685
1733230296644137700,4.0941376953125,0.36163222789764404,0.3689626157283783,1.171028733253479
1733230296654126000,4.1041259765625,0.32498031854629517,0.5180137157440186,1.1612548828125
1733230296664127000,4.114126953125,0.2541199326515198,0.6798930168151855,0.7929030656814575
1733230296674115000,4.124114990234375,0.17898350954055786,0.5418374538421631,0.36651915311813354
1733230296684146400,4.134146484375,0.0861319974064827,0.19975294172763824,-0.11972958594560623
1733230296694104000,4.14410400390625,-0.005497787147760391,-0.1472185254096985,-0.5595525503158569
1733230296704135700,4.1541357421875,-0.07024950534105301,-0.313373863697052,-0.8662069439888
1733230296714123500,4.16412353515625,-0.08185594528913498,-0.3634648323059082,-1.004873275756836
1733230296724124400,4.17412451171875,-0.03481931984424591,-0.41172316670417786,-0.9963212013244629
1733230296734112500,4.184112548828125,0.04214970022439957,-0.45753806829452515,-0.8851437568664551
1733230296744144000,4.194143798828125,0.14844025671482086,-0.4043927788734436,-0.6236934065818787
1733230296754101500,4.2041015625,0.1966986060142517,-0.3029891550540924,-0.4392121136188507
1733230296764133000,4.214133056640625,0.22968533635139465,-0.20525072515010834,-0.2828305959701538
1733230296774121200,4.224121337890625,0.2736676335334778,-0.13377949595451355,-0.16737708449363708
1733230296784122000,4.2341220703125,0.323147714138031,-0.1270599663257599,-0.09651670604944229
1733230296794110000,4.24410986328125,0.35185837745666504,-0.1514945775270462,-0.05497787147760391
1733230296804141800,4.254141845703125,0.3536909818649292,-0.1667662113904953,-0.02382374368607998
1733230296814129700,4.264129638671875,0.3274237811565399,-0.14355333149433136,0.004886921960860491
1733230296824130000,4.274130126953125,0.30543261766433716,-0.1313360333442688,0.009773843921720982
1733230296834118700,4.28411865234375,0.2742784917354584,-0.13011430203914642,0.009773843921720982
1733230296844149500,4.2941494140625,0.23884831368923187,-0.13500121235847473,0.0024434609804302454
1733230296854107600,4.304107666015625,0.19914206862449646,-0.1411098688840866,-0.005497787147760391
1733230296864138800,4.314138671875,0.16554448008537292,-0.14538592100143433,-0.019547687843441963
1733230296874127400,4.32412744140625,0.12522737681865692,-0.15271630883216858,-0.04703662544488907
1733230296884127700,4.334127685546875,0.056810468435287476,-0.14782938361167908,-0.10323622822761536
1733230296894116000,4.3441162109375,0.012828170321881771,-0.13500121235847473,-0.13072516024112701
1733230296904147000,4.35414697265625,-0.022602014243602753,-0.1111774742603302,-0.13744467496871948
1733230296914105000,4.36410498046875,-0.0403171069920063,-0.07819075137376785,-0.12461651116609573
1733230296924136700,4.37413671875,-0.051312681287527084,-0.04214970022439957,-0.10262536257505417
1733230296934124800,4.384124755859375,-0.06658431142568588,-0.01160643994808197,-0.08246681094169617
1733230296944125700,4.394125732421875,-0.07513642311096191,0.031154127791523933,-0.059864792972803116
1733230296954113800,4.40411376953125,-0.08368854224681854,0.07757988572120667,-0.03237585723400116
1733230296964145400,4.4141455078125,-0.07208210229873657,0.14782938361167908,0.04764748737215996
1733230296974103000,4.42410302734375,-0.04398229718208313,0.17409659922122955,0.11789698898792267
1733230296984134400,4.434134521484375,-0.003054326167330146,0.17104226350784302,0.1918116807937622
1733230296994122200,4.444122314453125,0.042760565876960754,0.12950342893600464,0.26022860407829285
1733230297004123100,4.454123046875,0.11545353382825851,0.0507018156349659,0.3121521472930908
1733230297014111200,4.464111328125,0.18570303916931152,-0.09712757170200348,0.32131510972976685
1733230297024142600,4.474142578125,0.20525072515010834,-0.18570303916931152,0.31093040108680725
1733230297034100500,4.4841005859375,0.17104226350784302,-0.21563543379306793,0.2480112910270691
1733230297044131800,4.4941318359375,0.12217304855585098,-0.1771509200334549,0.18325957655906677
1733230297054120000,4.504119873046875,0.07941248267889023,-0.12034045159816742,0.09834930300712585
1733230297064151300,4.5141513671875,0.05742133408784866,-0.10873401165008545,-0.02015855349600315
1733230297074109000,4.52410888671875,0.027488935738801956,-0.1716531366109848,-0.15943582355976105
1733230297084140500,4.534140625,0.003054326167330146,-0.25534167885780334,-0.2583959996700287
1733230297094128400,4.54412841796875,0.04886921867728233,-0.33719760179519653,-0.2993239760398865
1733230297104129500,4.554129638671875,0.18631389737129211,-0.4697553813457489,-0.2871066629886627
1733230297114116600,4.56411669921875,0.24862214922904968,-0.5656611919403076,-0.1869247704744339
1733230297124147200,4.574147216796875,0.2370157092809677,-0.684779942035675,-0.11545353382825851
1733230297134106000,4.584106201171875,0.11484266817569733,-0.7422012686729431,-0.07147123664617538
1733230297144136200,4.59413623046875,-0.06780604273080826,-0.6151412725448608,-0.019547687843441963
1733230297154125300,4.604125244140625,-0.17409659922122955,-0.3494149148464203,0.0507018156349659
1733230297164126200,4.614126220703125,-0.1918116807937622,-0.07208210229873657,0.18448130786418915
1733230297174114300,4.6241142578125,-0.1765400618314743,0.19608774781227112,0.384845107793808
1733230297184146000,4.63414599609375,-0.18387043476104736,0.4764748811721802,0.7037167549133301
1733230297194103600,4.644103515625,-0.19303341209888458,0.5870414972305298,0.8814785480499268
1733230297204135000,4.654135009765625,-0.1875356286764145,0.6133087277412415,0.9993755221366882
1733230297214123500,4.66412353515625,-0.1918116807937622,0.5277875661849976,0.9963212013244629
1733230297224123400,4.674123291015625,-0.21074850857257843,0.3878994286060333,0.8295549750328064
1733230297234112500,4.684112548828125,-0.2638937830924988,0.21013765037059784,0.49846604466438293
1733230297244142600,4.694142578125,-0.3543018400669098,0.03726277872920036,0.051312681287527084
1733230297254101500,4.7041015625,-0.49846604466438293,-0.07024950534105301,-0.6090326309204102
1733230297264133000,4.714133056640625,-0.5442809462547302,0.001832595793530345,-0.8814785480499268
1733230297274121200,4.724121337890625,-0.5369505286216736,0.10567969083786011,-1.0042624473571777
1733230297284122000,4.7341220703125,-0.4856378734111786,0.20402899384498596,-1.009149432182312
1733230297294110200,4.744110107421875,-0.4141666293144226,0.3237585723400116,-0.9144652485847473
1733230297304141300,4.754141357421875,-0.3341432809829712,0.4398229718208313,-0.750142514705658
1733230297314129400,4.76412939453125,-0.26022860407829285,0.5027421116828918,-0.5564982295036316
1733230297324130300,4.77413037109375,-0.16798794269561768,0.45814892649650574,-0.29626965522766113
1733230297334118700,4.78411865234375,-0.11972958594560623,0.3543018400669098,-0.18020524084568024
1733230297344150000,4.79414990234375,-0.08735372871160507,0.24007004499435425,-0.10384709388017654
1733230297354107600,4.804107666015625,-0.06352998316287994,0.13500121235847473,-0.051312681287527084
1733230297364139300,4.81413916015625,-0.04214970022439957,0.04092797264456749,-0.025045474991202354
1733230297374127000,4.824127197265625,-0.01771509274840355,-0.03176499158143997,-0.025656340643763542
1733230297384128300,4.834128173828125,-0.003054326167330146,-0.06902777403593063,-0.03726277872920036
1733230297394116000,4.8441162109375,0.005497787147760391,-0.07391469180583954,-0.04398229718208313
1733230297404147700,4.854147705078125,0.013439035043120384,-0.05314527451992035,-0.04581489413976669
1733230297414105000,4.86410498046875,0.019547687843441963,-0.033597588539123535,-0.04337143152952194
1733230297424136400,4.874136474609375,0.015882495790719986,-0.016493361443281174,-0.04092797264456749
1733230297434124800,4.884124755859375,0.009773843921720982,-0.00366519158706069,-0.03298672288656235
1733230297444125700,4.894125732421875,-0.007941247895359993,-0.006719517521560192,-0.018936822190880775
1733230297454113800,4.90411376953125,-0.027488935738801956,-0.031154127791523933,-0.00855211354792118
1733230297464145200,4.914145263671875,-0.04948008432984352,-0.06719517707824707,-0.01038470957428217
1733230297474102800,4.924102783203125,-0.07269296050071716,-0.12339477986097336,-0.025656340643763542
1733230297484134400,4.934134521484375,-0.07513642311096191,-0.13988813757896423,-0.027488935738801956
1733230297494122200,4.944122314453125,-0.09346238523721695,-0.17043140530586243,-0.02382374368607998
1733230297504123100,4.954123046875,-0.11178833991289139,-0.1722639948129654,-0.00733038317412138
1733230297514111200,4.964111328125,-0.12034045159816742,-0.14049901068210602,0.015271631069481373
1733230297524142800,4.974142822265625,-0.11850785464048386,-0.09224065393209457,0.04459316283464432
1733230297534100200,4.984100341796875,-0.11301007121801376,-0.033597588539123535,0.07941248267889023
1733230297544131800,4.9941318359375,-0.1014036312699318,0.056810468435287476,0.11423180252313614
1733230297554120000,5.004119873046875,-0.0959058403968811,0.11056660860776901,0.1062905490398407
1733230297564151600,5.014151611328125,-0.10201449692249298,0.1459967941045761,0.06719517707824707
1733230297574108700,5.024108642578125,-0.1062905490398407,0.16920967400074005,0.0006108652451075613
1733230297584140500,5.034140625,-0.11667526513338089,0.17287486791610718,-0.07941248267889023
1733230297594128400,5.04412841796875,-0.13988813757896423,0.1618792861700058,-0.1722639948129654
1733230297604129500,5.054129638671875,-0.17043140530586243,0.1466076523065567,-0.2632829248905182
1733230297614117400,5.064117431640625,-0.19792033731937408,0.12461651116609573,-0.33169981837272644
1733230297624149000,5.07414892578125,-0.20402899384498596,0.09162978827953339,-0.3585779070854187
1733230297634106400,5.0841064453125,-0.17470745742321014,0.08002334833145142,-0.303600013256073
1733230297644138000,5.094137939453125,-0.11362093687057495,0.07452555745840073,-0.19608774781227112
1733230297654126000,5.1041259765625,-0.02871066704392433,0.07696902006864548,-0.06230825558304787
1733230297664127200,5.114127197265625,0.07452555745840073,0.07880161702632904,0.06780604273080826
1733230297674115000,5.124114990234375,0.17409659922122955,0.08368854224681854,0.13744467496871948
1733230297684146400,5.134146484375,0.24007004499435425,0.09162978827953339,0.10934487730264664
1733230297694104000,5.14410400390625,0.26633724570274353,0.09651670604944229,-0.11484266817569733
1733230297704135700,5.1541357421875,0.24068090319633484,0.07452555745840073,-0.3280346393585205
1733230297714123300,5.164123291015625,0.18509216606616974,0.019547687843441963,-0.543059229850769
1733230297724124400,5.17412451171875,0.10812314599752426,-0.07452555745840073,-0.7299839854240417
1733230297734112500,5.184112548828125,0.01038470957428217,-0.2021963894367218,-0.8387179970741272
1733230297744143600,5.1941435546875,-0.07147123664617538,-0.31093040108680725,-0.8148942589759827
1733230297754101500,5.2041015625,-0.09040805697441101,-0.36651915311813354,-0.6017022728919983
1733230297764133000,5.214133056640625,0.01038470957428217,-0.32070425152778625,0.0806342139840126
1733230297774121200,5.224121337890625,0.14355333149433136,-0.23640485107898712,0.6548475623130798
1733230297784122000,5.2341220703125,0.3139847218990326,-0.14538592100143433,1.1887437105178833
1733230297794110200,5.244110107421875,0.45204028487205505,-0.08735372871160507,1.566258430480957
1733230297804141600,5.2541416015625,0.5271766781806946,-0.06414084881544113,1.718363881111145
1733230297814129700,5.264129638671875,0.5369505286216736,-0.05375614017248154,1.6365079879760742
1733230297824131000,5.274131103515625,0.4801400899887085,-0.16554448008537292,1.380555510520935
1733230297834118700,5.28411865234375,0.342695415019989,-0.2015855312347412,0.9144652485847473
1733230297844149000,5.29414892578125,0.11545353382825851,-0.21991148591041565,-0.03237585723400116
1733230297854107600,5.304107666015625,-0.01710422709584236,-0.16432274878025055,-0.6126978397369385
1733230297864139000,5.314138916015625,-0.1062905490398407,-0.10995574295520782,-1.0036516189575195
1733230297874127400,5.32412744140625,-0.15271630883216858,-0.08674286305904388,-1.177748203277588
1733230297884128300,5.334128173828125,-0.12767083942890167,-0.10018189996480942,-1.140485405921936
1733230297894116000,5.3441162109375,-0.048258353024721146,-0.1417207419872284,-0.9334021210670471
1733230297904147700,5.354147705078125,0.06352998316287994,-0.1661553531885147,-0.6047565937042236
1733230297914105000,5.36410498046875,0.2571742534637451,-0.16371189057826996,-0.060475658625364304
1733230297924136400,5.374136474609375,0.3677408695220947,-0.16371189057826996,0.2174680233001709
1733230297934124800,5.384124755859375,0.4202753007411957,-0.16065755486488342,0.3634648323059082
1733230297944125700,5.394125732421875,0.43799036741256714,-0.15271630883216858,0.37629300355911255
1733230297954113800,5.40411376953125,0.423329621553421,-0.14233160018920898,0.2877175211906433
1733230297964145400,5.4141455078125,0.37629300355911255,-0.10995574295520782,0.14538592100143433
1733230297974103000,5.42410302734375,0.30482175946235657,-0.07147123664617538,-0.009162978269159794
1733230297984134400,5.434134521484375,0.21991148591041565,-0.030543262138962746,-0.18997909128665924
1733230297994122200,5.444122314453125,0.1875356286764145,-0.009773843921720982,-0.24129177629947662
1733230298004123100,5.454123046875,0.16371189057826996,0.007941247895359993,-0.23518311977386475
1733230298014111200,5.464111328125,0.13805554807186127,0.01466076634824276,-0.18814650177955627
1733230298024142800,5.474142822265625,0.11301007121801376,0.015271631069481373,-0.1264491081237793
1733230298034100500,5.4841005859375,0.08185594528913498,0.009162978269159794,-0.06902777403593063
1733230298044131600,5.494131591796875,0.04764748737215996,-0.0006108652451075613,-0.02687807008624077
1733230298054120000,5.504119873046875,0.015882495790719986,-0.006719517521560192,-0.010995574295520782
1733230298064150800,5.51415087890625,-0.039706241339445114,-0.0006108652451075613,-0.04337143152952194
1733230298074109000,5.52410888671875,-0.08491026610136032,0.005497787147760391,-0.10506882518529892
1733230298084140500,5.534140625,-0.1313360333442688,0.015882495790719986,-0.18081611394882202
1733230298094128400,5.54412841796875,-0.16737708449363708,0.031154127791523933,-0.252287358045578
1733230298104129500,5.554129638671875,-0.1973094791173935,0.04886921867728233,-0.30054569244384766
1733230298114116600,5.56411669921875,-0.22113321721553802,0.0659734457731247,-0.32009339332580566
1733230298124148200,5.574148193359375,-0.23273965716362,0.07757988572120667,-0.30115658044815063
1733230298134106000,5.584106201171875,-0.22052235901355743,0.0659734457731247,-0.2015855312347412
1733230298144137500,5.594137451171875,-0.19914206862449646,0.03420845419168472,-0.09957103431224823
1733230298154125300,5.604125244140625,-0.16982053220272064,-0.016493361443281174,0.018936822190880775
1733230298164126500,5.61412646484375,-0.13744467496871948,-0.08002334833145142,0.13805554807186127
1733230298174114600,5.624114501953125,-0.10384709388017654,-0.1411098688840866,0.24495697021484375
1733230298184146000,5.63414599609375,-0.07208210229873657,-0.19792033731937408,0.33047810196876526
1733230298194103600,5.644103515625,-0.04642575979232788,-0.24556782841682434,0.38606682419776917
1733230298204135000,5.654135009765625,-0.021380282938480377,-0.28038713335990906,0.40256020426750183
1733230298214123500,5.66412353515625,-0.01466076634824276,-0.26633724570274353,0.3885102868080139
1733230298224124400,5.67412451171875,-0.019547687843441963,-0.22540926933288574,0.3683517575263977
1733230298234112500,5.684112548828125,-0.021991148591041565,-0.16920967400074005,0.3488040566444397
1733230298244143900,5.694143798828125,-0.031154127791523933,-0.13316862285137177,0.32620203495025635
1733230298254101500,5.7041015625,-0.0555887371301651,-0.13988813757896423,0.2938261926174164
1733230298264133000,5.714133056640625,-0.08918632566928864,-0.17898350954055786,0.24862214922904968
1733230298274121200,5.724121337890625,-0.10934487730264664,-0.22663100063800812,0.2015855312347412
1733230298284122000,5.7341220703125,-0.09834930300712585,-0.2919935882091522,0.15882496535778046
1733230298294110200,5.744110107421875,-0.0757472887635231,-0.2993239760398865,0.15027284622192383
1733230298304140300,5.754140380859375,-0.06108652427792549,-0.28955012559890747,0.1319468915462494
1733230298314129400,5.76412939453125,-0.08429940044879913,-0.3194825351238251,0.08124507963657379
1733230298324129500,5.774129638671875,-0.15454891324043274,-0.31093040108680725,-0.016493361443281174
1733230298334118700,5.78411865234375,-0.24862214922904968,-0.24190263450145721,-0.14966198801994324
1733230298344149800,5.794149658203125,-0.34758231043815613,-0.05253441259264946,-0.2675589919090271
1733230298354107600,5.804107666015625,-0.41661009192466736,0.36163222789764404,-0.23396138846874237
1733230298364138800,5.814138671875,-0.41111230850219727,0.5809328556060791,-0.029932396486401558
1733230298374127000,5.824127197265625,-0.403781920671463,0.7031059265136719,0.2535090744495392
1733230298384128300,5.834128173828125,-0.3854559659957886,0.720820963382721,0.5510004758834839
1733230298394116000,5.8441162109375,-0.33292156457901,0.6890559792518616,0.7916813492774963
1733230298404147700,5.854147705078125,-0.28466320037841797,0.6316346526145935,0.9199630618095398
1733230298414105000,5.86410498046875,-0.27122417092323303,0.5186246037483215,0.8772025108337402
1733230298424135700,5.8741357421875,-0.3225368559360504,0.3237585723400116,0.4966334402561188
1733230298434124800,5.884124755859375,-0.40072759985923767,0.22418753802776337,0.07941248267889023
1733230298444124700,5.894124755859375,-0.4954117238521576,0.18631389737129211,-0.3787364661693573
1733230298454113800,5.90411376953125,-0.5699372887611389,0.1918116807937622,-0.7922922372817993
1733230298464145200,5.914145263671875,-0.608421802520752,0.22479841113090515,-1.0873401165008545
1733230298474102800,5.924102783203125,-0.6053674817085266,0.26572638750076294,-1.2211196422576904
1733230298484134400,5.934134521484375,-0.5534439086914062,0.2828305959701538,-1.1997393369674683
1733230298494122200,5.944122314453125,-0.4489859640598297,0.2840523421764374,-1.0543533563613892
1733230298504123100,5.954123046875,-0.26083946228027344,0.3090978264808655,-0.7037167549133301
1733230298514111200,5.964111328125,-0.1569923609495163,0.3286454975605011,-0.4715879559516907
1733230298524142800,5.974142822265625,-0.07757988572120667,0.33658674359321594,-0.29138273000717163
1733230298534100200,5.984100341796875,-0.02015855349600315,0.32620203495025635,-0.17776179313659668
1733230298544131600,5.994131591796875,0.01038470957428217,0.30115658044815063,-0.11667526513338089
1733230298554120000,6.004119873046875,0.015271631069481373,0.2565633952617645,-0.1014036312699318
1733230298564151300,6.0141513671875,-0.00427605677396059,0.17287486791610718,-0.12767083942890167
1733230298574109000,6.02410888671875,-0.04153883829712868,0.03481931984424591,-0.20463985204696655
1733230298584140300,6.034140380859375,-0.06719517707824707,-0.015882495790719986,-0.24068090319633484
1733230298594128400,6.04412841796875,-0.08002334833145142,-0.0354301854968071,-0.25106561183929443
1733230298604129300,6.05412939453125,-0.08002334833145142,-0.039095375686883926,-0.2321287989616394
1733230298614117400,6.064117431640625,-0.06352998316287994,-0.018936822190880775,-0.1771509200334549
1733230298624148700,6.074148681640625,-0.039706241339445114,0.0354301854968071,-0.0910189226269722
1733230298634134500,6.084134521484375,-0.01160643994808197,0.09896016865968704,0.001832595793530345
1733230298644138000,6.094137939453125,0.03176499158143997,0.1661553531885147,0.11545353382825851
1733230298654126000,6.1041259765625,0.06352998316287994,0.16982053220272064,0.16310101747512817
1733230298664127000,6.114126953125,0.0861319974064827,0.15882496535778046,0.18448130786418915
1733230298674115000,6.124114990234375,0.09896016865968704,0.14844025671482086,0.19120082259178162
1733230298684146400,6.134146484375,0.09529497474431992,0.12828169763088226,0.20525072515010834
1733230298694104000,6.14410400390625,0.07452555745840073,0.1264491081237793,0.22907446324825287
1733230298704135400,6.154135498046875,0.05253441259264946,0.16554448008537292,0.21563543379306793
1733230298714123300,6.164123291015625,0.0403171069920063,0.19608774781227112,0.1661553531885147
1733230298724124400,6.17412451171875,-0.00427605677396059,0.19608774781227112,0.08246681094169617
1733230298734112500,6.184112548828125,-0.05375614017248154,0.20097467303276062,0.024434609338641167
1733230298744144000,6.194143798828125,-0.10323622822761536,0.17348572611808777,-0.04214970022439957
1733230298754101500,6.2041015625,-0.1514945775270462,0.12950342893600464,-0.11423180252313614
1733230298764133000,6.214133056640625,-0.19853121042251587,0.1007927656173706,-0.16249015927314758
1733230298774121200,6.224121337890625,-0.23945917189121246,0.08979719132184982,-0.19608774781227112
1733230298784122000,6.2341220703125,-0.2791654169559479,0.06352998316287994,-0.22418753802776337
1733230298794110200,6.244110107421875,-0.32131510972976685,0.05253441259264946,-0.2822197377681732
1733230298804141800,6.254141845703125,-0.3433062732219696,0.09651670604944229,-0.3481931984424591
1733230298814129700,6.264129638671875,-0.3579670190811157,0.18936823308467865,-0.4105014503002167
1733230298824131000,6.274131103515625,-0.35674530267715454,0.30482175946235657,-0.44226643443107605
1733230298834118700,6.28411865234375,-0.3396410644054413,0.3885102868080139,-0.44654250144958496
1733230298844150000,6.29414990234375,-0.30482175946235657,0.43249258399009705,-0.42577308416366577
1733230298854107600,6.304107666015625,-0.25045475363731384,0.4349360466003418,-0.3988949954509735
1733230298864138000,6.314137939453125,-0.12400564551353455,0.3701843321323395,-0.3500257730484009
1733230298874127400,6.32412744140625,-0.02321287989616394,0.2767219543457031,-0.3176499307155609
1733230298884126700,6.334126708984375,0.06902777403593063,0.1569923609495163,-0.30115658044815063
1733230298894116000,6.3441162109375,0.12767083942890167,0.05742133408784866,-0.3084869384765625
1733230298904146400,6.354146484375,0.14782938361167908,0.0024434609804302454,-0.3396410644054413
1733230298914105000,6.36410498046875,0.12461651116609573,0.024434609338641167,-0.3646865487098694
1733230298924135700,6.3741357421875,0.11301007121801376,0.12889257073402405,-0.3885102868080139
1733230298934124800,6.384124755859375,0.20036379992961884,0.30115658044815063,-0.42088615894317627
1733230298944124200,6.394124267578125,0.43615779280662537,0.39645153284072876,-0.4746423065662384
1733230298954113800,6.40411376953125,0.3793473243713379,0.19853121042251587,-0.45814892649650574
1733230298964144600,6.41414453125,0.25045475363731384,-0.06902777403593063,-0.46792277693748474
1733230298974102800,6.424102783203125,0.242513507604599,-0.22479841113090515,-0.5613851547241211
1733230298984133400,6.43413330078125,0.28527405858039856,-0.2791654169559479,-0.5949827432632446
1733230298994122200,6.444122314453125,0.33536502718925476,-0.24984388053417206,-0.4031710624694824
1733230299004122600,6.45412255859375,0.4398229718208313,-0.08429940044879913,0.030543262138962746
1733230299014111200,6.464111328125,0.6499606370925903,0.1569923609495163,0.8234463334083557
1733230299024142300,6.474142333984375,0.7849618196487427,0.08796459436416626,1.3078625202178955
1733230299034100500,6.4841005859375,0.8130616545677185,-0.045204028487205505,1.6975945234298706
1733230299044130600,6.494130615234375,0.8148942589759827,-0.1514945775270462,1.9046778678894043
1733230299054120000,6.504119873046875,0.79840087890625,-0.2278527319431305,1.8918496370315552
1733230299064150000,6.51414990234375,0.7257078886032104,-0.24617868661880493,1.663996934890747
1733230299074109000,6.52410888671875,0.6047565937042236,-0.3695734739303589,1.205847978591919
1733230299084139800,6.534139892578125,0.3683517575263977,-0.7617489695549011,0.24007004499435425
1733230299094128400,6.54412841796875,0.17898350954055786,-0.8998045325279236,-0.38606682419776917
1733230299104128800,6.554128662109375,0.031154127791523933,-0.8051204085350037,-0.8521569967269897
1733230299114116600,6.56411669921875,-0.08246681094169617,-0.6090326309204102,-1.129489779472351
1733230299124148000,6.57414794921875,-0.15943582355976105,-0.3830125033855438,-1.208902359008789
1733230299134106000,6.584106201171875,-0.18448130786418915,-0.1514945775270462,-1.0989465713500977
1733230299144136700,6.59413671875,-0.14477506279945374,0.019547687843441963,-0.8478809595108032
1733230299154125300,6.604125244140625,-0.05375614017248154,0.1362229436635971,-0.5290092825889587
1733230299164125700,6.614125732421875,0.09285151958465576,0.21319197118282318,-0.07696902006864548
1733230299174114300,6.6241142578125,0.1472185254096985,0.19058994948863983,0.11850785464048386
1733230299184145200,6.634145263671875,0.1508837193250656,0.11301007121801376,0.21013765037059784
1733230299194103600,6.644103515625,0.1160643994808197,0.00855211354792118,0.2028072625398636
1733230299204135000,6.654135009765625,0.05314527451992035,-0.11056660860776901,0.12034045159816742
1733230299214123300,6.664123291015625,-0.029932396486401558,-0.21319197118282318,-0.0006108652451075613
1733230299224124400,6.67412451171875,-0.11789698898792267,-0.294437050819397,-0.1160643994808197
1733230299234112500,6.684112548828125,-0.24373523890972137,-0.44715335965156555,-0.2370157092809677
1733230299244143900,6.694143798828125,-0.31642818450927734,-0.5540547966957092,-0.27000242471694946
1733230299254101500,6.7041015625,-0.3689626157283783,-0.5919284224510193,-0.2590068578720093
1733230299264133000,6.714133056640625,-0.40256020426750183,-0.5222898125648499,-0.17531833052635193
1733230299274121200,6.724121337890625,-0.4001167416572571,-0.3799581825733185,-0.0354301854968071
1733230299284122400,6.734122314453125,-0.3640756905078888,-0.2626720666885376,0.10384709388017654
1733230299294110200,6.744110107421875,-0.303600013256073,-0.182648703455925,0.20830504596233368
1733230299304141800,6.754141845703125,-0.21807889640331268,-0.1007927656173706,0.2938261926174164
1733230299314129400,6.76412939453125,-0.2021963894367218,-0.048258353024721146,0.3029891550540924
1733230299324130600,6.774130615234375,-0.2125810980796814,0.0012217304902151227,0.2736676335334778
1733230299334118700,6.78411865234375,-0.24556782841682434,0.04398229718208313,0.2382374405860901
1733230299344150300,6.794150390625,-0.2968805134296417,0.09468411654233932,0.2119702398777008
1733230299354107600,6.804107666015625,-0.342695415019989,0.13255776464939117,0.19792033731937408
1733230299364139300,6.81413916015625,-0.37201693654060364,0.13805554807186127,0.19303341209888458
1733230299374127000,6.824127197265625,-0.39584067463874817,0.11789698898792267,0.19608774781227112
1733230299384128300,6.834128173828125,-0.4434881806373596,0.08124507963657379,0.17592918872833252
1733230299394116000,6.8441162109375,-0.48380526900291443,0.06352998316287994,0.1264491081237793
1733230299404148000,6.85414794921875,-0.5314527750015259,0.05314527451992035,0.042760565876960754
1733230299414105000,6.86410498046875,-0.5797111392021179,0.04398229718208313,-0.06719517707824707
1733230299424136200,6.87413623046875,-0.6188064813613892,0.04642575979232788,-0.17898350954055786
1733230299434124800,6.884124755859375,-0.6505714654922485,0.0659734457731247,-0.2590068578720093
1733230299444125400,6.89412548828125,-0.6719517707824707,0.07696902006864548,-0.2938261926174164
1733230299454113800,6.90411376953125,-0.655458390712738,0.06108652427792549,-0.2773328125476837
1733230299464145000,6.914144775390625,-0.6139195561408997,0.04581489413976669,-0.23090706765651703
1733230299474102800,6.924102783203125,-0.5467243790626526,0.03298672288656235,-0.1618792861700058
1733230299484134000,6.9341337890625,-0.45814892649650574,0.04703662544488907,-0.07696902006864548
1733230299494122200,6.944122314453125,-0.38179078698158264,0.08368854224681854,0.005497787147760391
1733230299504123600,6.95412353515625,-0.3194825351238251,0.11850785464048386,0.056810468435287476
1733230299514111200,6.964111328125,-0.26450464129447937,0.13439035415649414,0.05925392732024193
1733230299524143400,6.974143310546875,-0.20036379992961884,0.12034045159816742,-0.006719517521560192
1733230299534100200,6.984100341796875,-0.17287486791610718,0.09712757170200348,-0.06780604273080826
1733230299544131800,6.9941318359375,-0.16493362188339233,0.06841690838336945,-0.1264491081237793
1733230299554120000,7.004119873046875,-0.16249015927314758,0.036651913076639175,-0.17470745742321014
1733230299564151600,7.014151611328125,-0.16371189057826996,0.016493361443281174,-0.2119702398777008
1733230299574109000,7.02410888671875,-0.16310101747512817,0.009773843921720982,-0.23151792585849762
1733230299584140500,7.034140625,-0.15882496535778046,-0.01710422709584236,-0.20341812074184418
1733230299594128400,7.04412841796875,-0.14416420459747314,0,-0.08368854224681854
1733230299604129500,7.054129638671875,-0.09651670604944229,0.0354301854968071,0.17470745742321014
1733230299614117400,7.064117431640625,-0.05009094998240471,-0.00855211354792118,0.192422553896904
1733230299624149000,7.07414892578125,-0.039706241339445114,-0.02015855349600315,0.17776179313659668
1733230299634106400,7.0841064453125,-0.039095375686883926,-0.11972958594560623,0.15027284622192383
1733230299644137700,7.0941376953125,-0.029932396486401558,-0.17837265133857727,0.1111774742603302
1733230299654126000,7.1041259765625,-0.04337143152952194,-0.15882496535778046,0.07941248267889023
1733230299664127000,7.114126953125,-0.06658431142568588,-0.12278391420841217,0.05742133408784866
1733230299674115000,7.124114990234375,-0.07269296050071716,-0.12950342893600464,0.09651670604944229
1733230299684146400,7.134146484375,-0.059864792972803116,-0.13744467496871948,0.18814650177955627
1733230299694104000,7.14410400390625,-0.033597588539123535,-0.13011430203914642,0.2932153046131134
1733230299704135700,7.1541357421875,-0.00733038317412138,-0.16249015927314758,0.3433062732219696
1733230299714123300,7.164123291015625,0.004886921960860491,-0.22357667982578278,0.3188716471195221
1733230299724124400,7.17412451171875,0.0012217304902151227,-0.24129177629947662,0.2541199326515198
