time,seconds_elapsed,z,y,x
1733230293034201600,0.48420166015625,0.01710422709584236,-0.02321287989616394,-0.05192354694008827
1733230293044202800,0.49420263671875,0.001832595793530345,-0.029932396486401558,-0.03420845419168472
1733230293054190600,0.504190673828125,-0.015271631069481373,-0.05009094998240471,-0.02076941914856434
1733230293064222200,0.51422216796875,-0.031154127791523933,-0.07757988572120667,-0.014049900695681572
1733230293074179600,0.5241796875,-0.04398229718208313,-0.10384709388017654,-0.024434609338641167
1733230293084211200,0.534211181640625,-0.039706241339445114,-0.10384709388017654,-0.04703662544488907
1733230293094199300,0.54419921875,-0.02382374368607998,-0.0910189226269722,-0.07696902006864548
1733230293104200200,0.5542001953125,0.0006108652451075613,-0.06414084881544113,-0.11301007121801376
1733230293114186200,0.564186279296875,0.02015855349600315,-0.03726277872920036,-0.14233160018920898
1733230293124218600,0.574218505859375,0.03176499158143997,-0.012217304669320583,-0.16554448008537292
1733230293134176300,0.58417626953125,0.0354301854968071,0.02076941914856434,-0.18631389737129211
1733230293144208000,0.594207763671875,0.03420845419168472,0.059864792972803116,-0.21441370248794556
1733230293154195500,0.604195556640625,0.030543262138962746,0.06902777403593063,-0.22663100063800812
1733230293164196600,0.614196533203125,0.02321287989616394,0.0708603709936142,-0.22663100063800812
1733230293174184700,0.624184814453125,0.01710422709584236,0.06291911751031876,-0.21135938167572021
1733230293184216000,0.634216064453125,0.007941247895359993,0.042760565876960754,-0.18387043476104736
1733230293194173700,0.644173583984375,-0.007941247895359993,0.007941247895359993,-0.1508837193250656
1733230293204205000,0.654205078125,-0.031154127791523933,-0.029932396486401558,-0.1215621829032898
1733230293214194200,0.664194091796875,-0.051312681287527084,-0.06108652427792549,-0.10262536257505417
1733230293224195300,0.6741953125,-0.07880161702632904,-0.07880161702632904,-0.08246681094169617
1733230293234183400,0.684183349609375,-0.08491026610136032,-0.06780604273080826,-0.06475171446800232
1733230293244215000,0.694215087890625,-0.08185594528913498,-0.042760565876960754,-0.0403171069920063
1733230293254172200,0.704172119140625,-0.06963863968849182,-0.00855211354792118,-0.009162978269159794
1733230293264203800,0.714203857421875,-0.04764748737215996,0.015882495790719986,0.02382374368607998
1733230293274191600,0.724191650390625,-0.02382374368607998,0.025045474991202354,0.04337143152952194
1733230293284192800,0.73419287109375,-0.009162978269159794,0.02932153269648552,0.04948008432984352
1733230293294180900,0.744180908203125,-0.018325956538319588,0.031154127791523933,0.028099801391363144
1733230293304212200,0.754212158203125,-0.036651913076639175,0.025045474991202354,-0.001832595793530345
1733230293314200600,0.76420068359375,-0.05375614017248154,0.025045474991202354,-0.03176499158143997
1733230293324201500,0.774201416015625,-0.0708603709936142,0.03420845419168472,-0.05253441259264946
1733230293334189000,0.78418896484375,-0.08735372871160507,0.04764748737215996,-0.06719517707824707
1733230293344221000,0.794220947265625,-0.10018189996480942,0.06291911751031876,-0.08002334833145142
1733230293354178300,0.80417822265625,-0.11728613078594208,0.06902777403593063,-0.08857546001672745
1733230293364210000,0.8142099609375,-0.1411098688840866,0.06108652427792549,-0.08979719132184982
1733230293374197800,0.82419775390625,-0.14905111491680145,0.04764748737215996,-0.08246681094169617
1733230293384199000,0.834198974609375,-0.15454891324043274,0.03481931984424591,-0.06291911751031876
1733230293394187000,0.84418701171875,-0.16982053220272064,0.013439035043120384,-0.04153883829712868
1733230293404218600,0.854218505859375,-0.19364428520202637,-0.009773843921720982,-0.015271631069481373
1733230293414175700,0.86417578125,-0.22418753802776337,-0.027488935738801956,0.01038470957428217
1733230293424207600,0.87420751953125,-0.24556782841682434,-0.04642575979232788,0.03420845419168472
1733230293434195200,0.8841953125,-0.2541199326515198,-0.060475658625364304,0.060475658625364304
1733230293444196600,0.894196533203125,-0.24373523890972137,-0.06963863968849182,0.08674286305904388
1733230293454184400,0.904184326171875,-0.22052235901355743,-0.05864306539297104,0.08307767659425735
1733230293464216000,0.914216064453125,-0.18387043476104736,-0.0555887371301651,0.056810468435287476
1733230293474173400,0.92417333984375,-0.14966198801994324,-0.059864792972803116,0.00733038317412138
1733230293484205000,0.934205078125,-0.1270599663257599,-0.05742133408784866,-0.0403171069920063
1733230293494193200,0.944193115234375,-0.1160643994808197,-0.048258353024721146,-0.07880161702632904
1733230293504194000,0.954194091796875,-0.10812314599752426,-0.0403171069920063,-0.10567969083786011
1733230293514182100,0.96418212890625,-0.09896016865968704,-0.039706241339445114,-0.1111774742603302
1733230293524213500,0.974213623046875,-0.10873401165008545,-0.059864792972803116,-0.09407325088977814
1733230293534171100,0.984171142578125,-0.12950342893600464,-0.08368854224681854,-0.07208210229873657
1733230293544202800,0.99420263671875,-0.14844025671482086,-0.10934487730264664,-0.04703662544488907
1733230293554190300,1.0041904296875,-0.16554448008537292,-0.12400564551353455,-0.024434609338641167
1733230293564222200,1.01422216796875,-0.16920967400074005,-0.12522737681865692,-0.010995574295520782
1733230293574179600,1.0241796875,-0.15393804013729095,-0.11056660860776901,-0.006108652334660292
1733230293584211200,1.034211181640625,-0.12461651116609573,-0.07880161702632904,-0.016493361443281174
1733230293594199000,1.044198974609375,-0.10384709388017654,-0.06475171446800232,-0.04153883829712868
1733230293604200200,1.0542001953125,-0.08368854224681854,-0.04948008432984352,-0.07696902006864548
1733230293614188300,1.064188232421875,-0.0659734457731247,-0.036041051149368286,-0.11667526513338089
1733230293624219600,1.0742197265625,-0.05619960278272629,-0.02687807008624077,-0.15027284622192383
1733230293634177000,1.084177001953125,-0.05619960278272629,-0.01466076634824276,-0.17043140530586243
1733230293644208600,1.094208740234375,-0.06169738993048668,-0.003054326167330146,-0.1716531366109848
1733230293654196500,1.104196533203125,-0.07147123664617538,-0.003054326167330146,-0.15943582355976105
1733230293664197400,1.114197265625,-0.09773843735456467,-0.01710422709584236,-0.1215621829032898
1733230293674185700,1.124185791015625,-0.11423180252313614,-0.03176499158143997,-0.09651670604944229
1733230293684217000,1.134217041015625,-0.12278391420841217,-0.039095375686883926,-0.08246681094169617
1733230293694174700,1.1441748046875,-0.12095131725072861,-0.03176499158143997,-0.07819075137376785
1733230293704206000,1.1542060546875,-0.1062905490398407,-0.012217304669320583,-0.08246681094169617
1733230293714194200,1.164194091796875,-0.08796459436416626,0.01160643994808197,-0.09773843735456467
1733230293724195300,1.1741953125,-0.06841690838336945,0.02626720629632473,-0.12461651116609573
1733230293734183200,1.18418310546875,-0.04398229718208313,0.021991148591041565,-0.15943582355976105
1733230293744214500,1.194214599609375,-0.036651913076639175,0.007941247895359993,-0.17043140530586243
1733230293754172200,1.204172119140625,-0.031154127791523933,-0.01710422709584236,-0.16249015927314758
1733230293764203500,1.21420361328125,-0.02687807008624077,-0.0403171069920063,-0.13011430203914642
1733230293774191600,1.224191650390625,-0.021380282938480377,-0.05253441259264946,-0.08796459436416626
1733230293784192500,1.234192626953125,-0.013439035043120384,-0.05803219974040985,-0.04703662544488907
1733230293794180900,1.244180908203125,-0.00733038317412138,-0.06536258012056351,-0.01710422709584236
1733230293804212200,1.254212158203125,-0.001832595793530345,-0.06902777403593063,0.00366519158706069
1733230293814200300,1.264200439453125,0.0024434609804302454,-0.06169738993048668,0.004886921960860491
1733230293824201200,1.274201171875,0.01038470957428217,-0.056810468435287476,-0.0012217304902151227
1733230293834189000,1.28418896484375,0.021380282938480377,-0.04886921867728233,-0.018325956538319588
1733230293844221000,1.294220947265625,0.021991148591041565,-0.039706241339445114,-0.03726277872920036
1733230293854178300,1.30417822265625,0.01466076634824276,-0.03848451003432274,-0.060475658625364304
1733230293864209700,1.314209716796875,0.004886921960860491,-0.036041051149368286,-0.08246681094169617
1733230293874197800,1.32419775390625,-0.005497787147760391,-0.02871066704392433,-0.09773843735456467
1733230293884198700,1.33419873046875,-0.00733038317412138,0.01466076634824276,-0.10690141469240189
1733230293894186800,1.344186767578125,0.021991148591041565,0.2669481039047241,-0.12400564551353455
1733230293904218400,1.35421826171875,-0.013439035043120384,0.32559117674827576,-0.11545353382825851
1733230293914176000,1.364176025390625,-0.05803219974040985,0.24190263450145721,-0.08246681094169617
1733230293924207400,1.374207275390625,-0.06719517707824707,0.16737708449363708,-0.02382374368607998
1733230293934195500,1.384195556640625,-0.042760565876960754,0.07330382615327835,0.04459316283464432
1733230293944196600,1.394196533203125,-0.0024434609804302454,-0.025045474991202354,0.11850785464048386
1733230293954184400,1.404184326171875,0.06352998316287994,-0.10934487730264664,0.18570303916931152
1733230293964215800,1.4142158203125,0.10934487730264664,-0.12095131725072861,0.17898350954055786
1733230293974173400,1.42417333984375,0.13377949595451355,-0.10384709388017654,0.14233160018920898
1733230293984205000,1.434205078125,0.15027284622192383,0.08002334833145142,0.17959438264369965
1733230293994193200,1.444193115234375,0.13927727937698364,0.06536258012056351,0.22052235901355743
1733230294004194000,1.454194091796875,0.11972958594560623,0.06108652427792549,0.2620611786842346
1733230294014182100,1.46418212890625,0.12339477986097336,0.07147123664617538,0.32009339332580566
1733230294024213500,1.474213623046875,0.1319468915462494,0.0507018156349659,0.40744712948799133
1733230294034171100,1.484171142578125,0.12034045159816742,0.014049900695681572,0.43615779280662537
1733230294044202000,1.494201904296875,0.1014036312699318,0.0006108652451075613,0.4288274049758911
1733230294054190600,1.504190673828125,0.08368854224681854,0.01466076634824276,0.37690386176109314
1733230294064221400,1.514221435546875,0.06169738993048668,0.025656340643763542,0.2822197377681732
1733230294074179600,1.5241796875,0.03298672288656235,0.018936822190880775,0.15454891324043274
1733230294084210700,1.534210693359375,-0.0012217304902151227,-0.005497787147760391,0.01160643994808197
1733230294094199300,1.54419921875,-0.02321287989616394,-0.03298672288656235,-0.13805554807186127
1733230294104199400,1.554199462890625,-0.025045474991202354,-0.04703662544488907,-0.342695415019989
1733230294114186200,1.564186279296875,-0.02076941914856434,-0.036041051149368286,-0.4605923891067505
1733230294124218400,1.57421826171875,-0.00855211354792118,0.007941247895359993,-0.5455026626586914
1733230294134176300,1.58417626953125,-0.015271631069481373,0.039706241339445114,-0.5729916095733643
1733230294144207600,1.59420751953125,-0.02687807008624077,-0.007941247895359993,-0.5448917746543884
1733230294154195700,1.60419580078125,-0.016493361443281174,-0.09468411654233932,-0.48685958981513977
1733230294164196600,1.614196533203125,-0.0006108652451075613,-0.17837265133857727,-0.41111230850219727
1733230294174184400,1.624184326171875,0.004886921960860491,-0.28588494658470154,-0.26511552929878235
1733230294184216000,1.634216064453125,0.0024434609804302454,-0.3219259977340698,-0.17470745742321014
1733230294194173700,1.644173583984375,0.001832595793530345,-0.3280346393585205,-0.09651670604944229
1733230294204205300,1.654205322265625,0.005497787147760391,-0.30970868468284607,-0.02015855349600315
1733230294214194200,1.664194091796875,0.016493361443281174,-0.26511552929878235,0.05375614017248154
1733230294224195000,1.674195068359375,0.03237585723400116,-0.2021963894367218,0.12767083942890167
1733230294234183200,1.68418310546875,0.056810468435287476,-0.13377949595451355,0.19364428520202637
1733230294244214800,1.69421484375,0.08002334833145142,-0.05742133408784866,0.27550023794174194
1733230294254172200,1.704172119140625,0.08674286305904388,-0.012217304669320583,0.2773328125476837
1733230294264203000,1.714203125,0.10384709388017654,0.00366519158706069,0.22357667982578278
1733230294274191600,1.724191650390625,0.09285151958465576,-0.00733038317412138,0.15393804013729095
1733230294284192300,1.734192138671875,0.06536258012056351,-0.021380282938480377,0.08491026610136032
1733230294294180900,1.744180908203125,0.045204028487205505,-0.02015855349600315,0.02321287989616394
1733230294304211700,1.754211669921875,0.033597588539123535,-0.025045474991202354,-0.024434609338641167
1733230294314200300,1.764200439453125,0.02687807008624077,-0.027488935738801956,-0.05497787147760391
1733230294324200400,1.774200439453125,0.02321287989616394,0.005497787147760391,-0.08124507963657379
1733230294334189000,1.78418896484375,0.01710422709584236,0.03787364438176155,-0.08491026610136032
1733230294344220700,1.794220703125,0.001832595793530345,0.0659734457731247,-0.08429940044879913
1733230294354178300,1.80417822265625,-0.012217304669320583,0.08246681094169617,-0.07513642311096191
1733230294364209700,1.814209716796875,-0.01710422709584236,0.09957103431224823,-0.0659734457731247
1733230294374198000,1.824197998046875,-0.02076941914856434,0.10934487730264664,-0.059864792972803116
1733230294384198100,1.8341982421875,-0.02626720629632473,0.11362093687057495,-0.05619960278272629
1733230294394186800,1.844186767578125,-0.06841690838336945,0.11789698898792267,-0.04092797264456749
1733230294404217600,1.854217529296875,-0.07941248267889023,0.10384709388017654,-0.039706241339445114
1733230294414175700,1.86417578125,-0.08552113175392151,0.07208210229873657,-0.045204028487205505
1733230294424206600,1.87420654296875,-0.08979719132184982,0.015882495790719986,-0.051312681287527084
1733230294434195200,1.8841953125,-0.09468411654233932,-0.027488935738801956,-0.0507018156349659
1733230294444195800,1.89419580078125,-0.0959058403968811,-0.054367005825042725,-0.036041051149368286
1733230294454184400,1.904184326171875,-0.08796459436416626,-0.07147123664617538,-0.015271631069481373
1733230294464215600,1.914215576171875,-0.06780604273080826,-0.09224065393209457,0.004886921960860491
1733230294474173400,1.92417333984375,-0.05375614017248154,-0.09834930300712585,0.02321287989616394
1733230294484204300,1.934204345703125,-0.03420845419168472,-0.09285151958465576,0.04764748737215996
1733230294494193000,1.94419287109375,-0.01466076634824276,-0.08674286305904388,0.07208210229873657
1733230294504193500,1.954193603515625,0.006108652334660292,-0.08674286305904388,0.10201449692249298
1733230294514182000,1.964181884765625,0.025045474991202354,-0.08552113175392151,0.12767083942890167
1733230294524213000,1.974212890625,0.05803219974040985,-0.04948008432984352,0.13500121235847473
1733230294534171100,1.984171142578125,0.08491026610136032,-0.03237585723400116,0.12522737681865692
1733230294544201700,1.99420166015625,0.1111774742603302,-0.05497787147760391,0.08857546001672745
1733230294554190600,2.004190673828125,0.12034045159816742,-0.08307767659425735,0.06963863968849182
1733230294564221700,2.0142216796875,0.12095131725072861,-0.11423180252313614,0.0555887371301651
1733230294574179600,2.0241796875,0.11178833991289139,-0.1215621829032898,0.05192354694008827
1733230294584210400,2.03421044921875,0.10201449692249298,-0.11911872029304504,0.06841690838336945
1733230294594199000,2.044198974609375,0.09529497474431992,-0.10018189996480942,0.08918632566928864
1733230294604199700,2.05419970703125,0.09712757170200348,-0.06780604273080826,0.09407325088977814
1733230294614188000,2.06418798828125,0.09468411654233932,-0.015271631069481373,0.06169738993048668
1733230294624219400,2.074219482421875,0.0806342139840126,0.022602014243602753,-0.0012217304902151227
1733230294634205400,2.084205322265625,0.0507018156349659,0.03787364438176155,-0.08246681094169617
1733230294644207900,2.094207763671875,0.006108652334660292,0.031154127791523933,-0.1722639948129654
1733230294654196500,2.104196533203125,-0.03787364438176155,0.0024434609804302454,-0.2742784917354584
1733230294664197400,2.114197265625,-0.08307767659425735,-0.02932153269648552,-0.3787364661693573
1733230294674185700,2.124185791015625,-0.13255776464939117,-0.0659734457731247,-0.46853363513946533
1733230294684217000,2.134217041015625,-0.2021963894367218,-0.14905111491680145,-0.578489363193512
1733230294694174700,2.1441748046875,-0.2681698501110077,-0.2168571650981903,-0.6407976150512695
1733230294704206000,2.1542060546875,-0.36590829491615295,-0.27000242471694946,-0.6798930168151855
1733230294714194200,2.164194091796875,-0.4508185386657715,-0.21868975460529327,-0.6762278079986572
1733230294724194300,2.1741943359375,-0.513126790523529,-0.15454891324043274,-0.6096435189247131
1733230294734183400,2.184183349609375,-0.5363397002220154,-0.06230825558304787,-0.4544837474822998
1733230294744214000,2.194214111328125,-0.5229006409645081,0.08185594528913498,-0.19547687470912933
1733230294754172200,2.204172119140625,-0.523511528968811,0.21991148591041565,0.1007927656173706
1733230294764204000,2.2142041015625,-0.4508185386657715,0.26145032048225403,0.5161811113357544
1733230294774191600,2.224191650390625,-0.36102136969566345,0.13805554807186127,0.7079927921295166
1733230294784192800,2.23419287109375,-0.3084869384765625,0.05803219974040985,0.8607091307640076
1733230294794180900,2.244180908203125,-0.28038713335990906,0.05864306539297104,0.9443976879119873
1733230294804212200,2.254212158203125,-0.25106561183929443,0.024434609338641167,0.9242390990257263
1733230294814200600,2.26420068359375,-0.25961771607398987,-0.045204028487205505,0.8051204085350037
1733230294824200200,2.2742001953125,-0.2981022298336029,-0.13316862285137177,0.5803219676017761
1733230294834189000,2.28418896484375,-0.40194934606552124,-0.24923302233219147,0.1411098688840866
1733230294844220000,2.294219970703125,-0.47280970215797424,-0.2987131178379059,-0.1459967941045761
1733230294854178300,2.30417822265625,-0.5283984541893005,-0.2785545587539673,-0.3701843321323395
1733230294864210000,2.3142099609375,-0.5503895878791809,-0.21380282938480377,-0.5125159621238708
1733230294874197800,2.32419775390625,-0.5412266254425049,-0.12767083942890167,-0.5754350423812866
1733230294884198700,2.33419873046875,-0.5119050741195679,-0.10873401165008545,-0.5632177591323853
1733230294894186800,2.344186767578125,-0.4489859640598297,0.019547687843441963,-0.5247332453727722
1733230294904218400,2.35421826171875,-0.3500257730484009,0.23335053026676178,-0.475253164768219
1733230294914176000,2.364176025390625,-0.27488934993743896,0.34086281061172485,-0.46181413531303406
1733230294924207400,2.374207275390625,-0.20402899384498596,0.3543018400669098,-0.44165557622909546
1733230294934195500,2.384195556640625,-0.15760323405265808,0.2889392673969269,-0.384845107793808
1733230294944196600,2.394196533203125,-0.13439035415649414,0.18448130786418915,-0.29077184200286865
1733230294954184400,2.404184326171875,-0.11789698898792267,0.08124507963657379,-0.1869247704744339
1733230294964216000,2.414216064453125,-0.09712757170200348,0.013439035043120384,-0.07941248267889023
1733230294974173400,2.42417333984375,-0.0757472887635231,-0.02321287989616394,0.02626720629632473
1733230294984205000,2.434205078125,-0.06352998316287994,-0.06719517707824707,0.1319468915462494
1733230294994193200,2.444193115234375,-0.07513642311096191,-0.08491026610136032,0.16493362188339233
1733230295004194000,2.454194091796875,-0.09468411654233932,-0.08368854224681854,0.17348572611808777
1733230295014182100,2.46418212890625,-0.10751228034496307,-0.09468411654233932,0.2021963894367218
1733230295024213500,2.474213623046875,-0.12217304855585098,-0.09834930300712585,0.2583959996700287
1733230295034171100,2.484171142578125,-0.11362093687057495,-0.08552113175392151,0.31154128909111023
1733230295044202800,2.49420263671875,-0.0861319974064827,-0.07513642311096191,0.3695734739303589
1733230295054190600,2.504190673828125,-0.06414084881544113,-0.060475658625364304,0.44654250144958496
1733230295064221400,2.514221435546875,-0.05803219974040985,-0.05253441259264946,0.4538728892803192
1733230295074179600,2.5241796875,-0.05314527451992035,-0.048258353024721146,0.44226643443107605
1733230295084210700,2.534210693359375,-0.05192354694008827,-0.05742133408784866,0.4129449129104614
1733230295094199300,2.54419921875,-0.05619960278272629,-0.05497787147760391,0.35552358627319336
1733230295104199700,2.55419970703125,-0.06352998316287994,-0.030543262138962746,0.2736676335334778
1733230295114186200,2.564186279296875,-0.0806342139840126,-0.004886921960860491,0.18387043476104736
1733230295124217900,2.5742177734375,-0.11789698898792267,0.04581489413976669,0.059864792972803116
1733230295134176300,2.58417626953125,-0.13988813757896423,0.056810468435287476,0.0012217304902151227
1733230295144207600,2.59420751953125,-0.1472185254096985,0.05192354694008827,-0.025656340643763542
1733230295154195500,2.604195556640625,-0.14049901068210602,0.04214970022439957,-0.016493361443281174
1733230295164196900,2.61419677734375,-0.12339477986097336,0.04886921867728233,0.025045474991202354
1733230295174184700,2.624184814453125,-0.10690141469240189,0.07269296050071716,0.08491026610136032
1733230295184216300,2.63421630859375,-0.09346238523721695,0.10262536257505417,0.14477506279945374
1733230295194173700,2.644173583984375,-0.0861319974064827,0.1160643994808197,0.18570303916931152
1733230295204205000,2.654205078125,-0.09651670604944229,0.08552113175392151,0.18814650177955627
1733230295214194200,2.664194091796875,-0.12950342893600464,0.06108652427792549,0.14782938361167908
1733230295224195300,2.6741953125,-0.18325957655906677,0.0354301854968071,0.08185594528913498
1733230295234183200,2.68418310546875,-0.24678955972194672,-0.01466076634824276,0.006108652334660292
1733230295244215000,2.694215087890625,-0.29138273000717163,-0.060475658625364304,-0.05192354694008827
1733230295254172200,2.704172119140625,-0.29077184200286865,-0.08246681094169617,-0.07880161702632904
1733230295264204000,2.7142041015625,-0.2431243658065796,-0.07941248267889023,-0.07513642311096191
1733230295274191600,2.724191650390625,-0.11178833991289139,-0.03787364438176155,-0.030543262138962746
1733230295284192800,2.73419287109375,0.01160643994808197,0.01710422709584236,0.015271631069481373
1733230295294180900,2.744180908203125,0.13988813757896423,0.051312681287527084,0.0555887371301651
1733230295304211200,2.754211181640625,0.2535090744495392,0.03176499158143997,0.0861319974064827
1733230295314200300,2.764200439453125,0.34697145223617554,-0.039095375686883926,0.10018189996480942
1733230295324200200,2.7742001953125,0.41722095012664795,-0.1270599663257599,0.08918632566928864
1733230295334189000,2.78418896484375,0.46303585171699524,-0.18509216606616974,0.05253441259264946
1733230295344221200,2.79422119140625,0.47280970215797424,-0.19058994948863983,-0.06780604273080826
1733230295354178300,2.80417822265625,0.4300491213798523,-0.18020524084568024,-0.1875356286764145
1733230295364210000,2.8142099609375,0.3378084897994995,-0.21807889640331268,-0.34147366881370544
1733230295374197800,2.82419775390625,0.2015855312347412,-0.30604347586631775,-0.4905247986316681
1733230295384198100,2.8341982421875,0.048258353024721146,-0.46792277693748474,-0.5742133259773254
1733230295394186800,2.844186767578125,-0.07024950534105301,-0.607200026512146,-0.5027421116828918
1733230295404217900,2.8542177734375,-0.0806342139840126,-0.4911356568336487,-0.22357667982578278
1733230295414175700,2.86417578125,0.042760565876960754,-0.24373523890972137,0.23029619455337524
1733230295424207400,2.874207275390625,0.32559117674827576,0.15760323405265808,1.0586295127868652
1733230295434195500,2.884195556640625,0.49296826124191284,0.3530801236629486,1.510058879852295
1733230295444196600,2.894196533203125,0.6023131608963013,0.4502076804637909,1.7763961553573608
1733230295454184400,2.904184326171875,0.6524040699005127,0.4331034719944,1.8295414447784424
1733230295464215300,2.91421533203125,0.6426302194595337,0.33536502718925476,1.680490255355835
1733230295474173400,2.92417333984375,0.5638286471366882,0.13439035415649414,1.348179578781128
1733230295484205800,2.934205810546875,0.4147774875164032,-0.10873401165008545,0.8625417351722717
1733230295494193000,2.94419287109375,0.1459967941045761,-0.3995058834552765,0.02076941914856434
1733230295504192800,2.95419287109375,0.006108652334660292,-0.513126790523529,-0.46547931432724
1733230295514182100,2.96418212890625,-0.08368854224681854,-0.5369505286216736,-0.7916813492774963
1733230295524213500,2.974213623046875,-0.15943582355976105,-0.42638394236564636,-0.9260717034339905
1733230295534171100,2.984171142578125,-0.17409659922122955,-0.30115658044815063,-0.9260717034339905
1733230295544202200,2.9942021484375,-0.1270599663257599,-0.16920967400074005,-0.8228355050086975
1733230295554190300,3.0041904296875,-0.05253441259264946,-0.04764748737215996,-0.646295428276062
1733230295564222000,3.014221923828125,0.06291911751031876,0.12217304855585098,-0.3280346393585205
1733230295574179300,3.024179443359375,0.12522737681865692,0.2015855312347412,-0.1508837193250656
1733230295584211000,3.0342109375,0.16737708449363708,0.2272418737411499,-0.04337143152952194
1733230295594199000,3.044198974609375,0.19120082259178162,0.19792033731937408,-0.001832595793530345
1733230295604200000,3.054199951171875,0.17531833052635193,0.13011430203914642,-0.009773843921720982
1733230295614188300,3.064188232421875,0.14355333149433136,0.04214970022439957,-0.0507018156349659
1733230295624219600,3.0742197265625,0.1111774742603302,-0.039095375686883926,-0.08979719132184982
1733230295634177000,3.084177001953125,0.08185594528913498,-0.10018189996480942,-0.09651670604944229
1733230295644208600,3.094208740234375,0.05253441259264946,-0.1411098688840866,-0.04092797264456749
1733230295654196500,3.104196533203125,0.04337143152952194,-0.1411098688840866,0.014049900695681572
1733230295664196900,3.11419677734375,0.03420845419168472,-0.13561208546161652,0.06352998316287994
1733230295674185700,3.124185791015625,0.019547687843441963,-0.12889257073402405,0.09468411654233932
1733230295684216300,3.13421630859375,0.0006108652451075613,-0.12034045159816742,0.10018189996480942
1733230295694174700,3.1441748046875,-0.02321287989616394,-0.12278391420841217,0.0861319974064827
1733230295704205800,3.154205810546875,-0.048258353024721146,-0.13011430203914642,0.04948008432984352
1733230295714194200,3.164194091796875,-0.08918632566928864,-0.11056660860776901,-0.01771509274840355
1733230295724194300,3.1741943359375,-0.11484266817569733,-0.08185594528913498,-0.059864792972803116
1733230295734183200,3.18418310546875,-0.1313360333442688,-0.05253441259264946,-0.08674286305904388
1733230295744215000,3.194215087890625,-0.14416420459747314,-0.024434609338641167,-0.09346238523721695
1733230295754172200,3.204172119140625,-0.15027284622192383,0.004886921960860491,-0.07696902006864548
1733230295764203800,3.214203857421875,-0.1514945775270462,0.029932396486401558,-0.04153883829712868
1733230295774191600,3.224191650390625,-0.14966198801994324,0.045204028487205505,0.006108652334660292
1733230295784192800,3.23419287109375,-0.13805554807186127,0.04214970022439957,0.07269296050071716
1733230295794180900,3.244180908203125,-0.11850785464048386,0.028099801391363144,0.10995574295520782
1733230295804212500,3.25421240234375,-0.09407325088977814,-0.016493361443281174,0.13011430203914642
1733230295814200600,3.26420068359375,-0.07880161702632904,-0.07696902006864548,0.12217304855585098
1733230295824200400,3.274200439453125,-0.07635815441608429,-0.15882496535778046,0.08002334833145142
1733230295834189300,3.284189208984375,-0.07941248267889023,-0.26450464129447937,0.01466076634824276
1733230295844221000,3.294220947265625,-0.0861319974064827,-0.3597996234893799,-0.048258353024721146
1733230295854178300,3.30417822265625,-0.08918632566928864,-0.42149701714515686,-0.08491026610136032
1733230295864210000,3.3142099609375,-0.08002334833145142,-0.455705463886261,-0.09468411654233932
1733230295874198000,3.324197998046875,-0.07147123664617538,-0.45753806829452515,-0.07391469180583954
1733230295884198700,3.33419873046875,-0.06536258012056351,-0.4434881806373596,-0.025656340643763542
1733230295894187000,3.34418701171875,-0.039706241339445114,-0.44226643443107605,0.042760565876960754
1733230295904218400,3.35421826171875,-0.028099801391363144,-0.46853363513946533,0.11423180252313614
1733230295914176000,3.364176025390625,-0.02871066704392433,-0.49296826124191284,0.16493362188339233
1733230295924207600,3.37420751953125,-0.02382374368607998,-0.513737678527832,0.1563815027475357
1733230295934195500,3.384195556640625,-0.06963863968849182,-0.5778785347938538,0.025045474991202354
1733230295944195000,3.394195068359375,-0.12889257073402405,-0.6352998614311218,-0.13805554807186127
1733230295954184400,3.404184326171875,-0.23945917189121246,-0.6609562039375305,-0.3585779070854187
1733230295964214800,3.41421484375,-0.3830125033855438,-0.6359107494354248,-0.6053674817085266
1733230295974173400,3.42417333984375,-0.5051855444908142,-0.5387831330299377,-0.778853178024292
1733230295984204300,3.434204345703125,-0.5681046843528748,-0.33597588539123535,-0.7751879692077637
1733230295994193200,3.444193115234375,-0.5455026626586914,-0.06169738993048668,-0.5442809462547302
1733230296004194000,3.454194091796875,-0.3995058834552765,0.2938261926174164,0.15454891324043274
1733230296014182100,3.46418212890625,-0.303600013256073,0.423329621553421,0.7000515460968018
1733230296024213500,3.474213623046875,-0.23579397797584534,0.47280970215797424,1.150259256362915
1733230296034171100,3.484171142578125,-0.18081611394882202,0.5002986192703247,1.4117095470428467
1733230296044202800,3.49420263671875,-0.15454891324043274,0.5125159621238708,1.4703526496887207
1733230296054190800,3.50419091796875,-0.1661553531885147,0.49724429845809937,1.3377948999404907
1733230296064220700,3.514220703125,-0.21441370248794556,0.4434881806373596,1.0293079614639282
1733230296074179600,3.5241796875,-0.3017674386501312,0.39767327904701233,0.6035348773002625
1733230296084211200,3.534211181640625,-0.43799036741256714,0.34697145223617554,-0.07513642311096191
1733230296094199300,3.54419921875,-0.48319441080093384,0.304210901260376,-0.42271876335144043
1733230296104200200,3.5542001953125,-0.484416127204895,0.2773328125476837,-0.6151412725448608
1733230296114186200,3.564186279296875,-0.45265114307403564,0.2779437005519867,-0.6621779203414917
1733230296124218400,3.57421826171875,-0.40194934606552124,0.2742784917354584,-0.6114761233329773
1733230296134176000,3.584176025390625,-0.33536502718925476,0.26633724570274353,-0.5070181488990784
1733230296144207600,3.59420751953125,-0.27061331272125244,0.25595253705978394,-0.3878994286060333
1733230296154195500,3.604195556640625,-0.17959438264369965,0.22052235901355743,-0.24007004499435425
1733230296164196600,3.614196533203125,-0.13377949595451355,0.18020524084568024,-0.18509216606616974
1733230296174184700,3.624184814453125,-0.09651670604944229,0.13011430203914642,-0.1661553531885147
1733230296184216000,3.634216064453125,-0.07208210229873657,0.08002334833145142,-0.17043140530586243
1733230296194173700,3.644173583984375,-0.060475658625364304,0.02871066704392433,-0.1918116807937622
1733230296204205000,3.654205078125,-0.06108652427792549,-0.015882495790719986,-0.22479841113090515
1733230296214194200,3.664194091796875,-0.06169738993048668,-0.04886921867728233,-0.2687807083129883
1733230296224195300,3.6741953125,-0.05742133408784866,-0.08368854224681854,-0.3280346393585205
1733230296234183400,3.684183349609375,-0.0507018156349659,-0.09712757170200348,-0.34758231043815613
1733230296244214800,3.69421484375,-0.04948008432984352,-0.10323622822761536,-0.34574973583221436
1733230296254172200,3.704172119140625,-0.05864306539297104,-0.10934487730264664,-0.3237585723400116
1733230296264203500,3.71420361328125,-0.06719517707824707,-0.10567969083786011,-0.29016098380088806
1733230296274191600,3.724191650390625,-0.07941248267889023,-0.10995574295520782,-0.2431243658065796
1733230296284192800,3.73419287109375,-0.0861319974064827,-0.10262536257505417,-0.18020524084568024
1733230296294180900,3.744180908203125,-0.08368854224681854,-0.08918632566928864,-0.10873401165008545
1733230296304212200,3.754212158203125,-0.07880161702632904,-0.08307767659425735,-0.015882495790719986
1733230296314200300,3.764200439453125,-0.07757988572120667,-0.08857546001672745,0.030543262138962746
1733230296324201200,3.774201171875,-0.0806342139840126,-0.09651670604944229,0.06841690838336945
1733230296334189300,3.784189208984375,-0.08979719132184982,-0.09651670604944229,0.1014036312699318
1733230296344221000,3.794220947265625,-0.09773843735456467,-0.08857546001672745,0.1270599663257599
1733230296354178300,3.80417822265625,-0.0959058403968811,-0.07513642311096191,0.1514945775270462
1733230296364209000,3.814208984375,-0.09468411654233932,-0.04764748737215996,0.1820378452539444
1733230296374197800,3.82419775390625,-0.08674286305904388,-0.006719517521560192,0.21624629199504852
1733230296384198400,3.834198486328125,-0.08674286305904388,0.021991148591041565,0.2125810980796814
1733230296394187000,3.84418701171875,-0.0959058403968811,0.04398229718208313,0.18325957655906677
1733230296404218000,3.854218017578125,-0.12095131725072861,0.05619960278272629,0.13316862285137177
1733230296414175700,3.86417578125,-0.15821409225463867,0.04886921867728233,0.06841690838336945
1733230296424206600,3.87420654296875,-0.20463985204696655,0.03176499158143997,0.00366519158706069
1733230296434195500,3.884195556640625,-0.2590068578720093,-0.00366519158706069,-0.06719517707824707
1733230296444196600,3.894196533203125,-0.3549126982688904,-0.06902777403593063,-0.16432274878025055
1733230296454184200,3.90418408203125,-0.4184426963329315,-0.06414084881544113,-0.22602014243602753
1733230296464216000,3.914216064453125,-0.45753806829452515,-0.04703662544488907,-0.25961771607398987
1733230296474173400,3.92417333984375,-0.45326200127601624,-0.048258353024721146,-0.24617868661880493
1733230296484205000,3.934205078125,-0.3842342495918274,-0.04092797264456749,-0.17104226350784302
1733230296494193200,3.944193115234375,-0.24190263450145721,-0.0757472887635231,-0.05314527451992035
1733230296504194000,3.954194091796875,-0.11178833991289139,-0.09040805697441101,0.0910189226269722
1733230296514182100,3.96418212890625,0.0012217304902151227,-0.0507018156349659,0.20525072515010834
1733230296524212000,3.9742119140625,0.13439035415649414,0.04337143152952194,0.25106561183929443
1733230296534171000,3.9841708984375,0.1814269721508026,0.10995574295520782,0.21441370248794556
1733230296544201200,3.994201171875,0.19425514340400696,0.14416420459747314,0.1508837193250656
1733230296554190600,4.004190673828125,0.18509216606616974,0.11789698898792267,0.07269296050071716
1733230296564222200,4.01422216796875,0.1514945775270462,0.014049900695681572,-0.01038470957428217
1733230296574179600,4.0241796875,0.07208210229873657,-0.11789698898792267,-0.08796459436416626
1733230296584211000,4.0342109375,-0.015271631069481373,-0.17592918872833252,-0.1215621829032898
1733230296594199000,4.044198974609375,-0.05314527451992035,-0.12095131725072861,0.033597588539123535
1733230296604200200,4.0542001953125,-0.004886921960860491,-0.04214970022439957,0.28955012559890747
1733230296614188300,4.064188232421875,0.09468411654233932,0.06414084881544113,0.5839871764183044
1733230296624219600,4.0742197265625,0.2070833146572113,0.152105450630188,0.8429940342903137
1733230296634205700,4.084205810546875,0.28038713335990906,0.26083946228027344,1.0390818119049072
1733230296644208600,4.094208740234375,0.31093040108680725,0.32070425152778625,1.1924089193344116
1733230296654196500,4.104196533203125,0.2742784917354584,0.4697553813457489,1.1826350688934326
1733230296664197600,4.11419775390625,0.20341812074184418,0.6316346526145935,0.8142833709716797
1733230296674185700,4.124185791015625,0.12828169763088226,0.49357911944389343,0.3878994286060333
1733230296684217000,4.134217041015625,0.0354301854968071,0.1514945775270462,-0.09834930300712585
1733230296694174700,4.1441748046875,-0.05619960278272629,-0.19547687470912933,-0.5381723046302795
1733230296704206000,4.1542060546875,-0.12095131725072861,-0.36163222789764404,-0.8448266386985779
1733230296714194200,4.164194091796875,-0.13255776464939117,-0.41172316670417786,-0.9834930300712585
1733230296724195000,4.174195068359375,-0.08552113175392151,-0.4599815309047699,-0.9749409556388855
1733230296734183200,4.18418310546875,-0.00855211354792118,-0.5057964324951172,-0.8637634515762329
1733230296744214500,4.194214599609375,0.09773843735456467,-0.45265114307403564,-0.6023131608963013
1733230296754172200,4.204172119140625,0.1459967941045761,-0.35124751925468445,-0.4178318381309509
1733230296764203800,4.214203857421875,0.17898350954055786,-0.2535090744495392,-0.26145032048225403
1733230296774191900,4.22419189453125,0.22296582162380219,-0.1820378452539444,-0.1459967941045761
1733230296784192800,4.23419287109375,0.2724458873271942,-0.17531833052635193,-0.07513642311096191
1733230296794180900,4.244180908203125,0.30115658044815063,-0.19975294172763824,-0.033597588539123535
1733230296804212500,4.25421240234375,0.3029891550540924,-0.21502456068992615,-0.0024434609804302454
1733230296814200300,4.264200439453125,0.2767219543457031,-0.1918116807937622,0.02626720629632473
1733230296824201000,4.274200927734375,0.25473082065582275,-0.17959438264369965,0.031154127791523933
1733230296834189000,4.28418896484375,0.22357667982578278,-0.17837265133857727,0.031154127791523933
1733230296844220200,4.29422021484375,0.18814650177955627,-0.18325957655906677,0.02382374368607998
1733230296854178300,4.30417822265625,0.14844025671482086,-0.18936823308467865,0.015882495790719986
1733230296864209200,4.314209228515625,0.11484266817569733,-0.19364428520202637,0.001832595793530345
1733230296874197800,4.32419775390625,0.07452555745840073,-0.20097467303276062,-0.025656340643763542
1733230296884198400,4.334198486328125,0.006108652334660292,-0.19608774781227112,-0.08185594528913498
1733230296894186800,4.344186767578125,-0.03787364438176155,-0.18325957655906677,-0.10934487730264664
1733230296904217600,4.354217529296875,-0.07330382615327835,-0.15943582355976105,-0.1160643994808197
1733230296914175700,4.36417578125,-0.0910189226269722,-0.1264491081237793,-0.10323622822761536
1733230296924207400,4.374207275390625,-0.10201449692249298,-0.09040805697441101,-0.08124507963657379
1733230296934195700,4.38419580078125,-0.11728613078594208,-0.059864792972803116,-0.06108652427792549
1733230296944196600,4.394196533203125,-0.1258382350206375,-0.01710422709584236,-0.03848451003432274
1733230296954184400,4.404184326171875,-0.13439035415649414,0.02932153269648552,-0.010995574295520782
1733230296964216000,4.414216064453125,-0.12278391420841217,0.09957103431224823,0.06902777403593063
1733230296974173400,4.42417333984375,-0.09468411654233932,0.1258382350206375,0.13927727937698364
1733230296984204800,4.434204833984375,-0.05375614017248154,0.12278391420841217,0.21319197118282318
1733230296994193200,4.444193115234375,-0.007941247895359993,0.08124507963657379,0.2816088795661926
1733230297004194000,4.454194091796875,0.06475171446800232,0.0024434609804302454,0.3335324227809906
1733230297014182100,4.46418212890625,0.13500121235847473,-0.14538592100143433,0.342695415019989
1733230297024213500,4.474213623046875,0.15454891324043274,-0.23396138846874237,0.3323107063770294
1733230297034171100,4.484171142578125,0.12034045159816742,-0.2638937830924988,0.26939156651496887
1733230297044202800,4.49420263671875,0.07147123664617538,-0.22540926933288574,0.20463985204696655
1733230297054190600,4.504190673828125,0.02871066704392433,-0.16859880089759827,0.11972958594560623
1733230297064222200,4.51422216796875,0.006719517521560192,-0.1569923609495163,0.0012217304902151227
1733230297074179600,4.5241796875,-0.02321287989616394,-0.21991148591041565,-0.13805554807186127
1733230297084211200,4.534211181640625,-0.04764748737215996,-0.303600013256073,-0.2370157092809677
1733230297094199300,4.54419921875,-0.001832595793530345,-0.3854559659957886,-0.2779437005519867
1733230297104200200,4.5542001953125,0.13561208546161652,-0.5180137157440186,-0.26572638750076294
1733230297114186200,4.564186279296875,0.19792033731937408,-0.6139195561408997,-0.16554448008537292
1733230297124217300,4.57421728515625,0.18631389737129211,-0.7330383062362671,-0.09407325088977814
1733230297134176300,4.58417626953125,0.06414084881544113,-0.7904596328735352,-0.05009094998240471
1733230297144206300,4.594206298828125,-0.11850785464048386,-0.6633996367454529,0.001832595793530345
1733230297154195700,4.60419580078125,-0.22479841113090515,-0.39767327904701233,0.07208210229873657
1733230297164196600,4.614196533203125,-0.242513507604599,-0.12034045159816742,0.20586158335208893
1733230297174184700,4.624184814453125,-0.2272418737411499,0.14782938361167908,0.40622538328170776
1733230297184216000,4.634216064453125,-0.23457226157188416,0.4282165467739105,0.7250970602035522
1733230297194173700,4.644173583984375,-0.24373523890972137,0.5387831330299377,0.9028588533401489
1733230297204205000,4.654205078125,-0.2382374405860901,0.5650503635406494,1.0207557678222656
1733230297214194200,4.664194091796875,-0.242513507604599,0.4795292317867279,1.017701506614685
1733230297224194000,4.674194091796875,-0.26145032048225403,0.3396410644054413,0.8509352803230286
1733230297234183200,4.68418310546875,-0.31459560990333557,0.1618792861700058,0.5198463201522827
1733230297244213500,4.694213623046875,-0.4050036668777466,-0.010995574295520782,0.07269296050071716
1733230297254172200,4.704172119140625,-0.5491678714752197,-0.11850785464048386,-0.5876523852348328
1733230297264203500,4.71420361328125,-0.5949827432632446,-0.04642575979232788,-0.8600982427597046
1733230297274191600,4.724191650390625,-0.5876523852348328,0.05742133408784866,-0.9828822016716003
1733230297284192500,4.734192626953125,-0.5363397002220154,0.15577064454555511,-0.9877691268920898
1733230297294180900,4.744180908203125,-0.4648684561252594,0.27550023794174194,-0.8930850028991699
1733230297304212200,4.754212158203125,-0.384845107793808,0.39156460762023926,-0.7287622094154358
1733230297314200300,4.764200439453125,-0.31093040108680725,0.4544837474822998,-0.5351179838180542
1733230297324201200,4.774201171875,-0.21868975460529327,0.4098905920982361,-0.27488934993743896
1733230297334189300,4.784189208984375,-0.17043140530586243,0.30604347586631775,-0.15882496535778046
1733230297344220700,4.794220703125,-0.13805554807186127,0.1918116807937622,-0.08246681094169617
1733230297354178300,4.80417822265625,-0.11423180252313614,0.08674286305904388,-0.029932396486401558
1733230297364210000,4.8142099609375,-0.09285151958465576,-0.00733038317412138,-0.00366519158706069
1733230297374198000,4.824197998046875,-0.06841690838336945,-0.08002334833145142,-0.00427605677396059
1733230297384198700,4.83419873046875,-0.05375614017248154,-0.11728613078594208,-0.015882495790719986
1733230297394186800,4.844186767578125,-0.045204028487205505,-0.12217304855585098,-0.022602014243602753
1733230297404218400,4.85421826171875,-0.03726277872920036,-0.1014036312699318,-0.024434609338641167
1733230297414176000,4.864176025390625,-0.031154127791523933,-0.08185594528913498,-0.021991148591041565
1733230297424207400,4.874207275390625,-0.03481931984424591,-0.06475171446800232,-0.019547687843441963
1733230297434195500,4.884195556640625,-0.04092797264456749,-0.05192354694008827,-0.01160643994808197
1733230297444196600,4.894196533203125,-0.05864306539297104,-0.05497787147760391,0.0024434609804302454
1733230297454184200,4.90418408203125,-0.07819075137376785,-0.07941248267889023,0.012828170321881771
1733230297464215800,4.9142158203125,-0.10018189996480942,-0.11545353382825851,0.010995574295520782
1733230297474173400,4.92417333984375,-0.12339477986097336,-0.1716531366109848,-0.00427605677396059
1733230297484204800,4.934204833984375,-0.1258382350206375,-0.18814650177955627,-0.006108652334660292
1733230297494193000,4.94419287109375,-0.14416420459747314,-0.21868975460529327,-0.0024434609804302454
1733230297504193800,4.95419384765625,-0.16249015927314758,-0.22052235901355743,0.014049900695681572
1733230297514182100,4.96418212890625,-0.17104226350784302,-0.18875735998153687,0.036651913076639175
1733230297524213500,4.974213623046875,-0.16920967400074005,-0.14049901068210602,0.0659734457731247
1733230297534171000,4.9841708984375,-0.16371189057826996,-0.08185594528913498,0.1007927656173706
1733230297544202800,4.99420263671875,-0.152105450630188,0.00855211354792118,0.13561208546161652
1733230297554190600,5.004190673828125,-0.1466076523065567,0.06230825558304787,0.12767083942890167
1733230297564222200,5.01422216796875,-0.15271630883216858,0.09773843735456467,0.08857546001672745
1733230297574179600,5.0241796875,-0.1569923609495163,0.12095131725072861,0.021991148591041565
1733230297584211500,5.03421142578125,-0.16737708449363708,0.12461651116609573,-0.05803219974040985
1733230297594199000,5.044198974609375,-0.19058994948863983,0.11362093687057495,-0.1508837193250656
1733230297604200200,5.0542001953125,-0.22113321721553802,0.09834930300712585,-0.24190263450145721
1733230297614188300,5.064188232421875,-0.24862214922904968,0.07635815441608429,-0.31031954288482666
1733230297624219600,5.0742197265625,-0.25473082065582275,0.04337143152952194,-0.33719760179519653
1733230297634177000,5.084177001953125,-0.22540926933288574,0.03176499158143997,-0.2822197377681732
1733230297644209000,5.094208984375,-0.16432274878025055,0.02626720629632473,-0.17470745742321014
1733230297654196500,5.104196533203125,-0.07941248267889023,0.02871066704392433,-0.04092797264456749
1733230297664198000,5.114197998046875,0.02382374368607998,0.030543262138962746,0.08918632566928864
1733230297674185700,5.124185791015625,0.12339477986097336,0.0354301854968071,0.15882496535778046
1733230297684217000,5.134217041015625,0.18936823308467865,0.04337143152952194,0.13072516024112701
1733230297694174700,5.1441748046875,0.21563543379306793,0.048258353024721146,-0.09346238523721695
1733230297704206300,5.154206298828125,0.18997909128665924,0.02626720629632473,-0.3066543638706207
1733230297714194200,5.164194091796875,0.13439035415649414,-0.02871066704392433,-0.5216789245605469
1733230297724195300,5.1741953125,0.05742133408784866,-0.12278391420841217,-0.7086036801338196
1733230297734183200,5.18418310546875,-0.0403171069920063,-0.25045475363731384,-0.817337691783905
1733230297744214000,5.194214111328125,-0.12217304855585098,-0.3591887652873993,-0.7935139536857605
1733230297754172200,5.204172119140625,-0.1411098688840866,-0.4147774875164032,-0.5803219676017761
1733230297764203500,5.21420361328125,-0.0403171069920063,-0.3689626157283783,0.10201449692249298
1733230297774191600,5.224191650390625,0.09285151958465576,-0.28466320037841797,0.6762278079986572
1733230297784192500,5.234192626953125,0.2632829248905182,-0.19364428520202637,1.2101240158081055
1733230297794180900,5.244180908203125,0.40133845806121826,-0.13561208546161652,1.5876387357711792
1733230297804212200,5.254212158203125,0.4764748811721802,-0.11239920556545258,1.7397441864013672
1733230297814200300,5.264200439453125,0.4862487316131592,-0.10201449692249298,1.6578882932662964
1733230297824201500,5.274201416015625,0.4294382631778717,-0.21380282938480377,1.4019356966018677
1733230297834189300,5.284189208984375,0.2919935882091522,-0.24984388053417206,0.9358455538749695
1733230297844219600,5.2942197265625,0.06475171446800232,-0.2681698501110077,-0.010995574295520782
1733230297854178300,5.30417822265625,-0.06780604273080826,-0.2125810980796814,-0.5913175344467163
1733230297864210000,5.3142099609375,-0.1569923609495163,-0.15821409225463867,-0.9822713136672974
1733230297874197800,5.32419775390625,-0.20341812074184418,-0.13500121235847473,-1.1563678979873657
1733230297884198700,5.33419873046875,-0.17837265133857727,-0.14844025671482086,-1.1191051006317139
1733230297894186800,5.344186767578125,-0.09896016865968704,-0.18997909128665924,-0.912021815776825
1733230297904218400,5.35421826171875,0.012828170321881771,-0.21441370248794556,-0.5833762884140015
1733230297914176000,5.364176025390625,0.2064724564552307,-0.2119702398777008,-0.039095375686883926
1733230297924207400,5.374207275390625,0.3170390725135803,-0.2119702398777008,0.23884831368923187
1733230297934195500,5.384195556640625,0.3695734739303589,-0.20891591906547546,0.384845107793808
1733230297944196600,5.394196533203125,0.38728857040405273,-0.20097467303276062,0.39767327904701233
1733230297954184400,5.404184326171875,0.37262779474258423,-0.19058994948863983,0.3090978264808655
1733230297964216000,5.414216064453125,0.32559117674827576,-0.15821409225463867,0.1667662113904953
1733230297974173400,5.42417333984375,0.2541199326515198,-0.11972958594560623,0.012217304669320583
1733230297984205000,5.434205078125,0.16920967400074005,-0.07880161702632904,-0.16859880089759827
1733230297994193200,5.444193115234375,0.1368338167667389,-0.05803219974040985,-0.21991148591041565
1733230298004194000,5.454194091796875,0.11301007121801376,-0.0403171069920063,-0.21380282938480377
1733230298014182100,5.46418212890625,0.08735372871160507,-0.033597588539123535,-0.1667662113904953
1733230298024213500,5.474213623046875,0.06230825558304787,-0.03298672288656235,-0.10506882518529892
1733230298034171100,5.484171142578125,0.031154127791523933,-0.039095375686883926,-0.04764748737215996
1733230298044202500,5.494202392578125,-0.003054326167330146,-0.04886921867728233,-0.005497787147760391
1733230298054190600,5.504190673828125,-0.03481931984424591,-0.05497787147760391,0.01038470957428217
1733230298064221400,5.514221435546875,-0.09040805697441101,-0.04886921867728233,-0.021991148591041565
1733230298074179600,5.5241796875,-0.13561208546161652,-0.042760565876960754,-0.08368854224681854
1733230298084211500,5.53421142578125,-0.1820378452539444,-0.03237585723400116,-0.15943582355976105
1733230298094199300,5.54419921875,-0.21807889640331268,-0.01710422709584236,-0.23090706765651703
1733230298104200200,5.5542001953125,-0.2480112910270691,0.0006108652451075613,-0.2791654169559479
1733230298114186000,5.56418603515625,-0.2718350291252136,0.01771509274840355,-0.2987131178379059
1733230298124218400,5.57421826171875,-0.2834414839744568,0.02932153269648552,-0.27977627515792847
1733230298134176300,5.58417626953125,-0.27122417092323303,0.01771509274840355,-0.18020524084568024
1733230298144208000,5.594207763671875,-0.24984388053417206,-0.014049900695681572,-0.07819075137376785
1733230298154195700,5.60419580078125,-0.22052235901355743,-0.06475171446800232,0.0403171069920063
1733230298164196900,5.61419677734375,-0.18814650177955627,-0.12828169763088226,0.15943582355976105
1733230298174184700,5.624184814453125,-0.15454891324043274,-0.18936823308467865,0.26633724570274353
1733230298184216000,5.634216064453125,-0.12278391420841217,-0.24617868661880493,0.35185837745666504
1733230298194173700,5.644173583984375,-0.09712757170200348,-0.2938261926174164,0.40744712948799133
1733230298204205000,5.654205078125,-0.07208210229873657,-0.3286454975605011,0.4239404797554016
1733230298214194200,5.664194091796875,-0.06536258012056351,-0.31459560990333557,0.4098905920982361
1733230298224195000,5.674195068359375,-0.07024950534105301,-0.2736676335334778,0.3897320330142975
1733230298234183200,5.68418310546875,-0.07269296050071716,-0.2174680233001709,0.3701843321323395
1733230298244214500,5.694214599609375,-0.08185594528913498,-0.1814269721508026,0.34758231043815613
1733230298254172200,5.704172119140625,-0.1062905490398407,-0.18814650177955627,0.31520646810531616
1733230298264203800,5.714203857421875,-0.13988813757896423,-0.2272418737411499,0.27000242471694946
1733230298274191600,5.724191650390625,-0.16004669666290283,-0.27488934993743896,0.22296582162380219
1733230298284192800,5.73419287109375,-0.14905111491680145,-0.34025195240974426,0.18020524084568024
1733230298294180900,5.744180908203125,-0.1264491081237793,-0.34758231043815613,0.1716531366109848
1733230298304211000,5.7542109375,-0.11178833991289139,-0.3378084897994995,0.15332718193531036
1733230298314200000,5.764199951171875,-0.13500121235847473,-0.3677408695220947,0.10262536257505417
1733230298324200000,5.774199951171875,-0.20525072515010834,-0.3591887652873993,0.004886921960860491
1733230298334189300,5.784189208984375,-0.2993239760398865,-0.29016098380088806,-0.12828169763088226
1733230298344220700,5.794220703125,-0.3982841372489929,-0.1007927656173706,-0.24617868661880493
1733230298354178300,5.80417822265625,-0.46731191873550415,0.313373863697052,-0.2125810980796814
1733230298364209200,5.814209228515625,-0.46181413531303406,0.5326744914054871,-0.00855211354792118
1733230298374197800,5.82419775390625,-0.4544837474822998,0.6548475623130798,0.27488934993743896
1733230298384198700,5.83419873046875,-0.43615779280662537,0.6725626587867737,0.5723807215690613
1733230298394187000,5.84418701171875,-0.3836233615875244,0.6407976150512695,0.8130616545677185
1733230298404218400,5.85421826171875,-0.33536502718925476,0.5833762884140015,0.941343367099762
1733230298414176000,5.864176025390625,-0.3219259977340698,0.4703662395477295,0.8985827565193176
1733230298424206300,5.874206298828125,-0.3732386529445648,0.27550023794174194,0.5180137157440186
1733230298434195500,5.884195556640625,-0.45142942667007446,0.17592918872833252,0.1007927656173706
1733230298444195600,5.894195556640625,-0.5461135506629944,0.13805554807186127,-0.35735616087913513
1733230298454184200,5.90418408203125,-0.6206390857696533,0.14355333149433136,-0.7709119319915771
1733230298464215800,5.9142158203125,-0.6591235995292664,0.1765400618314743,-1.0659598112106323
1733230298474173400,5.92417333984375,-0.656069278717041,0.2174680233001709,-1.1997393369674683
1733230298484204800,5.934204833984375,-0.6041457056999207,0.23457226157188416,-1.178359031677246
1733230298494193000,5.94419287109375,-0.4996877610683441,0.23579397797584534,-1.0329731702804565
1733230298504193800,5.95419384765625,-0.31154128909111023,0.26083946228027344,-0.6823364496231079
1733230298514182100,5.96418212890625,-0.2076941877603531,0.28038713335990906,-0.4502076804637909
1733230298524213500,5.974213623046875,-0.12828169763088226,0.2883284091949463,-0.27000242471694946
1733230298534171000,5.9841708984375,-0.0708603709936142,0.2779437005519867,-0.1563815027475357
1733230298544202200,5.9942021484375,-0.0403171069920063,0.2528982162475586,-0.09529497474431992
1733230298554190300,6.0041904296875,-0.0354301854968071,0.20830504596233368,-0.08002334833145142
1733230298564222000,6.014221923828125,-0.05497787147760391,0.12461651116609573,-0.1062905490398407
1733230298574179600,6.0241796875,-0.09224065393209457,-0.013439035043120384,-0.18325957655906677
1733230298584211000,6.0342109375,-0.11789698898792267,-0.06414084881544113,-0.21930062770843506
1733230298594199000,6.044198974609375,-0.13072516024112701,-0.08368854224681854,-0.22968533635139465
1733230298604200000,6.054199951171875,-0.13072516024112701,-0.08735372871160507,-0.21074850857257843
1733230298614188300,6.064188232421875,-0.11423180252313614,-0.06719517707824707,-0.15577064454555511
1733230298624219600,6.0742197265625,-0.09040805697441101,-0.012828170321881771,-0.06963863968849182
1733230298634205400,6.084205322265625,-0.06230825558304787,0.0507018156349659,0.02321287989616394
1733230298644209000,6.094208984375,-0.018936822190880775,0.11789698898792267,0.1368338167667389
1733230298654196500,6.104196533203125,0.012828170321881771,0.1215621829032898,0.18448130786418915
1733230298664197600,6.11419775390625,0.0354301854968071,0.11056660860776901,0.20586158335208893
1733230298674185700,6.124185791015625,0.048258353024721146,0.10018189996480942,0.2125810980796814
1733230298684217000,6.134217041015625,0.04459316283464432,0.08002334833145142,0.22663100063800812
1733230298694174700,6.1441748046875,0.02382374368607998,0.07819075137376785,0.25045475363731384
1733230298704206000,6.1542060546875,0.001832595793530345,0.11728613078594208,0.2370157092809677
1733230298714194200,6.164194091796875,-0.01038470957428217,0.14782938361167908,0.1875356286764145
1733230298724195000,6.174195068359375,-0.05497787147760391,0.14782938361167908,0.10384709388017654
1733230298734183200,6.18418310546875,-0.10445795953273773,0.15271630883216858,0.04581489413976669
1733230298744214500,6.194214599609375,-0.15393804013729095,0.12522737681865692,-0.02076941914856434
1733230298754172200,6.204172119140625,-0.2021963894367218,0.08124507963657379,-0.09285151958465576
1733230298764203800,6.214203857421875,-0.24923302233219147,0.05253441259264946,-0.1411098688840866
1733230298774191900,6.22419189453125,-0.29016098380088806,0.04153883829712868,-0.17470745742321014
1733230298784192800,6.23419287109375,-0.32986724376678467,0.015271631069481373,-0.2028072625398636
1733230298794180900,6.244180908203125,-0.37201693654060364,0.00427605677396059,-0.26083946228027344
1733230298804212500,6.25421240234375,-0.394008070230484,0.048258353024721146,-0.32681289315223694
1733230298814200300,6.264200439453125,-0.4086688458919525,0.1411098688840866,-0.3891211748123169
1733230298824201500,6.274201416015625,-0.40744712948799133,0.2565633952617645,-0.42088615894317627
1733230298834189300,6.284189208984375,-0.3903428912162781,0.34025195240974426,-0.4251621961593628
1733230298844221000,6.294220947265625,-0.35552358627319336,0.3842342495918274,-0.4043927788734436
1733230298854178300,6.30417822265625,-0.30115658044815063,0.38667771220207214,-0.37751471996307373
1733230298864208600,6.314208740234375,-0.17470745742321014,0.3219259977340698,-0.3286454975605011
1733230298874197800,6.32419775390625,-0.07391469180583954,0.22846360504627228,-0.29626965522766113
1733230298884197400,6.334197265625,0.018325956538319588,0.10873401165008545,-0.27977627515792847
1733230298894186800,6.344186767578125,0.07696902006864548,0.009162978269159794,-0.2871066629886627
1733230298904217000,6.354217041015625,0.09712757170200348,-0.04581489413976669,-0.3182607889175415
1733230298914176000,6.364176025390625,0.07391469180583954,-0.02382374368607998,-0.3433062732219696
1733230298924206300,6.374206298828125,0.06230825558304787,0.0806342139840126,-0.36713001132011414
1733230298934195500,6.384195556640625,0.14966198801994324,0.2528982162475586,-0.3995058834552765
1733230298944195000,6.394195068359375,0.3854559659957886,0.3481931984424591,-0.45326200127601624
1733230298954184400,6.404184326171875,0.3286454975605011,0.15027284622192383,-0.43676865100860596
1733230298964215600,6.414215576171875,0.19975294172763824,-0.11728613078594208,-0.44654250144958496
1733230298974173400,6.42417333984375,0.1918116807937622,-0.2730567753314972,-0.5400048494338989
1733230298984204300,6.434204345703125,0.23457226157188416,-0.3274237811565399,-0.5736024379730225
1733230298994193200,6.444193115234375,0.28466320037841797,-0.2981022298336029,-0.38179078698158264
1733230299004193500,6.454193603515625,0.3891211748123169,-0.13255776464939117,0.05192354694008827
1733230299014182100,6.46418212890625,0.5992587804794312,0.10873401165008545,0.8448266386985779
1733230299024213000,6.474212890625,0.7342600226402283,0.039706241339445114,1.3292428255081177
1733230299034171100,6.484171142578125,0.7623597979545593,-0.09346238523721695,1.7189748287200928
1733230299044201500,6.494201416015625,0.7641924023628235,-0.19975294172763824,1.9260581731796265
1733230299054190800,6.50419091796875,0.7476990818977356,-0.27611109614372253,1.9132299423217773
1733230299064221200,6.51422119140625,0.675006091594696,-0.294437050819397,1.6853772401809692
1733230299074179600,6.5241796875,0.5540547966957092,-0.4178318381309509,1.2272282838821411
1733230299084210700,6.534210693359375,0.3176499307155609,-0.8100073337554932,0.26145032048225403
1733230299094199300,6.54419921875,0.12828169763088226,-0.9480628371238708,-0.3646865487098694
1733230299104200000,6.554199951171875,-0.019547687843441963,-0.8533787727355957,-0.8307767510414124
1733230299114186000,6.56418603515625,-0.13316862285137177,-0.6572909951210022,-1.1081095933914185
1733230299124218000,6.574218017578125,-0.21013765037059784,-0.43127086758613586,-1.187522053718567
1733230299134176300,6.58417626953125,-0.23518311977386475,-0.19975294172763824,-1.0775662660598755
1733230299144206800,6.594206787109375,-0.19547687470912933,-0.02871066704392433,-0.826500654220581
1733230299154195500,6.604195556640625,-0.10445795953273773,0.08796459436416626,-0.5076290369033813
1733230299164195800,6.61419580078125,0.04214970022439957,0.16493362188339233,-0.0555887371301651
1733230299174184400,6.624184326171875,0.09651670604944229,0.14233160018920898,0.13988813757896423
1733230299184215600,6.634215576171875,0.10018189996480942,0.06475171446800232,0.23151792585849762
1733230299194173700,6.644173583984375,0.06536258012056351,-0.039706241339445114,0.22418753802776337
1733230299204205300,6.654205322265625,0.0024434609804302454,-0.15882496535778046,0.1417207419872284
1733230299214194200,6.664194091796875,-0.0806342139840126,-0.26145032048225403,0.02076941914856434
1733230299224195300,6.6741953125,-0.16859880089759827,-0.342695415019989,-0.09468411654233932
1733230299234183200,6.68418310546875,-0.294437050819397,-0.4954117238521576,-0.21563543379306793
1733230299244214800,6.69421484375,-0.36713001132011414,-0.6023131608963013,-0.24862214922904968
1733230299254172200,6.704172119140625,-0.4196644127368927,-0.6401867866516113,-0.2376265823841095
1733230299264203500,6.71420361328125,-0.45326200127601624,-0.5705481171607971,-0.15393804013729095
1733230299274191600,6.724191650390625,-0.4508185386657715,-0.4282165467739105,-0.014049900695681572
1733230299284192800,6.73419287109375,-0.4147774875164032,-0.31093040108680725,0.12522737681865692
1733230299294180900,6.744180908203125,-0.3543018400669098,-0.23090706765651703,0.22968533635139465
1733230299304212200,6.754212158203125,-0.2687807083129883,-0.14905111491680145,0.31520646810531616
1733230299314200300,6.764200439453125,-0.2528982162475586,-0.09651670604944229,0.3243694305419922
1733230299324201500,6.774201416015625,-0.2632829248905182,-0.04703662544488907,0.29504790902137756
1733230299334189300,6.784189208984375,-0.29626965522766113,-0.00427605677396059,0.25961771607398987
1733230299344221000,6.794220947265625,-0.34758231043815613,0.04642575979232788,0.23335053026676178
1733230299354178300,6.80417822265625,-0.3933972120285034,0.08429940044879913,0.21930062770843506
1733230299364210000,6.8142099609375,-0.42271876335144043,0.08979719132184982,0.21441370248794556
1733230299374197800,6.82419775390625,-0.44654250144958496,0.06963863968849182,0.2174680233001709
1733230299384199000,6.834198974609375,-0.494189977645874,0.03298672288656235,0.1973094791173935
1733230299394187000,6.84418701171875,-0.5345070958137512,0.015271631069481373,0.14782938361167908
1733230299404218600,6.854218505859375,-0.5821545720100403,0.004886921960860491,0.06414084881544113
1733230299414176000,6.864176025390625,-0.6304129362106323,-0.00427605677396059,-0.04581489413976669
1733230299424206800,6.874206787109375,-0.6695083379745483,-0.001832595793530345,-0.15760323405265808
1733230299434195500,6.884195556640625,-0.7012733221054077,0.01771509274840355,-0.2376265823841095
1733230299444195800,6.89419580078125,-0.7226535677909851,0.02871066704392433,-0.2724458873271942
1733230299454184200,6.90418408203125,-0.7061602473258972,0.012828170321881771,-0.25595253705978394
1733230299464215300,6.91421533203125,-0.6646214127540588,-0.0024434609804302454,-0.20952677726745605
1733230299474173400,6.92417333984375,-0.5974262356758118,-0.015271631069481373,-0.14049901068210602
1733230299484204500,6.93420458984375,-0.5088507533073425,-0.0012217304902151227,-0.0555887371301651
1733230299494193200,6.944193115234375,-0.43249258399009705,0.0354301854968071,0.02687807008624077
1733230299504194000,6.954194091796875,-0.3701843321323395,0.07024950534105301,0.07819075137376785
1733230299514182100,6.96418212890625,-0.31520646810531616,0.0861319974064827,0.0806342139840126
1733230299524214000,6.974214111328125,-0.25106561183929443,0.07208210229873657,0.01466076634824276
1733230299534171100,6.984171142578125,-0.22357667982578278,0.04886921867728233,-0.04642575979232788
1733230299544202800,6.99420263671875,-0.21563543379306793,0.02015855349600315,-0.10506882518529892
1733230299554190300,7.0041904296875,-0.21319197118282318,-0.01160643994808197,-0.15332718193531036
1733230299564222200,7.01422216796875,-0.21441370248794556,-0.03176499158143997,-0.19058994948863983
1733230299574179600,7.0241796875,-0.21380282938480377,-0.03848451003432274,-0.21013765037059784
1733230299584211200,7.034211181640625,-0.20952677726745605,-0.06536258012056351,-0.1820378452539444
1733230299594199000,7.044198974609375,-0.19486601650714874,-0.048258353024721146,-0.06230825558304787
1733230299604200200,7.0542001953125,-0.1472185254096985,-0.012828170321881771,0.19608774781227112
1733230299614188300,7.064188232421875,-0.1007927656173706,-0.056810468435287476,0.21380282938480377
1733230299624220000,7.074219970703125,-0.09040805697441101,-0.06841690838336945,0.19914206862449646
1733230299634177000,7.084177001953125,-0.08979719132184982,-0.16798794269561768,0.1716531366109848
1733230299644208400,7.09420849609375,-0.0806342139840126,-0.22663100063800812,0.13255776464939117
1733230299654196500,7.104196533203125,-0.09407325088977814,-0.2070833146572113,0.1007927656173706
1733230299664197600,7.11419775390625,-0.11728613078594208,-0.17104226350784302,0.07880161702632904
1733230299674185700,7.124185791015625,-0.12339477986097336,-0.17776179313659668,0.11789698898792267
1733230299684217000,7.134217041015625,-0.11056660860776901,-0.18570303916931152,0.20952677726745605
1733230299694174700,7.1441748046875,-0.08429940044879913,-0.17837265133857727,0.31459560990333557
1733230299704206000,7.1542060546875,-0.05803219974040985,-0.21074850857257843,0.3646865487098694
1733230299714194200,7.164194091796875,-0.04581489413976669,-0.2718350291252136,0.34025195240974426
1733230299724195000,7.174195068359375,-0.04948008432984352,-0.28955012559890747,0.27550023794174194
