time,seconds_elapsed,z,y,x
1732873389265771500,0.223771484375,0.4351654052734375,0.0508115291595459,-0.009331166744232178
1732873389275524900,0.23352490234375,0.3370189666748047,0.0640491247177124,0.08119656145572662
1732873389285504300,0.243504150390625,0.2381906509399414,0.1259000301361084,0.0804416686296463
1732873389295513900,0.253513916015625,0.0740652084350586,0.1693413257598877,-0.0011565238237380981
1732873389305493200,0.2634931640625,-0.10342693328857422,0.16421568393707275,-0.12863542139530182
1732873389315503000,0.273503173828125,-0.12902259826660156,0.18299508094787598,-0.17882737517356873
1732873389325512700,0.2835126953125,-0.10970115661621094,0.15883684158325195,-0.15060195326805115
1732873389335491800,0.293491943359375,-0.19202804565429688,0.11253964900970459,-0.08608970046043396
1732873389345501700,0.303501708984375,-0.25604248046875,0.0734250545501709,-0.03693804144859314
1732873389355511300,0.31351123046875,-0.25858592987060547,0.052897095680236816,0.0003508031368255615
1732873389365490700,0.32349072265625,-0.25261688232421875,0.01515817642211914,0.023938387632369995
1732873389375500500,0.33350048828125,-0.20275306701660156,-0.011070609092712402,-0.001873314380645752
1732873389385510100,0.34351025390625,-0.05348968505859375,0.004659175872802734,0.014856278896331787
1732873389395489500,0.353489501953125,0.010288238525390625,-0.058951616287231445,0.0566461980342865
1732873389405499400,0.36349951171875,0.13290882110595703,-0.09077346324920654,0.13313566148281097
1732873389415509000,0.373509033203125,0.22153186798095703,-0.12069392204284668,0.19018767774105072
1732873389425518800,0.383518798828125,0.2550954818725586,-0.1268399953842163,0.16510358452796936
1732873389435498000,0.393498046875,0.20419883728027344,-0.08496367931365967,0.08416105806827545
1732873389445507600,0.403507568359375,0.13164234161376953,-0.043717026710510254,-0.03730519115924835
1732873389455517400,0.413517333984375,0.18355178833007812,-0.0026161670684814453,-0.1053013801574707
1732873389465496800,0.423496826171875,0.24205970764160156,0.04317128658294678,-0.17808188498020172
1732873389475506400,0.43350634765625,0.2787904739379883,0.04424786567687988,-0.13955825567245483
1732873389485516300,0.443516357421875,0.29470157623291016,0.023794174194335938,-0.044553160667419434
1732873389495495700,0.45349560546875,0.26297473907470703,0.013381481170654297,0.0884554386138916
1732873389505505500,0.463505615234375,0.10848617553710938,-0.023222923278808594,0.12469799071550369
1732873389515515100,0.47351513671875,-0.11850357055664062,0.018901944160461426,0.06987784802913666
1732873389525494300,0.483494384765625,-0.23865318298339844,0.0517045259475708,0.0006219744682312012
1732873389535504100,0.493504150390625,-0.2636146545410156,0.019856572151184082,-0.0005144774913787842
1732873389545513700,0.503513671875,-0.24387836456298828,-0.018634915351867676,-0.047781527042388916
1732873389555493000,0.5134931640625,-0.07401847839355469,-0.031333327293395996,-0.08678939938545227
1732873389565503000,0.5235029296875,0.0976400375366211,-0.07603073120117188,-0.029112309217453003
1732873389575512600,0.5335126953125,0.15413475036621094,-0.08542537689208984,0.004092097282409668
1732873389585492000,0.543491943359375,0.2178516387939453,-0.07826817035675049,-0.02226203680038452
1732873389595501800,0.553501708984375,0.23140716552734375,-0.004895329475402832,-0.06513708829879761
1732873389605511400,0.563511474609375,0.16371822357177734,0.0577235221862793,-0.09112924337387085
1732873389615490600,0.573490478515625,0.0794210433959961,0.07851886749267578,-0.17437011003494263
1732873389625500400,0.58350048828125,0.043178558349609375,0.1076822280883789,-0.24747344851493835
1732873389635510300,0.59351025390625,0.07641029357910156,0.052732110023498535,-0.1025923490524292
1732873389645489400,0.603489501953125,0.09278678894042969,-0.032718539237976074,0.070284903049469
1732873389655499300,0.613499267578125,0.07563972473144531,-0.0678945779800415,0.11130163073539734
1732873389665509000,0.623509033203125,0.1375579833984375,-0.055379390716552734,0.08405156433582306
1732873389675518700,0.633518798828125,0.08943557739257812,-0.08403241634368896,0.02927975356578827
1732873389685498000,0.643498046875,-0.05199432373046875,-0.12043333053588867,0.022189557552337646
1732873389695508000,0.653508056640625,-0.14313793182373047,-0.13311481475830078,0.004769623279571533
1732873389705517600,0.663517578125,-0.05725288391113281,-0.14237987995147705,0.08017495274543762
1732873389715497000,0.6734970703125,-0.017174720764160156,-0.15648937225341797,0.18331941962242126
1732873389725506600,0.683506591796875,-0.0299224853515625,-0.13135194778442383,0.2539074420928955
1732873389735516400,0.693516357421875,-0.040317535400390625,-0.06546914577484131,0.23918402194976807
1732873389745495600,0.70349560546875,-0.10818672180175781,-0.023540019989013672,0.21896620094776154
1732873389755505400,0.71350537109375,-0.003719329833984375,0.011325716972351074,0.26202845573425293
1732873389765515000,0.723514892578125,0.08872413635253906,0.05865311622619629,0.30026063323020935
1732873389775494400,0.733494384765625,0.1117544174194336,0.019846677780151367,0.21479587256908417
1732873389785504300,0.743504150390625,0.21395492553710938,-0.0029352903366088867,0.11518198251724243
1732873389795513900,0.753513916015625,0.3236246109008789,-0.0268019437789917,-0.08365261554718018
1732873389805493200,0.7634931640625,0.4549980163574219,-0.05133676528930664,-0.16482561826705933
1732873389815503000,0.773503173828125,0.6271371841430664,-0.0716320276260376,-0.042839646339416504
1732873389825512700,0.7835126953125,0.6532564163208008,-0.04242515563964844,0.14603278040885925
1732873389835491800,0.793491943359375,0.4472465515136719,-0.010216236114501953,0.2592693567276001
1732873389845501700,0.803501708984375,0.2893247604370117,0.034009575843811035,0.28844091296195984
1732873389855511300,0.81351123046875,0.17467784881591797,0.05489790439605713,0.3259667158126831
1732873389865490700,0.82349072265625,0.00026702880859375,-0.003956317901611328,0.3563624322414398
1732873389875500500,0.83350048828125,-0.13832759857177734,-0.10995805263519287,0.29531437158584595
1732873389885510400,0.843510498046875,-0.0950479507446289,-0.1069333553314209,0.1147858053445816
1732873389895489500,0.853489501953125,0.18515586853027344,-0.0447080135345459,-0.018712908029556274
1732873389905499400,0.86349951171875,0.3383493423461914,0.02851283550262451,0.0436614453792572
1732873389915509000,0.873509033203125,0.26416492462158203,0.1511298418045044,0.14297813177108765
1732873389925518800,0.883518798828125,0.1040353775024414,0.2590287923812866,0.2728136479854584
1732873389935498000,0.893498046875,-0.07476234436035156,0.3331180810928345,0.49626320600509644
1732873389945507800,0.9035078125,-0.226806640625,0.35483241081237793,0.6858989000320435
1732873389955517400,0.913517333984375,-0.3880634307861328,0.3271905183792114,0.9180413484573364
1732873389965496800,0.923496826171875,-0.6211147308349609,0.20571601390838623,1.1135618686676025
1732873389975506700,0.933506591796875,-0.7346963882446289,0.06937229633331299,1.3253118991851807
1732873389985516300,0.943516357421875,-0.6860179901123047,-0.15816354751586914,1.5740164518356323
1732873389995049500,0.953049560546875,-0.45856761932373047,-0.36938369274139404,1.552757978439331
1732873390005059300,0.963059326171875,-0.10996627807617188,-0.5612429976463318,1.5512620210647583
1732873390015069000,0.97306884765625,0.3813600540161133,-0.6853647828102112,1.2886751890182495
1732873390025048300,0.98304833984375,0.8360824584960938,-0.7173805236816406,1.196126937866211
1732873390035058200,0.99305810546875,1.2001237869262695,-0.7048237323760986,1.188373327255249
1732873390045067800,1.00306787109375,1.2177810668945312,-0.5733717679977417,1.187157392501831
1732873390055047200,1.013047119140625,0.8964471817016602,-0.4162874221801758,1.1928216218948364
1732873390065057000,1.02305712890625,0.4706840515136719,-0.2643200755119324,1.1295117139816284
1732873390075066600,1.033066650390625,0.13905048370361328,-0.05139875411987305,1.0189939737319946
1732873390085045800,1.043045654296875,-0.30126953125,0.06635332107543945,0.8924773931503296
1732873390095055600,1.0530556640625,-0.46864986419677734,0.1606276035308838,0.7574697136878967
1732873390105065200,1.063065185546875,-0.36346435546875,0.18890154361724854,0.6989233493804932
1732873390115044600,1.073044677734375,-0.06830978393554688,0.19723641872406006,0.32372093200683594
1732873390125054500,1.083054443359375,0.20969390869140625,0.1340082883834839,0.15800559520721436
1732873390135064000,1.09306396484375,0.5011739730834961,0.09813940525054932,0.12557363510131836
1732873390145043500,1.10304345703125,0.6369314193725586,0.06234550476074219,0.1665506362915039
1732873390155053300,1.11305322265625,0.5763006210327148,0.09657716751098633,0.15862798690795898
1732873390165063000,1.12306298828125,0.47715091705322266,0.09342873096466064,-0.023701190948486328
1732873390175072800,1.13307275390625,0.44753265380859375,0.14537763595581055,-0.17189082503318787
1732873390185052000,1.143052001953125,0.3822317123413086,0.17176878452301025,-0.3929212987422943
1732873390195061500,1.1530615234375,0.31496524810791016,0.1557401418685913,-0.5609840750694275
1732873390205071400,1.1630712890625,0.3971090316772461,0.2190558910369873,-0.6522717475891113
1732873390215050800,1.17305078125,0.2068634033203125,0.21878695487976074,-0.7216086387634277
1732873390225060600,1.183060546875,-0.0786275863647461,0.2519705295562744,-0.8249043226242065
1732873390235070200,1.1930703125,-0.34025096893310547,0.28605079650878906,-0.7381460666656494
1732873390245049600,1.203049560546875,-0.34203338623046875,0.2867715358734131,-0.6077139973640442
1732873390255059500,1.2130595703125,-0.22834110260009766,0.19704926013946533,-0.4345194101333618
1732873390265069000,1.223069091796875,-0.09358501434326172,0.1568748950958252,-0.27834948897361755
1732873390275048200,1.233048095703125,-0.02031421661376953,0.119040846824646,-0.13165420293807983
1732873390285058000,1.24305810546875,-0.11494922637939453,0.08826112747192383,0.008316464722156525
1732873390295067600,1.253067626953125,-0.2862071990966797,0.11053824424743652,0.172780841588974
1732873390305047000,1.263047119140625,-0.48137474060058594,0.16160154342651367,0.1743028312921524
1732873390315057000,1.273056884765625,-0.6574516296386719,0.2561516761779785,-0.1150713860988617
1732873390325066500,1.28306640625,-0.6302919387817383,0.3377997875213623,-0.4372531771659851
1732873390335046000,1.2930458984375,-0.3280954360961914,0.2996922731399536,-0.4557521939277649
1732873390345055700,1.3030556640625,0.029054641723632812,0.1366642713546753,-0.01656929776072502
1732873390355065300,1.3130654296875,0.37937259674072266,-0.14782953262329102,0.5544459223747253
1732873390365044700,1.323044677734375,0.49210071563720703,-0.4865140914916992,1.1779413223266602
1732873390375054300,1.333054443359375,0.38324451446533203,-0.7307640314102173,1.5960636138916016
1732873390385064000,1.34306396484375,0.05198097229003906,-0.9544588327407837,1.8605475425720215
1732873390395043300,1.353043212890625,-0.2335796356201172,-1.131000280380249,1.869666337966919
1732873390405053200,1.36305322265625,-0.37332820892333984,-1.1906962394714355,1.5555107593536377
1732873390415062800,1.373062744140625,-0.10175132751464844,-0.7855013012886047,0.590897798538208
1732873390425072600,1.38307275390625,0.40477657318115234,-0.5841654539108276,0.03088921308517456
1732873390435052000,1.393052001953125,0.9278078079223633,-0.3424116373062134,-0.19628295302391052
1732873390445061600,1.4030615234375,1.1807069778442383,-0.06821012496948242,-0.3372112810611725
1732873390455071500,1.413071533203125,1.0239229202270508,0.13653779029846191,-0.21858632564544678
1732873390465050600,1.423050537109375,0.40942955017089844,0.3267054557800293,-0.07928347587585449
1732873390475060500,1.433060546875,-0.4186830520629883,0.6021819114685059,0.05142110586166382
1732873390485070300,1.4430703125,-1.054530143737793,0.7161974906921387,0.2831417918205261
1732873390495049500,1.453049560546875,-1.6646370887756348,0.5521600246429443,0.5783777236938477
1732873390505059300,1.463059326171875,-1.898576259613037,0.24481570720672607,0.7258549928665161
1732873390515069000,1.47306884765625,-1.6643447875976562,-0.2429516315460205,0.6401393413543701
1732873390525048300,1.48304833984375,-0.589634895324707,-0.626181960105896,0.4166759252548218
1732873390535058200,1.49305810546875,1.1127538681030273,-0.8526037335395813,-0.1050061583518982
1732873390545067800,1.50306787109375,2.604755401611328,-0.5533756613731384,-0.7585113048553467
1732873390555047200,1.513047119140625,3.860287666320801,0.042400240898132324,-1.5197124481201172
1732873390565057000,1.52305712890625,4.252124786376953,0.5903383493423462,-2.138298273086548
1732873390575066600,1.533066650390625,3.5161218643188477,0.9418903589248657,-2.3885769844055176
1732873390585045800,1.543045654296875,1.9642200469970703,0.970333456993103,-2.3371787071228027
1732873390595055600,1.5530556640625,0.6959686279296875,0.7937560081481934,-1.8460240364074707
1732873390605065200,1.563065185546875,-0.35245609283447266,0.5224956274032593,-0.7071970701217651
1732873390615044600,1.573044677734375,-0.7947769165039062,0.21505355834960938,0.2696942090988159
1732873390625054500,1.583054443359375,-0.8239641189575195,-0.11227405071258545,0.8864828944206238
1732873390635064300,1.593064208984375,-0.3520936965942383,-0.3564283847808838,1.143256425857544
1732873390645043500,1.60304345703125,0.2517423629760742,-0.5650999546051025,0.9424986839294434
1732873390655053300,1.61305322265625,0.445068359375,-0.5432388782501221,0.3553699254989624
1732873390665063200,1.623063232421875,0.3558540344238281,-0.19103622436523438,-0.4790482819080353
1732873390675072800,1.63307275390625,0.07588672637939453,0.23352158069610596,-1.612969160079956
1732873390685052000,1.643052001953125,-0.23040103912353516,0.8855372667312622,-2.5172691345214844
1732873390695061800,1.653061767578125,-0.6735124588012695,1.3581767082214355,-3.187814950942993
1732873390705071400,1.6630712890625,-0.8780145645141602,1.4785192012786865,-3.3521649837493896
1732873390715050800,1.67305078125,-0.6801176071166992,1.2213736772537231,-3.0207817554473877
1732873390725060400,1.683060302734375,-0.32625579833984375,0.8002346754074097,-2.5557806491851807
1732873390735070200,1.6930703125,0.3729362487792969,0.5320740938186646,-2.265777826309204
1732873390745049600,1.703049560546875,1.1500740051269531,0.49496984481811523,-2.1231443881988525
1732873390755059500,1.7130595703125,1.8407230377197266,0.47671985626220703,-2.161057233810425
1732873390765069000,1.723069091796875,2.122952461242676,0.536771297454834,-2.5053858757019043
1732873390775048200,1.733048095703125,1.7824106216430664,0.7402733564376831,-3.193650722503662
1732873390785058000,1.74305810546875,0.8800554275512695,1.0343190431594849,-3.931107759475708
1732873390795067600,1.753067626953125,-0.1505117416381836,1.3688695430755615,-4.334863185882568
1732873390805047000,1.763047119140625,-1.2668075561523438,1.5772216320037842,-4.257079601287842
1732873390815057000,1.773056884765625,-2.0600032806396484,1.567750334739685,-3.7677128314971924
1732873390825066500,1.78306640625,-2.7093634605407715,1.536415457725525,-3.0226032733917236
1732873390835046000,1.7930458984375,-3.0840659141540527,1.4268741607666016,-2.513681411743164
1732873390845055700,1.8030556640625,-3.2425389289855957,1.2687976360321045,-2.0114200115203857
1732873390855065300,1.8130654296875,-3.2189550399780273,1.123805046081543,-1.7821784019470215
1732873390865044500,1.82304443359375,-2.9610748291015625,0.9499449729919434,-1.7436907291412354
1732873390875054300,1.833054443359375,-2.5168418884277344,0.7972946166992188,-1.7519558668136597
1732873390885064200,1.843064208984375,-1.895655632019043,0.6386573314666748,-1.69463312625885
1732873390895043300,1.853043212890625,-1.3778057098388672,0.5329678058624268,-1.6522037982940674
1732873390905053200,1.86305322265625,-0.9230232238769531,0.4627647399902344,-1.6632319688796997
1732873390915063000,1.87306298828125,-0.5044822692871094,0.44302070140838623,-1.563560962677002
1732873390925072600,1.88307275390625,-0.22479248046875,0.33343279361724854,-1.3152387142181396
1732873390935052000,1.893052001953125,0.07437801361083984,0.18190360069274902,-0.8228070735931396
1732873390945062000,1.903061767578125,0.34044837951660156,0.04738819599151611,-0.4109519422054291
1732873390955071500,1.913071533203125,0.5804443359375,0.009374499320983887,-0.1222161054611206
1732873390965050600,1.923050537109375,0.7165002822875977,-0.12374114990234375,0.3784639239311218
1732873390975060500,1.933060546875,0.5582370758056641,-0.10370397567749023,0.32748350501060486
1732873390985070300,1.9430703125,0.520146369934082,0.08775734901428223,0.22843453288078308
1732873390995049500,1.953049560546875,0.5618972778320312,0.27106237411499023,0.29230010509490967
1732873391005059300,1.963059326171875,0.3452186584472656,0.3515589237213135,0.27239587903022766
1732873391015069000,1.97306884765625,0.2757711410522461,0.5227255821228027,0.08891382068395615
1732873391025048300,1.98304833984375,0.39989376068115234,0.5639350414276123,-0.010490849614143372
1732873391035058200,1.99305810546875,0.6251354217529297,0.4818880558013916,0.11777553707361221
1732873391045067800,2.00306787109375,0.8876428604125977,0.3044548034667969,0.39872169494628906
1732873391055047200,2.013047119140625,0.9739103317260742,0.11464142799377441,0.656781792640686
1732873391065057000,2.02305712890625,0.7335643768310547,-0.05445384979248047,0.8260070085525513
1732873391075066600,2.033066650390625,0.4894113540649414,-0.06169462203979492,0.688341498374939
1732873391085045800,2.043045654296875,0.19553661346435547,-0.0035295486450195312,0.4724053740501404
1732873391095055600,2.0530556640625,-0.012040138244628906,0.12681174278259277,0.31357255578041077
1732873391105065200,2.063065185546875,-0.21047306060791016,0.30768895149230957,0.18979650735855103
1732873391115044600,2.073044677734375,-0.43445682525634766,0.44141650199890137,-0.1440502405166626
1732873391125054500,2.083054443359375,-0.2607612609863281,0.48874950408935547,-0.21964558959007263
1732873391135064000,2.09306396484375,0.33417415618896484,0.1732327938079834,-0.01326712965965271
1732873391145043500,2.10304345703125,1.0918512344360352,-0.2375648021697998,0.2954241633415222
1732873391155053300,2.11305322265625,1.8745098114013672,-0.6259946823120117,0.47954779863357544
1732873391165063000,2.12306298828125,2.475338935852051,-0.8305561542510986,0.658574104309082
1732873391175072800,2.13307275390625,3.192474365234375,-0.9353266954421997,1.0700511932373047
1732873391185052000,2.143052001953125,3.4687442779541016,-0.946662425994873,1.1513168811798096
1732873391195061500,2.1530615234375,2.995652198791504,-0.8493205308914185,0.6782470345497131
1732873391205071400,2.1630712890625,2.205019950866699,-0.7925636768341064,-0.08656841516494751
1732873391215050800,2.17305078125,1.2017698287963867,-1.0101605653762817,-0.5941388607025146
1732873391225060600,2.183060546875,0.32459259033203125,-1.3703768253326416,-0.3797914385795593
1732873391235070200,2.1930703125,-0.47085094451904297,-1.7930004596710205,0.3532440662384033
1732873391245049600,2.203049560546875,-1.3084259033203125,-2.2630221843719482,1.0631296634674072
1732873391255059500,2.2130595703125,-1.9765625,-2.6775686740875244,1.5144190788269043
1732873391265069000,2.223069091796875,-2.1544275283813477,-2.862600088119507,1.4897849559783936
1732873391275048200,2.233048095703125,-1.5884332656860352,-2.7785677909851074,0.5053856372833252
1732873391285058000,2.24305810546875,-0.5646305084228516,-2.4991440773010254,-1.3247915506362915
1732873391295067600,2.253067626953125,0.5590734481811523,-2.1290295124053955,-2.97625732421875
1732873391305047000,2.263047119140625,1.6465063095092773,-1.6266915798187256,-4.362344264984131
1732873391315057000,2.273056884765625,2.4517993927001953,-1.0851361751556396,-4.774327278137207
1732873391325066500,2.28306640625,2.8823604583740234,-0.4771084785461426,-4.081399917602539
1732873391335046000,2.2930458984375,2.490828514099121,0.04648566246032715,-2.9657065868377686
1732873391345055700,2.3030556640625,1.6742382049560547,0.5649290084838867,-2.3732285499572754
1732873391355065300,2.3130654296875,0.6711492538452148,0.9797120094299316,-2.3498640060424805
1732873391365044500,2.32304443359375,-0.25661373138427734,1.083390474319458,-2.4273853302001953
1732873391375054300,2.333054443359375,-1.1343612670898438,0.953418493270874,-2.131288528442383
1732873391385064200,2.343064208984375,-1.5256919860839844,0.7003955841064453,-1.5287336111068726
1732873391395043300,2.353043212890625,-1.5351076126098633,0.3274350166320801,-0.6700634956359863
1732873391405053200,2.36305322265625,-1.3941373825073242,0.01244044303894043,0.09540629386901855
1732873391415062800,2.373062744140625,-0.9721956253051758,-0.2158815860748291,0.6053309440612793
1732873391425072600,2.38307275390625,-0.6878595352172852,-0.4347701072692871,0.819699227809906
1732873391435052000,2.393052001953125,-0.4304533004760742,-0.7005288600921631,0.8879944682121277
1732873391445061600,2.4030615234375,-0.24705123901367188,-0.9223746061325073,0.8561390042304993
1732873391455071500,2.413071533203125,-0.07529449462890625,-1.0988942384719849,0.7645406723022461
1732873391465050600,2.423050537109375,-0.06348896026611328,-1.2974967956542969,0.6534796953201294
1732873391475060500,2.433060546875,-0.11133384704589844,-1.1914292573928833,0.3499026298522949
1732873391485070300,2.4430703125,-0.21502208709716797,-0.8805019855499268,-0.11897164583206177
1732873391495049500,2.453049560546875,-0.42173290252685547,-0.5355229377746582,-0.6055142879486084
1732873391505059300,2.463059326171875,-0.6458168029785156,-0.19975066184997559,-0.9053083062171936
1732873391515069000,2.47306884765625,-0.8368082046508789,0.02248215675354004,-0.8641555309295654
1732873391525048300,2.48304833984375,-1.105790138244629,0.14949536323547363,-0.6856065988540649
1732873391535058200,2.49305810546875,-1.1633720397949219,0.13085830211639404,-0.2904612123966217
1732873391545067800,2.50306787109375,-1.0550298690795898,-0.03716635704040527,0.32675811648368835
1732873391555047200,2.513047119140625,-0.8420581817626953,-0.2777080535888672,0.8262621760368347
1732873391565057000,2.52305712890625,-0.5099382400512695,-0.42526376247406006,1.053905725479126
1732873391575066600,2.533066650390625,-0.20230484008789062,-0.5730054378509521,1.2619235515594482
1732873391585045800,2.543045654296875,-0.012363433837890625,-0.6928378343582153,1.3681786060333252
1732873391595055600,2.5530556640625,0.1629199981689453,-0.7728772163391113,1.450032114982605
1732873391605065200,2.563065185546875,0.3043098449707031,-0.7766075134277344,1.487220048904419
1732873391615044600,2.573044677734375,0.6468935012817383,-0.5072063207626343,1.1470260620117188
1732873391625054500,2.583054443359375,1.1124162673950195,-0.20901715755462646,0.7693383693695068
1732873391635064000,2.59306396484375,1.5492687225341797,0.1721510887145996,0.2779805660247803
1732873391645043500,2.60304345703125,1.7878198623657227,0.46369993686676025,-0.23643451929092407
1732873391655053300,2.61305322265625,1.955270767211914,0.6154193878173828,-0.6545500755310059
1732873391665063000,2.62306298828125,1.979945182800293,0.4775068759918213,-0.8458507657051086
1732873391675072800,2.63307275390625,2.0220603942871094,0.21399545669555664,-0.8141746520996094
1732873391685052000,2.643052001953125,2.162677764892578,-0.03005397319793701,-0.8146827220916748
1732873391695061800,2.653061767578125,2.0598526000976562,-0.11420214176177979,-0.9069118499755859
1732873391705071400,2.6630712890625,1.5033483505249023,-0.12495172023773193,-1.0472244024276733
1732873391715050800,2.67305078125,0.8405227661132812,-0.03673231601715088,-1.0983542203903198
1732873391725060600,2.683060546875,0.1927175521850586,0.08540582656860352,-1.02212393283844
1732873391735070200,2.6930703125,-0.13701438903808594,0.18549633026123047,-0.9836131930351257
1732873391745049600,2.703049560546875,-0.29363250732421875,0.34764182567596436,-1.1870007514953613
1732873391755059500,2.7130595703125,-0.17204570770263672,0.44043004512786865,-1.559049129486084
1732873391765069000,2.723069091796875,0.230224609375,0.35363876819610596,-1.9758110046386719
1732873391775048200,2.733048095703125,0.7599554061889648,0.23397469520568848,-2.035797357559204
1732873391785058000,2.74305810546875,1.0836782455444336,0.07915925979614258,-1.9709192514419556
1732873391795067600,2.753067626953125,1.2597551345825195,-0.14442157745361328,-1.6233819723129272
1732873391805047000,2.763047119140625,1.1475372314453125,-0.34807610511779785,-1.3485102653503418
1732873391815057000,2.773056884765625,0.800018310546875,-0.3908121585845947,-1.2388029098510742
1732873391825066500,2.78306640625,0.30817413330078125,-0.23507905006408691,-1.4201637506484985
1732873391835046000,2.7930458984375,-0.38561058044433594,0.15049827098846436,-1.8986375331878662
1732873391845055700,2.8030556640625,-1.1814489364624023,0.5625029802322388,-2.59914493560791
1732873391855065300,2.8130654296875,-2.1702513694763184,1.0626527070999146,-3.4297664165496826
1732873391865044500,2.82304443359375,-2.857553005218506,1.4783486127853394,-3.953489065170288
1732873391875054300,2.833054443359375,-3.285374641418457,1.7687150239944458,-4.075285911560059
1732873391885064200,2.843064208984375,-3.4835891723632812,1.8859546184539795,-3.6966004371643066
1732873391895043300,2.853043212890625,-3.216160774230957,1.7213033437728882,-3.170832872390747
1732873391905053200,2.86305322265625,-2.0771737098693848,1.2481404542922974,-2.656250476837158
1732873391915063000,2.87306298828125,-0.9311065673828125,0.8771902322769165,-2.363673210144043
1732873391925072600,2.88307275390625,0.3345003128051758,0.6485825777053833,-2.3337903022766113
1732873391935052000,2.893052001953125,1.2543344497680664,0.4981423616409302,-2.5362563133239746
1732873391945061600,2.9030615234375,1.9164466857910156,0.48079395294189453,-3.007993459701538
1732873391955071500,2.913071533203125,2.2789669036865234,0.6444817781448364,-3.4939517974853516
1732873391965050600,2.923050537109375,2.381228446960449,0.8194513320922852,-3.9541406631469727
1732873391975060500,2.933060546875,2.0965757369995117,0.9405769109725952,-4.086280822753906
1732873391985070300,2.9430703125,1.5478992462158203,1.054705262184143,-3.556093215942383
1732873391995049500,2.953049560546875,0.611572265625,0.9987375736236572,-2.8123726844787598
1732873392005059300,2.963059326171875,-0.21699142456054688,0.9232299327850342,-2.167646646499634
1732873392015069000,2.97306884765625,-1.0582590103149414,0.9128118753433228,-1.6990314722061157
1732873392025048300,2.98304833984375,-1.6569280624389648,0.9192661046981812,-1.647839069366455
1732873392035058200,2.99305810546875,-2.2267231941223145,0.9378931522369385,-1.6783969402313232
1732873392045067800,3.00306787109375,-2.5242557525634766,0.9046393632888794,-1.7543963193893433
1732873392055047200,3.013047119140625,-2.497556686401367,0.742310643196106,-1.8236360549926758
1732873392065057000,3.02305712890625,-2.337082862854004,0.6203635931015015,-2.0099987983703613
1732873392075066600,3.033066650390625,-1.941300392150879,0.5481762886047363,-2.2980122566223145
1732873392085045800,3.043045654296875,-1.520949363708496,0.4859069585800171,-2.470803737640381
1732873392095055600,3.0530556640625,-1.0972070693969727,0.4744921922683716,-2.601332426071167
1732873392105065200,3.063065185546875,-0.7486352920532227,0.5892436504364014,-2.6616077423095703
1732873392115044600,3.073044677734375,-0.6974544525146484,0.7080132961273193,-2.6947526931762695
1732873392125054500,3.083054443359375,-0.7085819244384766,0.8269946575164795,-2.647104263305664
1732873392135064000,3.09306396484375,-0.6383275985717773,0.9045376777648926,-2.554417133331299
1732873392145043500,3.10304345703125,-0.5467195510864258,0.9629722833633423,-2.4939098358154297
1732873392155053300,3.11305322265625,-0.40499019622802734,1.0080949068069458,-2.510267496109009
1732873392165063000,3.12306298828125,-0.129425048828125,1.0760990381240845,-2.576932430267334
1732873392175072800,3.13307275390625,-0.014646530151367188,0.899505615234375,-2.0009446144104004
1732873392185052000,3.143052001953125,0.104400634765625,0.7526125907897949,-1.4332863092422485
1732873392195061800,3.153061767578125,0.08567142486572266,0.7127833366394043,-1.1629570722579956
1732873392205071400,3.1630712890625,0.29422950744628906,0.8482117652893066,-0.9174745678901672
1732873392215050800,3.17305078125,0.785395622253418,0.8814001083374023,-0.360758900642395
1732873392225060600,3.183060546875,1.0214471817016602,0.6163039207458496,0.44118452072143555
1732873392235070200,3.1930703125,1.412623405456543,0.29225659370422363,1.55500328540802
1732873392245049600,3.203049560546875,1.674757957458496,-0.1593611240386963,2.580537796020508
1732873392255059500,3.2130595703125,1.846796989440918,-0.6036281585693359,3.5883302688598633
1732873392265069000,3.223069091796875,1.8395299911499023,-0.845433235168457,3.9673056602478027
1732873392275048200,3.233048095703125,1.828115463256836,-0.9466016292572021,3.9187469482421875
1732873392285058000,3.24305810546875,1.8062820434570312,-0.9696046113967896,3.4549245834350586
1732873392295067600,3.253067626953125,1.7869901657104492,-0.8183004856109619,2.72062087059021
1732873392305047000,3.263047119140625,2.003904342651367,-0.5963897705078125,2.0539305210113525
1732873392315057000,3.273056884765625,2.2305526733398438,-0.356048583984375,1.362515926361084
1732873392325066500,3.28306640625,2.35483455657959,-0.3679666519165039,1.0017118453979492
1732873392335046000,3.2930458984375,2.6175479888916016,-0.5739395618438721,0.9761403203010559
1732873392345055700,3.3030556640625,2.8859262466430664,-1.0345195531845093,0.980547308921814
1732873392355065300,3.3130654296875,2.930006980895996,-1.477683186531067,1.0298041105270386
1732873392365044500,3.32304443359375,2.7554006576538086,-1.9818586111068726,1.0741389989852905
1732873392375054300,3.333054443359375,2.150585174560547,-2.2953743934631348,0.9702181816101074
1732873392385064200,3.343064208984375,1.016322135925293,-2.4647998809814453,0.9364727139472961
1732873392395043300,3.353043212890625,0.1001119613647461,-2.4639017581939697,0.900452196598053
1732873392405053200,3.36305322265625,-0.8475580215454102,-2.326725959777832,0.8147268891334534
1732873392415062800,3.373062744140625,-1.5569005012512207,-2.243551731109619,0.656277060508728
1732873392425072600,3.38307275390625,-2.254396438598633,-2.1224048137664795,0.5680028200149536
1732873392435052000,3.393052001953125,-3.0237693786621094,-2.1793482303619385,0.5670663714408875
1732873392445061600,3.4030615234375,-3.322286605834961,-2.1342458724975586,0.3348377048969269
1732873392455071500,3.413071533203125,-3.140681743621826,-2.0229625701904297,-0.048470914363861084
1732873392465050600,3.423050537109375,-2.476606845855713,-1.904354453086853,-0.309276282787323
1732873392475060500,3.433060546875,-1.1656665802001953,-1.6815319061279297,-0.5712572932243347
1732873392485070300,3.4430703125,0.051589012145996094,-1.376042127609253,-0.538716733455658
1732873392495049500,3.453049560546875,0.8984470367431641,-1.1625819206237793,-0.4827248454093933
1732873392505059300,3.463059326171875,1.3392314910888672,-0.891377329826355,-0.4031919836997986
1732873392515069000,3.47306884765625,1.7835474014282227,-0.7108678817749023,-0.15395885705947876
1732873392525048300,3.48304833984375,1.939748764038086,-0.6045198440551758,0.16670691967010498
1732873392535058200,3.49305810546875,1.8191852569580078,-0.5805466175079346,0.5480553507804871
1732873392545067800,3.50306787109375,1.507521629333496,-0.5950679779052734,0.8017691969871521
1732873392555047200,3.513047119140625,1.2689809799194336,-0.6318118572235107,0.9247965812683105
1732873392565057000,3.52305712890625,0.9845705032348633,-0.6190760135650635,0.9777863025665283
1732873392575066600,3.533066650390625,0.5815391540527344,-0.6970858573913574,1.066750168800354
1732873392585045800,3.543045654296875,0.1734151840209961,-0.8081380128860474,1.3070285320281982
1732873392595055600,3.5530556640625,-0.05841827392578125,-0.9332234859466553,1.4455417394638062
1732873392605065200,3.563065185546875,-0.10920333862304688,-1.0044039487838745,1.5875999927520752
1732873392615044600,3.573044677734375,0.054802894592285156,-1.0337532758712769,1.6585519313812256
1732873392625054500,3.583054443359375,0.15155315399169922,-1.053338646888733,1.6987978219985962
1732873392635064000,3.59306396484375,0.098175048828125,-1.027971625328064,1.730287790298462
1732873392645043500,3.60304345703125,0.08209514617919922,-0.9810347557067871,1.766503095626831
1732873392655053300,3.61305322265625,-0.20810222625732422,-0.539010763168335,1.2656829357147217
1732873392665063000,3.62306298828125,-0.5199098587036133,-0.2346714735031128,0.9241191744804382
1732873392675072800,3.63307275390625,-0.9571132659912109,-0.14374232292175293,0.6842493414878845
1732873392685052000,3.643052001953125,-1.3650712966918945,-0.08075332641601562,0.3603708744049072
1732873392695061800,3.653061767578125,-1.4765939712524414,-0.1009972095489502,0.06342026591300964
1732873392705071400,3.6630712890625,-1.3214340209960938,-0.2240309715270996,0.10654774308204651
1732873392715050800,3.67305078125,-1.0930414199829102,-0.41745924949645996,0.27312731742858887
1732873392725060400,3.683060302734375,-0.6815910339355469,-0.6156412363052368,0.4626339077949524
1732873392735070200,3.6930703125,-0.3121614456176758,-0.9165177345275879,0.5201573967933655
1732873392745049600,3.703049560546875,-0.2330160140991211,-0.999936580657959,0.6959666013717651
1732873392755059500,3.7130595703125,-0.09663200378417969,-1.1924259662628174,0.7543982267379761
1732873392765069000,3.723069091796875,-0.09701728820800781,-1.2615487575531006,0.6657413244247437
1732873392775048200,3.733048095703125,-0.042326927185058594,-1.1558492183685303,0.5245204567909241
1732873392785058000,3.74305810546875,0.06981372833251953,-1.0236252546310425,0.4186006188392639
1732873392795067600,3.753067626953125,0.05200481414794922,-0.706023097038269,0.0750780999660492
1732873392805047000,3.763047119140625,0.054978370666503906,-0.4341249465942383,-0.30921441316604614
1732873392815057000,3.773056884765625,0.05370330810546875,-0.2963840961456299,-0.423639714717865
1732873392825066500,3.78306640625,0.23772811889648438,-0.2931169271469116,-0.1754893660545349
1732873392835046000,3.7930458984375,0.37645626068115234,-0.3211073875427246,0.2671385407447815
1732873392845055700,3.8030556640625,0.5663375854492188,-0.5006613731384277,0.5847606658935547
1732873392855065300,3.8130654296875,0.8474035263061523,-0.6092278957366943,0.89193195104599
1732873392865044500,3.82304443359375,1.241715431213379,-0.461140513420105,1.0345444679260254
1732873392875054300,3.833054443359375,1.2626094818115234,0.28805971145629883,0.5361729264259338
1732873392885064200,3.843064208984375,0.6785507202148438,0.9214389324188232,-0.3549206554889679
1732873392895043300,3.853043212890625,-0.5272817611694336,1.3327810764312744,-1.7023253440856934
1732873392905053200,3.86305322265625,-1.6805744171142578,1.568200945854187,-3.325900077819824
1732873392915063000,3.87306298828125,-2.5361409187316895,1.835227608680725,-4.901467800140381
1732873392925072600,3.88307275390625,-2.29374361038208,1.7536375522613525,-5.502639293670654
1732873392935052000,3.893052001953125,-0.6026706695556641,1.0533331632614136,-4.966150283813477
1732873392945061600,3.9030615234375,1.603013038635254,0.29025352001190186,-3.492687940597534
1732873392955071500,3.913071533203125,3.6373987197875977,-0.2212836742401123,-1.4956603050231934
1732873392965051000,3.92305078125,4.624697685241699,-0.34983187913894653,0.12625998258590698
1732873392975060500,3.933060546875,4.684751510620117,-0.16645053029060364,1.3876142501831055
1732873392985070300,3.9430703125,3.4330034255981445,0.26309627294540405,1.1977105140686035
1732873392995049500,3.953049560546875,2.2491397857666016,0.8225334286689758,-0.22049081325531006
1732873393005059300,3.963059326171875,1.368718147277832,1.7348906993865967,-2.247897148132324
1732873393015069000,3.97306884765625,0.9246616363525391,2.532508134841919,-3.508183479309082
1732873393025048300,3.98304833984375,0.5563726425170898,3.008371114730835,-4.20395040512085
1732873393035058200,3.99305810546875,0.5037317276000977,3.2197647094726562,-4.256954669952393
1732873393045067800,4.00306787109375,0.4390735626220703,3.179595470428467,-4.025908470153809
1732873393055047200,4.013047119140625,0.08989810943603516,2.9674267768859863,-3.7380380630493164
1732873393065057000,4.02305712890625,-0.6391668319702148,2.556684732437134,-3.3401122093200684
1732873393075066600,4.033066650390625,-1.2834348678588867,2.0779802799224854,-2.7852602005004883
1732873393085045800,4.043045654296875,-1.7228889465332031,1.4777241945266724,-2.101107597351074
1732873393095055600,4.0530556640625,-1.6409645080566406,0.9039947390556335,-1.3128806352615356
1732873393105065200,4.063065185546875,-1.201186180114746,0.5609371662139893,-0.9473528861999512
1732873393115044600,4.073044677734375,-0.5213108062744141,0.35246196389198303,-0.9589649438858032
1732873393125054500,4.083054443359375,-0.05348014831542969,0.2849821150302887,-1.1710094213485718
1732873393135064000,4.09306396484375,0.27213573455810547,0.39735686779022217,-1.3729050159454346
1732873393145043500,4.10304345703125,0.12447452545166016,0.5199378728866577,-1.5586341619491577
1732873393155053300,4.11305322265625,-0.6139287948608398,0.6657401323318481,-1.8202673196792603
1732873393165063000,4.12306298828125,-1.1793022155761719,0.842627763748169,-2.061852216720581
1732873393175072800,4.13307275390625,-1.7464780807495117,1.1025149822235107,-2.1367950439453125
1732873393185052000,4.143052001953125,-2.1820554733276367,1.134549617767334,-2.1351990699768066
1732873393195061500,4.1530615234375,-2.2489237785339355,1.1771001815795898,-1.9094784259796143
1732873393205071400,4.1630712890625,-1.861243724822998,1.1065707206726074,-1.4953089952468872
1732873393215050800,4.17305078125,-1.5318012237548828,0.906793475151062,-1.186110258102417
1732873393225060600,4.183060546875,-1.069230079650879,0.6584118604660034,-1.0238360166549683
1732873393235070200,4.1930703125,-0.48854637145996094,0.45937037467956543,-0.9692312479019165
1732873393245049600,4.203049560546875,0.07237911224365234,0.24067115783691406,-0.9145861268043518
1732873393255059500,4.2130595703125,0.389129638671875,0.1784498393535614,-1.1977133750915527
1732873393265069000,4.223069091796875,0.3757057189941406,0.1954456865787506,-1.6600271463394165
1732873393275048200,4.233048095703125,0.23848628997802734,0.09705731272697449,-2.061206340789795
1732873393285058000,4.24305810546875,0.13313770294189453,0.003427058458328247,-2.3924779891967773
1732873393295067600,4.253067626953125,0.1960611343383789,0.02877780795097351,-2.330470561981201
1732873393305047000,4.263047119140625,0.27883434295654297,0.04569682478904724,-2.0781753063201904
1732873393315057000,4.273056884765625,0.32785701751708984,-0.1091369092464447,-1.0447909832000732
1732873393325066500,4.28306640625,0.19612598419189453,-0.09585082530975342,-0.48433196544647217
1732873393335046000,4.2930458984375,-0.3337564468383789,-0.013996303081512451,-0.29454827308654785
1732873393345055700,4.3030556640625,-0.7178974151611328,0.0783873200416565,-0.07214456796646118
1732873393355065300,4.3130654296875,-1.0015287399291992,0.07317310571670532,0.15903842449188232
1732873393365044500,4.32304443359375,-1.3138465881347656,-0.04120272397994995,0.27997809648513794
1732873393375054300,4.333054443359375,-1.6693925857543945,-0.1735137403011322,0.048937976360321045
1732873393385064200,4.343064208984375,-1.7318286895751953,-0.17696955800056458,-0.5514686703681946
1732873393395043300,4.353043212890625,-1.340928077697754,-0.18260669708251953,-1.1129521131515503
1732873393405053200,4.36305322265625,-0.7554759979248047,-0.20399686694145203,-1.225704550743103
1732873393415063000,4.37306298828125,-0.0014438629150390625,-0.2606283128261566,-0.9943475723266602
1732873393425072600,4.38307275390625,0.7563505172729492,-0.3298856317996979,-0.42463529109954834
1732873393435052000,4.393052001953125,1.1380729675292969,-0.3719773590564728,0.20545220375061035
1732873393445061600,4.4030615234375,1.2927007675170898,-0.37625935673713684,0.6950381994247437
1732873393455071500,4.413071533203125,1.3740692138671875,-0.2795911133289337,0.8858749866485596
1732873393465051000,4.42305078125,1.3007850646972656,-0.15718801319599152,0.7687749266624451
1732873393475060500,4.433060546875,1.2405929565429688,-0.11160525679588318,0.4012264013290405
1732873393485070300,4.4430703125,1.3609657287597656,-0.09331688284873962,-0.1069604754447937
1732873393495049500,4.453049560546875,1.6257915496826172,0.009737640619277954,-0.3214418888092041
1732873393505059300,4.463059326171875,1.8502731323242188,0.08314710855484009,-0.21059727668762207
1732873393515069000,4.47306884765625,2.0315933227539062,0.12611615657806396,0.07292890548706055
1732873393525048300,4.48304833984375,2.1072006225585938,0.1473686397075653,0.3515186905860901
1732873393535058200,4.49305810546875,1.8848199844360352,0.13864335417747498,0.5985296964645386
1732873393545067800,4.50306787109375,1.5372552871704102,0.1591336727142334,0.6146510243415833
1732873393555047200,4.513047119140625,1.0242233276367188,0.14200466871261597,0.5710110664367676
1732873393565057000,4.52305712890625,0.5473146438598633,0.020869851112365723,0.5316346883773804
1732873393575066600,4.533066650390625,0.07817554473876953,-0.10231184959411621,0.3708990812301636
1732873393585045800,4.543045654296875,-0.15576171875,-0.11151450872421265,0.3099821209907532
1732873393595055600,4.5530556640625,-0.2171621322631836,-0.2040390521287918,0.3703653812408447
1732873393605065200,4.563065185546875,-0.1908578872680664,-0.28396499156951904,0.46654802560806274
1732873393615044600,4.573044677734375,0.1597118377685547,-0.3772678077220917,0.4564703702926636
1732873393625054500,4.583054443359375,0.6559391021728516,-0.5309975147247314,0.535689115524292
1732873393635064000,4.59306396484375,1.1085882186889648,-0.8209928870201111,0.6972684264183044
1732873393645043500,4.60304345703125,1.3792533874511719,-1.0415034294128418,0.6159802079200745
1732873393655053300,4.61305322265625,1.4994134902954102,-1.0937293767929077,0.5166621208190918
1732873393665063000,4.62306298828125,1.3783092498779297,-1.0188179016113281,0.26905423402786255
1732873393675072800,4.63307275390625,1.068833351135254,-0.826249361038208,-0.06203663349151611
1732873393685052000,4.643052001953125,0.5061149597167969,-0.5177600383758545,-0.5798875689506531
1732873393695061500,4.6530615234375,0.11633586883544922,-0.23020556569099426,-1.0273315906524658
1732873393705071400,4.6630712890625,-0.21796035766601562,0.013098418712615967,-1.373213529586792
1732873393715050800,4.67305078125,-0.4897499084472656,0.18239980936050415,-1.64988374710083
1732873393725060600,4.683060546875,-0.639338493347168,0.33401191234588623,-1.9350745677947998
1732873393735070200,4.6930703125,-0.6860437393188477,0.4176366925239563,-1.8478875160217285
1732873393745049600,4.703049560546875,-0.6729612350463867,0.412905752658844,-1.2457315921783447
1732873393755059500,4.7130595703125,-0.9440546035766602,0.4824697971343994,-0.1905503273010254
1732873393765069000,4.723069091796875,-1.4518795013427734,0.6233748197555542,-0.05716228485107422
1732873393775048200,4.733048095703125,-2.2492260932922363,0.62101811170578,0.06363952159881592
1732873393785058000,4.74305810546875,-2.9683594703674316,0.455530047416687,0.44854509830474854
1732873393795067600,4.753067626953125,-3.537208080291748,0.3023921847343445,0.8432397246360779
1732873393805047000,4.763047119140625,-3.503671169281006,0.33388441801071167,0.8546863198280334
1732873393815057000,4.773056884765625,-2.5718750953674316,0.4516577124595642,1.076891541481018
1732873393825066500,4.78306640625,-2.312145709991455,0.29790621995925903,1.5302081108093262
1732873393835046000,4.7930458984375,-1.7652463912963867,-0.07392013072967529,1.9376447200775146
1732873393845055500,4.803055419921875,-1.1713228225708008,-0.1507277488708496,2.2271885871887207
1732873393855065300,4.8130654296875,-0.17095088958740234,-0.12263590097427368,2.5092644691467285
1732873393865044500,4.82304443359375,0.7035350799560547,-0.06042325496673584,2.6724584102630615
1732873393875054300,4.833054443359375,1.3892536163330078,0.15667426586151123,2.6374635696411133
1732873393885064200,4.843064208984375,1.7631397247314453,0.5155988931655884,2.7099404335021973
1732873393895043300,4.853043212890625,1.5134258270263672,0.7550120949745178,2.666529655456543
1732873393905053200,4.86305322265625,1.102926254272461,0.9257603287696838,2.6422314643859863
1732873393915062800,4.873062744140625,0.7328872680664062,1.019205927848816,2.6674063205718994
1732873393925072600,4.88307275390625,0.2968587875366211,1.0170207023620605,2.640583038330078
1732873393935052000,4.893052001953125,0.1409473419189453,0.8405885696411133,2.530912399291992
1732873393945061600,4.9030615234375,0.6307840347290039,0.5768008232116699,2.226505756378174
1732873393955071500,4.913071533203125,1.5053176879882812,0.3617795705795288,1.882130742073059
1732873393965051000,4.92305078125,2.6927623748779297,0.2361362874507904,1.5932555198669434
1732873393975060500,4.933060546875,3.7631311416625977,0.25567635893821716,1.3808692693710327
1732873393985070300,4.9430703125,4.1176652908325195,0.3573029041290283,1.2629164457321167
1732873393995049500,4.953049560546875,3.5155553817749023,0.5723648071289062,1.0661373138427734
1732873394005059300,4.963059326171875,2.3726186752319336,0.7883211374282837,0.8752717971801758
1732873394015069000,4.97306884765625,0.9463481903076172,1.0198655128479004,0.8713909387588501
1732873394025048300,4.98304833984375,-0.09891414642333984,1.105029821395874,1.0392494201660156
1732873394035058200,4.99305810546875,-0.9233436584472656,1.1880006790161133,1.0885801315307617
1732873394045067800,5.00306787109375,-1.266016960144043,1.2859066724777222,1.0091867446899414
1732873394055047200,5.013047119140625,-1.1460990905761719,1.3855478763580322,0.8748055696487427
1732873394065057000,5.02305712890625,-0.8910455703735352,1.4281247854232788,0.7872453331947327
1732873394075066600,5.033066650390625,-0.7016706466674805,1.399200677871704,0.780975878238678
1732873394085045800,5.043045654296875,-0.769282341003418,1.3326857089996338,0.8159582614898682
1732873394095055600,5.0530556640625,-0.8202056884765625,1.2219393253326416,0.9261959791183472
1732873394105065200,5.063065185546875,-1.131357192993164,1.0602692365646362,1.0457863807678223
1732873394115044600,5.073044677734375,-1.3748970031738281,0.6085238456726074,0.8450717926025391
1732873394125054500,5.083054443359375,-1.4531288146972656,0.3287566304206848,0.8721039295196533
1732873394135064000,5.09306396484375,-1.381627082824707,0.06418824195861816,1.0070220232009888
1732873394145043500,5.10304345703125,-1.166116714477539,-0.24785596132278442,1.3721742630004883
1732873394155053300,5.11305322265625,-0.8910045623779297,-0.4893230199813843,1.8486816883087158
1732873394165063000,5.12306298828125,-0.4920921325683594,-0.7578200101852417,2.364994525909424
1732873394175072800,5.13307275390625,-0.6160678863525391,-0.945391833782196,2.593078374862671
1732873394185052000,5.143052001953125,-0.8153495788574219,-0.9955796599388123,2.6399927139282227
1732873394195061800,5.153061767578125,-0.8289813995361328,-0.8727499842643738,2.1852123737335205
1732873394205071400,5.1630712890625,-0.6295070648193359,-0.654174268245697,1.5753998756408691
1732873394215050800,5.17305078125,-0.3764991760253906,-0.3088535666465759,0.8616092205047607
1732873394225060400,5.183060302734375,-0.4325742721557617,0.07230520248413086,0.1164236068725586
1732873394235070200,5.1930703125,-0.40253639221191406,0.3731435537338257,-0.3888816833496094
1732873394245049600,5.203049560546875,-0.2554664611816406,0.4188731908798218,-0.48837101459503174
1732873394255059500,5.2130595703125,-0.2197561264038086,0.3896477222442627,-0.38575035333633423
1732873394265069000,5.223069091796875,-0.12443923950195312,0.2495412826538086,-0.17454618215560913
1732873394275048200,5.233048095703125,0.12932300567626953,0.0955202579498291,0.4327790141105652
1732873394285057800,5.243057861328125,0.15955543518066406,-0.0871511697769165,1.2464656829833984
1732873394295067600,5.253067626953125,-0.042758941650390625,-0.31891071796417236,1.9441262483596802
1732873394305047000,5.263047119140625,-0.28618431091308594,-0.4897710680961609,2.5321009159088135
1732873394315057000,5.273056884765625,-0.505122184753418,-0.7099217772483826,2.9429984092712402
1732873394325066500,5.28306640625,-0.6480016708374023,-1.080723762512207,3.449606418609619
1732873394335046000,5.2930458984375,0.24172019958496094,-1.1871494054794312,3.451509714126587
1732873394345055700,5.3030556640625,2.09890079498291,-0.9732175469398499,2.850217819213867
1732873394355065300,5.3130654296875,3.5524463653564453,-0.6648336052894592,2.0023481845855713
1732873394365044500,5.32304443359375,4.53761100769043,-0.313462495803833,1.1955835819244385
1732873394375054300,5.333054443359375,4.620718955993652,0.06567597389221191,0.5572410225868225
1732873394385064200,5.343064208984375,3.7177534103393555,0.5025017261505127,0.021742939949035645
1732873394395043300,5.353043212890625,2.4773635864257812,0.8036051988601685,-0.047974586486816406
1732873394405053200,5.36305322265625,1.3089008331298828,0.9392143487930298,0.16807401180267334
1732873394415062800,5.373062744140625,0.31711578369140625,0.9593645334243774,0.25978994369506836
1732873394425072600,5.38307275390625,-0.18545818328857422,0.9256879091262817,0.15901637077331543
1732873394435052000,5.393052001953125,0.04662609100341797,0.7336713075637817,0.24113547801971436
1732873394445061600,5.4030615234375,0.8600378036499023,0.45361852645874023,0.6813883781433105
1732873394455071500,5.413071533203125,2.2893600463867188,0.04189664125442505,1.194056749343872
1732873394465051000,5.42305078125,3.6731739044189453,-0.22065675258636475,1.4714540243148804
1732873394475060500,5.433060546875,4.548432350158691,-0.3328191936016083,1.49112069606781
1732873394485070300,5.4430703125,4.660813331604004,-0.2638397216796875,1.1528767347335815
1732873394495049500,5.453049560546875,3.901616096496582,0.006467282772064209,0.6598799228668213
1732873394505059300,5.463059326171875,2.8756980895996094,0.3185662031173706,0.16821986436843872
1732873394515069000,5.47306884765625,1.668416976928711,0.6727325916290283,-0.3055593967437744
1732873394525048300,5.48304833984375,0.6002712249755859,0.9550570845603943,-0.4337528347969055
1732873394535058200,5.49305810546875,-0.33112144470214844,1.078640103340149,-0.3438999652862549
1732873394545067800,5.50306787109375,-1.1254606246948242,1.096296787261963,-0.09413689374923706
1732873394555047200,5.513047119140625,-1.5282630920410156,0.9412135481834412,0.15368163585662842
1732873394565057000,5.52305712890625,-1.7336077690124512,0.6529598236083984,0.4052942097187042
1732873394575066600,5.533066650390625,-1.6408662796020508,0.3841061592102051,0.5556779503822327
1732873394585045800,5.543045654296875,-1.4444351196289062,0.10020041465759277,0.7001959085464478
1732873394595055600,5.5530556640625,-1.278794288635254,-0.14505457878112793,0.7949070930480957
1732873394605065200,5.563065185546875,-1.2089862823486328,-0.2517274022102356,0.7048241496086121
1732873394615044600,5.573044677734375,-1.3691749572753906,-0.2285323143005371,0.3858540952205658
1732873394625054500,5.583054443359375,-1.711400032043457,-0.11698639392852783,-0.01629948616027832
1732873394635064000,5.59306396484375,-2.4198899269104004,0.02837955951690674,-0.5730826258659363
1732873394645043500,5.60304345703125,-2.714216709136963,0.14845454692840576,-0.9474105834960938
1732873394655053300,5.61305322265625,-2.7358264923095703,0.2536824941635132,-0.9914867877960205
1732873394665063000,5.62306298828125,-2.7602310180664062,0.2781684398651123,-0.8026432991027832
1732873394675072800,5.63307275390625,-2.792296886444092,0.22870981693267822,-0.5805568695068359
1732873394685052000,5.643052001953125,-2.561666965484619,0.20189273357391357,-0.6054763197898865
1732873394695061500,5.6530615234375,-2.0947823524475098,0.12915587425231934,-0.730085015296936
1732873394705071400,5.6630712890625,-1.684192180633545,-0.02064383029937744,-0.710844099521637
1732873394715050800,5.67305078125,-1.3750944137573242,-0.16532254219055176,-0.7871178388595581
1732873394725060600,5.683060546875,-1.1077852249145508,-0.276516318321228,-0.8640249967575073
1732873394735070200,5.6930703125,-0.7338266372680664,-0.3735055923461914,-0.9302170276641846
1732873394745049600,5.703049560546875,-0.6070261001586914,-0.4802302122116089,-0.9668512940406799
1732873394755059500,5.7130595703125,-0.6454610824584961,-0.4963958263397217,-0.90787672996521
1732873394765069000,5.723069091796875,-0.7099390029907227,-0.4905824661254883,-0.8238213658332825
1732873394775048200,5.733048095703125,-0.8215007781982422,-0.6103835105895996,-0.6760716438293457
1732873394785058000,5.74305810546875,-0.8198652267456055,-0.8616880178451538,-0.3383761942386627
1732873394795067600,5.753067626953125,-0.7483158111572266,-1.0612576007843018,-0.018325507640838623
1732873394805047000,5.763047119140625,-0.6837368011474609,-1.2148747444152832,0.3383694589138031
1732873394815056600,5.773056640625,-0.5907669067382812,-1.3555042743682861,0.377845823764801
1732873394825066500,5.78306640625,-0.49139404296875,-1.407753586769104,0.19812485575675964
1732873394835046000,5.7930458984375,-0.5627241134643555,-1.40430748462677,-0.016532480716705322
1732873394845055700,5.8030556640625,-0.6078786849975586,-1.3691327571868896,-0.33308279514312744
1732873394855065300,5.8130654296875,-0.5227680206298828,-1.3444063663482666,-0.671926736831665
1732873394865044500,5.82304443359375,-0.6056528091430664,-1.2404890060424805,-1.0637362003326416
1732873394875054300,5.833054443359375,-0.473358154296875,-1.2178552150726318,-1.1720609664916992
1732873394885064200,5.843064208984375,-0.40592098236083984,-1.2137629985809326,-1.0540213584899902
1732873394895043300,5.853043212890625,-0.5539216995239258,-1.2987018823623657,-1.0183223485946655
1732873394905053200,5.86305322265625,-0.5748891830444336,-1.3295937776565552,-0.7935205698013306
1732873394915063000,5.87306298828125,-0.6712856292724609,-1.1371967792510986,-0.3199480175971985
1732873394925072600,5.88307275390625,-0.8428726196289062,-1.1622724533081055,-0.24646931886672974
1732873394935052000,5.893052001953125,-0.6941795349121094,-1.055125117301941,-0.21547794342041016
1732873394945061600,5.9030615234375,-0.3163881301879883,-0.9516019821166992,-0.13923460245132446
1732873394955071500,5.913071533203125,0.21631526947021484,-0.7094697952270508,0.05979740619659424
1732873394965051000,5.92305078125,0.7201414108276367,-0.44524624943733215,0.451640784740448
1732873394975060500,5.933060546875,0.8101081848144531,-0.05301010608673096,0.931623101234436
1732873394985070300,5.9430703125,0.5993318557739258,0.4870610237121582,1.466613531112671
1732873394995049500,5.953049560546875,0.33008384704589844,0.9822407960891724,1.623495101928711
1732873395005059300,5.963059326171875,0.09786796569824219,1.5756754875183105,1.2742565870285034
1732873395015069000,5.97306884765625,0.4412508010864258,2.041653633117676,0.7246216535568237
1732873395025048300,5.98304833984375,1.5925540924072266,2.1950583457946777,0.20937177538871765
1732873395035058200,5.99305810546875,2.596700668334961,2.3088011741638184,0.03189927339553833
1732873395045067800,6.00306787109375,3.060723304748535,2.4477829933166504,0.04769188165664673
1732873395055047200,6.013047119140625,3.3836231231689453,2.535435676574707,0.06281435489654541
1732873395065057000,6.02305712890625,3.4688663482666016,2.523542642593384,0.2827346920967102
1732873395075066600,6.033066650390625,3.049386978149414,2.3425371646881104,0.5608074069023132
1732873395085045800,6.043045654296875,2.5762367248535156,2.1738948822021484,1.12674081325531
1732873395095055600,6.0530556640625,2.19842529296875,1.8940355777740479,1.4688177108764648
1732873395105065200,6.063065185546875,2.2659339904785156,1.712074637413025,1.8325648307800293
1732873395115044600,6.073044677734375,2.613924026489258,1.5647172927856445,2.031017303466797
1732873395125054500,6.083054443359375,2.7996225357055664,1.484727382659912,1.7318682670593262
1732873395135064000,6.09306396484375,2.798892021179199,1.4850473403930664,1.2447316646575928
1732873395145043500,6.10304345703125,2.5133581161499023,1.460015892982483,1.1377723217010498
1732873395155053300,6.11305322265625,1.591111183166504,1.380000114440918,1.191299319267273
1732873395165063000,6.12306298828125,0.1114187240600586,1.284886360168457,1.0930371284484863
1732873395175072800,6.13307275390625,-1.69085693359375,1.3059407472610474,0.7910033464431763
1732873395185052000,6.143052001953125,-3.1763672828674316,1.360597848892212,0.4560357332229614
1732873395195061800,6.153061767578125,-3.892721176147461,1.4095910787582397,0.16347739100456238
1732873395205071400,6.1630712890625,-4.110804557800293,1.5385379791259766,-0.3268486261367798
1732873395215050800,6.17305078125,-3.8721022605895996,1.6049548387527466,-0.6730048060417175
1732873395225060400,6.183060302734375,-3.032540798187256,1.4606668949127197,-0.637800395488739
1732873395235070200,6.1930703125,-2.152189254760742,1.1945801973342896,-0.34374672174453735
1732873395245049600,6.203049560546875,-1.5013790130615234,1.0210769176483154,-0.22294670343399048
1732873395255059500,6.2130595703125,-1.352752685546875,0.8937187790870667,-0.1791011095046997
1732873395265069000,6.223069091796875,-1.521921157836914,0.8629776835441589,0.1997898817062378
1732873395275048200,6.233048095703125,-1.6310138702392578,0.976957380771637,0.5974041223526001
1732873395285058000,6.24305810546875,-1.6231145858764648,1.128433108329773,0.9556705951690674
1732873395295067600,6.253067626953125,-1.4631233215332031,1.2593350410461426,1.2653300762176514
1732873395305047000,6.263047119140625,-1.0454034805297852,1.2965788841247559,1.0373843908309937
1732873395315057000,6.273056884765625,-0.4005861282348633,1.3770637512207031,0.14084327220916748
1732873395325066500,6.28306640625,0.05528450012207031,1.4122681617736816,-0.36823219060897827
1732873395335046000,6.2930458984375,0.2512016296386719,0.9604799747467041,-0.1591596007347107
1732873395345055700,6.3030556640625,0.45355892181396484,0.36369359493255615,0.8520936369895935
1732873395355065300,6.3130654296875,0.7228031158447266,-0.05573195219039917,2.1944026947021484
1732873395365044500,6.32304443359375,0.7293567657470703,-0.1297205686569214,2.8768115043640137
1732873395375054300,6.333054443359375,0.974787712097168,-0.30761224031448364,3.3723340034484863
1732873395385064200,6.343064208984375,1.0533809661865234,-0.42533567547798157,3.485255718231201
1732873395395043300,6.353043212890625,0.8968725204467773,-0.4936032295227051,3.0027053356170654
1732873395405053200,6.36305322265625,-0.06498336791992188,-0.621613621711731,2.4272170066833496
1732873395415063000,6.37306298828125,-1.1824913024902344,-0.7634586095809937,1.362769603729248
1732873395425072600,6.38307275390625,-1.704603672027588,-0.5687949061393738,-0.04263615608215332
1732873395435052000,6.393052001953125,-1.529597282409668,-0.3281536400318146,-0.6542607545852661
1732873395445061600,6.4030615234375,-0.7608184814453125,-0.20850491523742676,-0.5767395496368408
1732873395455071500,6.413071533203125,0.2755727767944336,-0.10490775108337402,0.08936572074890137
1732873395465051000,6.42305078125,1.5025215148925781,-0.06968086957931519,1.0301026105880737
1732873395475060500,6.433060546875,2.128659248352051,0.047454833984375,1.6256272792816162
1732873395485070300,6.4430703125,2.015566825866699,0.2538415193557739,1.7264912128448486
1732873395495049500,6.453049560546875,1.315892219543457,0.33670079708099365,1.5286781787872314
1732873395505059300,6.463059326171875,0.43615150451660156,0.3537020981311798,1.3034281730651855
1732873395515069000,6.47306884765625,-0.24152183532714844,0.3251549005508423,0.8622459769248962
1732873395525048300,6.48304833984375,-0.3862266540527344,0.38162267208099365,0.4764042794704437
1732873395535058200,6.49305810546875,0.08246994018554688,0.4252508580684662,0.2767145335674286
1732873395545067800,6.50306787109375,0.7603950500488281,0.38591790199279785,0.3045271337032318
1732873395555047200,6.513047119140625,1.6268253326416016,0.4656657576560974,0.5013049840927124
1732873395565057000,6.52305712890625,2.4932451248168945,0.6531341075897217,0.5248411893844604
1732873395575066600,6.533066650390625,3.3291921615600586,0.9208089709281921,0.38300806283950806
1732873395585045800,6.543045654296875,3.7668962478637695,1.1613287925720215,0.24652227759361267
1732873395595055600,6.5530556640625,3.789144515991211,1.380713701248169,0.03892412781715393
1732873395605065200,6.563065185546875,3.319059371948242,1.5059674978256226,-0.2618648409843445
1732873395615044600,6.573044677734375,2.4592933654785156,1.4992544651031494,-0.4556252360343933
1732873395625054500,6.583054443359375,1.6262292861938477,1.2890064716339111,-0.6036306023597717
1732873395635064000,6.59306396484375,0.9681549072265625,1.034907579421997,-0.6518256664276123
1732873395645043500,6.60304345703125,0.45380210876464844,0.7548099160194397,-0.5693850517272949
1732873395655053300,6.61305322265625,0.2601461410522461,0.35641416907310486,-0.3001687526702881
1732873395665063000,6.62306298828125,0.001926422119140625,-0.154953733086586,0.047365933656692505
1732873395675072800,6.63307275390625,-0.34218502044677734,-0.49952787160873413,0.389392226934433
1732873395685052000,6.643052001953125,-0.9059877395629883,-0.7652754783630371,0.6532226800918579
1732873395695061800,6.653061767578125,-1.4499435424804688,-0.9477934837341309,0.7513224482536316
1732873395705071400,6.6630712890625,-1.8377447128295898,-0.9021449089050293,0.5914400815963745
1732873395715050800,6.67305078125,-2.055971622467041,-0.649328887462616,0.304343044757843
1732873395725060400,6.683060302734375,-2.204525947570801,-0.3064606785774231,-0.13491782546043396
1732873395735070200,6.6930703125,-2.365420341491699,0.037810683250427246,-0.5625048279762268
1732873395745049600,6.703049560546875,-2.600440502166748,0.3134540319442749,-0.9554504752159119
1732873395755059500,6.7130595703125,-2.797484874725342,0.7269427180290222,-1.9109066724777222
1732873395765069000,6.723069091796875,-2.4755516052246094,0.9889443516731262,-2.2143099308013916
1732873395775048200,6.733048095703125,-2.048994541168213,1.014649510383606,-1.9087172746658325
1732873395785058000,6.74305810546875,-1.6470146179199219,0.8565291166305542,-1.1297274827957153
1732873395795067600,6.753067626953125,-1.075547218322754,0.6941151022911072,-0.11043399572372437
1732873395805047000,6.763047119140625,-0.4853200912475586,0.5678082704544067,0.6322243213653564
1732873395815057000,6.773056884765625,-0.4313840866088867,0.4569520950317383,0.9597755074501038
1732873395825066500,6.78306640625,-0.6526813507080078,0.41187161207199097,0.8227388858795166
1732873395835046000,6.7930458984375,-0.5531578063964844,0.288699209690094,0.9352384805679321
1732873395845055700,6.8030556640625,-0.3819007873535156,0.035167813301086426,0.8491834402084351
1732873395855065300,6.8130654296875,-0.46920299530029297,-0.009260594844818115,0.4040865898132324
1732873395865044500,6.82304443359375,-0.5683174133300781,-0.10705804824829102,-0.02489149570465088
1732873395875054300,6.833054443359375,-0.7581586837768555,-0.2068042904138565,-0.037859559059143066
1732873395885064200,6.843064208984375,-0.9908933639526367,-0.16431570053100586,-0.04047536849975586
1732873395895043300,6.853043212890625,-0.6585397720336914,-0.011093735694885254,-0.10133105516433716
1732873395905053200,6.86305322265625,0.1742258071899414,0.26261839270591736,-0.18843886256217957
1732873395915063000,6.87306298828125,1.3613576889038086,0.4153040945529938,-0.3060608506202698
1732873395925072600,6.88307275390625,2.5417184829711914,0.5536623001098633,-0.19301968812942505
1732873395935052000,6.893052001953125,3.11453914642334,0.7012254595756531,-0.10655471682548523
1732873395945061600,6.9030615234375,3.745359420776367,0.9572077989578247,-0.09701758623123169
1732873395955071500,6.913071533203125,4.041470527648926,1.268718957901001,-0.09713190793991089
1732873395965051000,6.92305078125,3.605062484741211,1.557508945465088,0.14414045214653015
1732873395975060500,6.933060546875,2.3926048278808594,1.7636241912841797,0.7372037768363953
1732873395985070300,6.9430703125,1.4117326736450195,1.971367597579956,1.1564725637435913
1732873395995049500,6.953049560546875,0.22417354583740234,2.1782872676849365,1.5466208457946777
1732873396005059300,6.963059326171875,-0.6600131988525391,2.2751612663269043,1.8497235774993896
1732873396015069000,6.97306884765625,-1.5326499938964844,2.2244632244110107,2.0104334354400635
1732873396025048300,6.98304833984375,-1.7898979187011719,2.076108455657959,1.8974523544311523
1732873396035058200,6.99305810546875,-1.2253046035766602,1.7105413675308228,2.0908007621765137
1732873396045067800,7.00306787109375,-0.2655792236328125,1.190613031387329,2.34661865234375
1732873396055047200,7.013047119140625,0.7221708297729492,0.6846630573272705,2.647901773452759
1732873396065057000,7.02305712890625,1.4087591171264648,0.3797158896923065,2.9234256744384766
1732873396075066600,7.033066650390625,1.7698783874511719,0.32213228940963745,3.0962307453155518
1732873396085045800,7.043045654296875,1.5920295715332031,0.37983688712120056,2.7778472900390625
1732873396095055600,7.0530556640625,1.3266267776489258,0.5564855337142944,2.366725444793701
1732873396105065200,7.063065185546875,0.9044713973999023,0.8717522621154785,1.7277886867523193
1732873396115044600,7.073044677734375,0.38319969177246094,1.1872860193252563,1.2017039060592651
1732873396125054500,7.083054443359375,-0.22933673858642578,1.5037944316864014,0.4830966293811798
1732873396135064000,7.09306396484375,-0.6911325454711914,1.7741005420684814,0.246657595038414
1732873396145043500,7.10304345703125,-1.205423355102539,1.872633457183838,0.260145902633667
1732873396155053300,7.11305322265625,-1.5717697143554688,1.7809102535247803,0.42548078298568726
1732873396165063000,7.12306298828125,-1.6454133987426758,1.5426251888275146,1.0012199878692627
1732873396175072800,7.13307275390625,-1.5077667236328125,1.1638164520263672,1.2056128978729248
1732873396185052000,7.143052001953125,-1.2213001251220703,0.8230418562889099,1.146039605140686
1732873396195061800,7.153061767578125,-0.9106159210205078,0.4519989788532257,1.2576884031295776
1732873396205071400,7.1630712890625,-0.7194423675537109,0.08454205095767975,1.2386810779571533
1732873396215050800,7.17305078125,-0.4945354461669922,-0.15948203206062317,0.9592874646186829
1732873396225060600,7.183060546875,-0.1712503433227539,-0.25028637051582336,0.5900251269340515
1732873396235070200,7.1930703125,-0.0728158950805664,-0.2265649437904358,0.26200056076049805
1732873396245049600,7.203049560546875,-0.12752246856689453,-0.12300536781549454,0.0625971257686615
1732873396255059200,7.21305908203125,-0.3186311721801758,0.07025975733995438,-0.011546790599822998
1732873396265069000,7.223069091796875,-0.4330568313598633,0.2851184606552124,-0.05418801307678223
1732873396275048200,7.233048095703125,-0.5610466003417969,0.45710834860801697,-0.26621171832084656
1732873396285058000,7.24305810546875,-0.6284828186035156,0.5742533206939697,-0.3031877875328064
1732873396295067600,7.253067626953125,-0.6179399490356445,0.554393470287323,-0.31596511602401733
1732873396305047000,7.263047119140625,-0.4417381286621094,0.454408198595047,-0.21699917316436768
1732873396315056600,7.273056640625,-0.16713809967041016,0.37812188267707825,-0.07232226431369781
1732873396325066500,7.28306640625,-0.026998519897460938,0.12523597478866577,0.22080263495445251
1732873396335046000,7.2930458984375,0.0837564468383789,-0.17316269874572754,0.4934685528278351
1732873396345055700,7.3030556640625,0.19697189331054688,-0.43908143043518066,0.9100247621536255
1732873396355065300,7.3130654296875,0.11169147491455078,-0.6223245859146118,1.244814157485962
1732873396365044500,7.32304443359375,-0.042777061462402344,-0.6062971353530884,1.6807804107666016
1732873396375054300,7.333054443359375,-0.43166446685791016,-0.612743079662323,1.8174508810043335
1732873396385064200,7.343064208984375,-1.0215520858764648,-0.690100908279419,1.6347358226776123
1732873396395043300,7.353043212890625,-1.618098258972168,-0.6214116811752319,0.8197067379951477
1732873396405053200,7.36305322265625,-1.935457706451416,-0.4521442651748657,-0.022442316636443138
1732873396415063000,7.37306298828125,-1.7774286270141602,-0.012500584125518799,-0.6818422079086304
1732873396425072600,7.38307275390625,-1.1770076751708984,0.3760625123977661,-0.8658351302146912
1732873396435052000,7.393052001953125,-0.2322835922241211,0.6723166108131409,-0.727912962436676
1732873396445062000,7.403061767578125,0.32917213439941406,0.7999305725097656,-0.8131110072135925
1732873396455071500,7.413071533203125,0.6417140960693359,0.7624302506446838,-1.197209358215332
1732873396465051000,7.42305078125,0.7557945251464844,0.7208505868911743,-1.6501400470733643
1732873396475060500,7.433060546875,0.9780244827270508,0.6714671850204468,-2.1566901206970215
1732873396485070300,7.4430703125,1.5549077987670898,0.6490424275398254,-2.5678951740264893
1732873396495049500,7.453049560546875,2.5152416229248047,0.673633873462677,-2.7317559719085693
1732873396505059300,7.463059326171875,3.3922204971313477,0.5924767851829529,-2.683748960494995
1732873396515069000,7.47306884765625,4.073330879211426,0.531306803226471,-2.610145330429077
1732873396525048300,7.48304833984375,4.606337547302246,0.74140864610672,-2.649336814880371
1732873396535058200,7.49305810546875,4.837614059448242,1.1457254886627197,-2.760850429534912
1732873396545067800,7.50306787109375,4.915382385253906,1.6948530673980713,-2.6745386123657227
1732873396555047200,7.513047119140625,4.434703826904297,2.0551698207855225,-2.207764148712158
1732873396565057000,7.52305712890625,3.35943603515625,2.3566911220550537,-1.4968929290771484
1732873396575066600,7.533066650390625,2.3313045501708984,2.490459680557251,-0.8103743195533752
1732873396585045800,7.543045654296875,1.056112289428711,2.6039986610412598,-0.14991430938243866
1732873396595055600,7.5530556640625,-0.15216732025146484,2.5080556869506836,0.37529832124710083
1732873396605065200,7.563065185546875,-1.2955780029296875,2.2955641746520996,0.8042840361595154
1732873396615044600,7.573044677734375,-2.0242719650268555,1.9981008768081665,1.0175161361694336
1732873396625054500,7.583054443359375,-2.467442512512207,1.7730454206466675,1.0656802654266357
1732873396635064000,7.59306396484375,-2.7544960975646973,1.522541880607605,0.6285563111305237
1732873396645043500,7.60304345703125,-2.626821994781494,1.2720615863800049,0.27523931860923767
1732873396655053300,7.61305322265625,-2.103945732116699,0.8670864105224609,-0.0024349987506866455
1732873396665063000,7.62306298828125,-1.5763006210327148,0.36943328380584717,0.1696576178073883
1732873396675072800,7.63307275390625,-1.1301498413085938,-0.08372345566749573,0.44049593806266785
1732873396685052000,7.643052001953125,-0.9786148071289062,-0.37702032923698425,0.725292444229126
1732873396695061500,7.6530615234375,-0.9682521820068359,-0.5419415235519409,1.0394517183303833
1732873396705071400,7.6630712890625,-1.0869884490966797,-0.5297103524208069,1.2517658472061157
1732873396715050800,7.67305078125,-1.2868728637695312,-0.4614463448524475,0.9965841770172119
1732873396725060400,7.683060302734375,-1.3069868087768555,-0.12629541754722595,0.1680019199848175
1732873396735070200,7.6930703125,-1.2000951766967773,0.14579439163208008,-0.6571504473686218
1732873396745049600,7.703049560546875,-0.9686794281005859,0.3461681306362152,-1.292220115661621
1732873396755059500,7.7130595703125,-0.9000463485717773,0.48593902587890625,-1.5060155391693115
1732873396765069000,7.723069091796875,-1.0227775573730469,0.5182856321334839,-1.4892382621765137
1732873396775048200,7.733048095703125,-1.2410507202148438,0.4598512053489685,-1.155489206314087
1732873396785058000,7.74305810546875,-1.8254780769348145,0.3028485178947449,-0.7340484261512756
1732873396795067600,7.753067626953125,-2.0962605476379395,0.1265079379081726,-0.4009335935115814
1732873396805047000,7.763047119140625,-1.9268603324890137,-0.055049240589141846,-0.3656463325023651
1732873396815057000,7.773056884765625,-1.3821849822998047,-0.17947226762771606,-0.4172501564025879
1732873396825066500,7.78306640625,-0.8214273452758789,-0.17739653587341309,-0.736364483833313
1732873396835046000,7.7930458984375,-0.19663524627685547,0.008195161819458008,-0.9442462921142578
1732873396845055700,7.8030556640625,0.1358776092529297,0.19202154874801636,-0.950847327709198
1732873396855065300,7.8130654296875,0.12847518920898438,0.41822612285614014,-0.8742613196372986
1732873396865044700,7.823044677734375,-0.508336067199707,0.451690137386322,-0.94692462682724
1732873396875054300,7.833054443359375,-1.358016014099121,0.4794856905937195,-1.2886426448822021
1732873396885064200,7.843064208984375,-1.8750877380371094,0.4727643132209778,-1.8324018716812134
1732873396895043300,7.853043212890625,-1.5261878967285156,0.31386512517929077,-2.0937089920043945
1732873396905053200,7.86305322265625,-0.7026758193969727,0.10645049810409546,-1.820887804031372
1732873396915062800,7.873062744140625,0.48132896423339844,-0.08146989345550537,-1.2940006256103516
1732873396925072600,7.88307275390625,1.6888961791992188,-0.20374813675880432,-0.5342045426368713
1732873396935052000,7.893052001953125,2.5902318954467773,-0.2707326412200928,0.3251264989376068
1732873396945061600,7.9030615234375,2.723806381225586,-0.2528204619884491,0.7503846883773804
1732873396955071500,7.913071533203125,2.214249610900879,-0.07830137014389038,0.8278289437294006
1732873396965051000,7.92305078125,1.3966779708862305,0.2653859555721283,0.7611467838287354
1732873396975060500,7.933060546875,0.3092994689941406,0.5242131948471069,0.4849013686180115
1732873396985070300,7.9430703125,-0.5121221542358398,0.7819448709487915,0.19700336456298828
1732873396995049500,7.953049560546875,-0.6058034896850586,0.8802063465118408,0.18394458293914795
1732873397005059300,7.963059326171875,-0.33344364166259766,0.7800060510635376,0.24033334851264954
1732873397015069000,7.97306884765625,0.3290262222290039,0.6560095548629761,0.3080756664276123
1732873397025048300,7.98304833984375,1.333648681640625,0.5066716074943542,0.5001087784767151
1732873397035058200,7.99305810546875,1.967240333557129,0.3909187912940979,0.7200728058815002
1732873397045067800,8.00306787109375,2.3329038619995117,0.3065962493419647,0.7527225613594055
1732873397055047200,8.013047119140625,2.457034111022949,0.3793356716632843,0.5546748638153076
1732873397065057000,8.02305712890625,2.4400711059570312,0.4909759759902954,0.3036095201969147
1732873397075066600,8.033066650390625,2.2197227478027344,0.6273136138916016,-0.04463205114006996
1732873397085045800,8.043045654296876,2.009047508239746,0.7581303119659424,-0.3097059726715088
1732873397095055600,8.0530556640625,1.5087604522705078,0.8991199731826782,-0.4907777011394501
1732873397105065200,8.063065185546876,0.7715549468994141,1.0415096282958984,-0.712599515914917
1732873397115044600,8.073044677734375,0.12787246704101562,1.1477469205856323,-0.7409923076629639
1732873397125054500,8.083054443359375,-0.3456602096557617,1.1293635368347168,-0.5360910892486572
1732873397135064300,8.093064208984375,-0.8669538497924805,1.055441975593567,-0.13998068869113922
1732873397145043500,8.10304345703125,-1.0624828338623047,0.9967832565307617,0.13486884534358978
1732873397155053300,8.11305322265625,-0.9730148315429688,0.8775080442428589,0.376537561416626
1732873397165063200,8.123063232421876,-1.010361671447754,0.7932233214378357,0.45646458864212036
1732873397175072800,8.13307275390625,-0.9015922546386719,0.7343462109565735,0.3358162045478821
1732873397185052000,8.143052001953125,-0.9148654937744141,0.6502136588096619,0.11002486944198608
1732873397195061500,8.1530615234375,-1.0844850540161133,0.29142653942108154,-0.07520520687103271
1732873397205071400,8.1630712890625,-1.291132926940918,0.07315278053283691,-0.07015208899974823
1732873397215050800,8.17305078125,-1.5716266632080078,-0.03054291009902954,-0.16460245847702026
1732873397225060600,8.183060546875,-1.2055330276489258,-0.20963901281356812,-0.03249915689229965
1732873397235070200,8.1930703125,-0.8071260452270508,-0.42244455218315125,0.2898493707180023
1732873397245049600,8.203049560546875,-0.45021820068359375,-0.7400819063186646,0.7077887058258057
1732873397255059200,8.21305908203125,-0.2655792236328125,-0.9017940759658813,1.0625362396240234
1732873397265069000,8.223069091796875,-0.2676734924316406,-0.9626912474632263,1.2032121419906616
1732873397275048200,8.233048095703126,-0.5237932205200195,-0.8714765906333923,0.884391725063324
1732873397285058000,8.24305810546875,-0.696476936340332,-0.6414362192153931,0.44898703694343567
1732873397295067600,8.253067626953126,-0.8557014465332031,-0.32417044043540955,0.00620800256729126
1732873397305047000,8.263047119140625,-0.9901266098022461,-0.11624372005462646,-0.1736178994178772
1732873397315056600,8.273056640625,-1.525766372680664,0.03938794136047363,-0.18156185746192932
1732873397325066500,8.28306640625,-1.9008779525756836,0.031421959400177,-0.333034873008728
1732873397335046000,8.2930458984375,-0.9337940216064453,-0.20955246686935425,-0.19260326027870178
1732873397345055700,8.3030556640625,-0.14381980895996094,-0.6916527152061462,0.30631330609321594
1732873397355065300,8.3130654296875,0.516749382019043,-1.4858226776123047,1.101125717163086
1732873397365044700,8.323044677734375,0.6636285781860352,-1.7837591171264648,1.188879370689392
1732873397375054300,8.333054443359375,0.21813201904296875,-1.7699785232543945,0.6263159513473511
1732873397385064200,8.343064208984375,-0.7549667358398438,-1.1308870315551758,0.000873073935508728
1732873397395043300,8.353043212890626,-1.8798542022705078,-0.6456510424613953,-0.28059524297714233
1732873397405053200,8.36305322265625,-2.7361063957214355,-0.4075052738189697,-1.2147849798202515
1732873397415063000,8.37306298828125,-2.3390450477600098,0.10600900650024414,-1.8163515329360962
1732873397425072600,8.38307275390625,-1.7085819244384766,0.5122718811035156,-1.5741195678710938
1732873397435052000,8.393052001953125,-1.5724220275878906,0.6597252488136292,-1.4452385902404785
1732873397445062000,8.403061767578125,-1.298579216003418,0.48995089530944824,-1.147619605064392
1732873397455071500,8.413071533203125,-1.1578140258789062,0.1254749298095703,-0.8150614500045776
1732873397465051000,8.42305078125,-1.1474084854125977,-0.42031070590019226,-0.39504775404930115
1732873397475060700,8.433060791015626,-1.0343618392944336,-0.8017659187316895,-0.16362959146499634
1732873397485070300,8.4430703125,-0.1646890640258789,-0.6104829907417297,-0.2990773022174835
1732873397495049500,8.453049560546875,0.25294017791748047,-0.4688178300857544,-0.6194079518318176
1732873397505059300,8.463059326171875,0.9087696075439453,-0.1862381547689438,-0.9314996600151062
1732873397515069000,8.47306884765625,1.5158119201660156,0.44906744360923767,-1.173954725265503
1732873397525048300,8.48304833984375,1.8924102783203125,1.0362699031829834,-1.435994267463684
1732873397535058200,8.49305810546875,1.8944826126098633,1.604128122329712,-1.7684928178787231
1732873397545067800,8.50306787109375,1.7565460205078125,2.031261920928955,-1.921286702156067
1732873397555047200,8.513047119140625,1.4923934936523438,2.070504665374756,-2.014852285385132
1732873397565057000,8.52305712890625,1.1845970153808594,1.6954028606414795,-1.8297932147979736
1732873397575066600,8.533066650390625,1.0583925247192383,1.0869566202163696,-1.4214977025985718
1732873397585045800,8.543045654296876,1.1449995040893555,0.593092679977417,-1.3162262439727783
1732873397595055600,8.5530556640625,1.2605104446411133,0.5515462756156921,-2.289588689804077
1732873397605065200,8.563065185546876,1.6833000183105469,0.48452693223953247,-2.717177629470825
1732873397615044600,8.573044677734375,2.8974952697753906,0.585415780544281,-2.9055724143981934
1732873397625054500,8.583054443359375,3.8253087997436523,0.6713691353797913,-3.0643885135650635
1732873397635064000,8.59306396484375,4.028802871704102,0.803489089012146,-2.914598226547241
1732873397645043500,8.60304345703125,3.9068737030029297,1.1478427648544312,-2.710540533065796
1732873397655053300,8.61305322265625,3.478133201599121,1.471230149269104,-2.4826197624206543
1732873397665063000,8.62306298828125,2.7134628295898438,1.8289635181427002,-2.221062183380127
1732873397675072800,8.63307275390625,2.134737014770508,1.9913034439086914,-1.641493558883667
1732873397685052000,8.643052001953125,1.2152223587036133,1.8426940441131592,-1.3552405834197998
1732873397695061500,8.6530615234375,0.35946083068847656,1.6866919994354248,-0.8933504223823547
1732873397705071400,8.6630712890625,0.022040367126464844,1.2317149639129639,-0.22736668586730957
1732873397715050800,8.67305078125,-0.6801900863647461,0.6109598278999329,0.6525968313217163
1732873397725060400,8.683060302734376,-1.3962697982788086,0.13059008121490479,0.8830807209014893
1732873397735070200,8.6930703125,-1.6780099868774414,-0.326326847076416,1.3597182035446167
1732873397745049600,8.703049560546875,-1.9206581115722656,-0.8114461302757263,1.3913018703460693
1732873397755059500,8.7130595703125,-1.964181900024414,-0.9613683223724365,1.08455491065979
1732873397765069000,8.723069091796875,-1.7080249786376953,-0.9419045448303223,0.7280434370040894
1732873397775048200,8.733048095703126,-1.4323558807373047,-0.7823826670646667,0.05172312259674072
1732873397785058000,8.74305810546875,-1.2138395309448242,-0.5492010116577148,-0.4920148253440857
1732873397795067600,8.753067626953126,-1.2152433395385742,-0.3068596422672272,-0.9548361301422119
1732873397805047000,8.763047119140625,-1.2448453903198242,-0.1583726704120636,-1.1128559112548828
1732873397815057000,8.773056884765625,-1.1877412796020508,-0.021924078464508057,-1.1864514350891113
1732873397825066500,8.78306640625,-0.9005184173583984,0.1255880892276764,-1.2522103786468506
1732873397835046000,8.7930458984375,-0.7449731826782227,0.3193395733833313,-1.4778540134429932
1732873397845055700,8.8030556640625,-1.168985366821289,0.8158025741577148,-2.1613621711730957
1732873397855065300,8.8130654296875,-1.3070249557495117,1.1528081893920898,-3.0619778633117676
1732873397865044700,8.823044677734375,-0.9771556854248047,1.2102071046829224,-3.4792370796203613
1732873397875054300,8.833054443359375,-0.3944225311279297,0.9483419060707092,-3.1139354705810547
1732873397885064200,8.843064208984375,-0.008160591125488281,0.38242435455322266,-2.3143739700317383
1732873397895043300,8.853043212890626,-0.11380290985107422,-0.24405598640441895,-1.4834074974060059
1732873397905053200,8.86305322265625,-0.6099357604980469,-0.7957683205604553,-0.6675013899803162
1732873397915062800,8.873062744140626,-1.0422191619873047,-1.1873831748962402,-0.08528867363929749
1732873397925072600,8.88307275390625,-1.5427961349487305,-1.359670639038086,0.11481848359107971
1732873397935052000,8.893052001953125,-1.6669921875,-1.341723918914795,0.07100677490234375
1732873397945061600,8.9030615234375,-1.7361669540405273,-1.2493230104446411,-0.45136940479278564
1732873397955071500,8.913071533203125,-1.458383560180664,-0.8573413491249084,-1.4958162307739258
1732873397965042200,8.923042236328126,-0.6877670288085938,-0.1867661476135254,-3.1006898880004883
1732873397975051800,8.9330517578125,0.04418182373046875,0.31068265438079834,-4.078852653503418
1732873397985061600,8.9430615234375,0.8143806457519531,0.29123836755752563,-3.891657829284668
1732873397995040800,8.953040771484375,1.5967016220092773,0.18272104859352112,-3.3651716709136963
1732873398005050600,8.963050537109375,1.4959115982055664,0.24557146430015564,-2.855985641479492
1732873398015060200,8.973060302734375,1.261301040649414,0.4269764721393585,-2.55684494972229
1732873398025039600,8.98303955078125,1.0842304229736328,0.39407163858413696,-1.850927472114563
1732873398035049500,8.993049560546876,0.80645751953125,0.30095675587654114,-0.7265289425849915
1732873398045059000,9.00305908203125,0.8040008544921875,0.5157148838043213,0.03221265226602554
1732873398055038500,9.01303857421875,0.6724233627319336,0.9015715718269348,0.1983458697795868
1732873398065048300,9.02304833984375,0.25854969024658203,1.187596082687378,-0.15779763460159302
1732873398075058000,9.033057861328125,-0.23888874053955078,1.4752728939056396,-0.8956872820854187
1732873398085037000,9.043037109375,-0.7341108322143555,1.744591236114502,-1.7971912622451782
1732873398094617900,9.052617919921875,-0.6048498153686523,1.7067217826843262,-2.1508913040161133
1732873398105056500,9.063056396484376,-0.03300762176513672,1.2006518840789795,-1.2406224012374878
1732873398115036000,9.073035888671875,0.9809513092041016,0.5915688276290894,-0.12906529009342194
1732873398125045800,9.083045654296875,1.963252067565918,0.13548853993415833,0.8066530227661133
1732873398135055600,9.0930556640625,2.754140853881836,-0.07792575657367706,1.3742278814315796
1732873398145034800,9.10303466796875,3.5718984603881836,-0.17664358019828796,1.646789789199829
1732873398155044600,9.113044677734376,3.3942298889160156,-0.20716169476509094,1.636476993560791
1732873398165054500,9.123054443359376,2.8243560791015625,-0.18691620230674744,1.368770956993103
1732873398175064000,9.13306396484375,2.1374435424804688,-0.019450023770332336,0.9744696021080017
1732873398185043200,9.143043212890625,1.3908615112304688,0.15739569067955017,0.4967232346534729
1732873398195053000,9.153052978515625,0.30449962615966797,0.32561132311820984,-0.1385447084903717
1732873398205062700,9.163062744140625,-0.6308021545410156,0.585076630115509,-0.5114544034004211
1732873398215042000,9.1730419921875,-1.2593793869018555,0.7391970157623291,-0.5640251636505127
1732873398225052000,9.183052001953126,-1.6243867874145508,0.5724562406539917,-0.0929885134100914
1732873398235061500,9.1930615234375,-1.9150185585021973,0.290201872587204,0.7362721562385559
1732873398245041000,9.203041015625,-1.7937297821044922,0.251509428024292,0.7599307298660278
1732873398255050800,9.21305078125,-1.4570951461791992,0.26474714279174805,0.5426514148712158
1732873398265060400,9.223060302734375,-1.0511255264282227,0.22777292132377625,0.3966406285762787
1732873398275039500,9.23303955078125,-0.8032474517822266,0.24401170015335083,0.1469704955816269
1732873398285049300,9.24304931640625,-0.8977279663085938,0.5303657054901123,-0.37431782484054565
1732873398295376600,9.253376708984375,-1.0375566482543945,0.7640184760093689,-0.42233943939208984
1732873398305068800,9.26306884765625,-1.1078166961669922,0.8324886560440063,-0.059219516813755035
1732873398315048200,9.273048095703125,-1.3145828247070312,0.7699319124221802,0.21367129683494568
1732873398325057800,9.283057861328125,-1.2150192260742188,0.6294458508491516,0.44559818506240845
1732873398335037200,9.293037109375,-0.9815282821655273,0.44183701276779175,0.47452205419540405
1732873398345047000,9.303047119140626,-0.6444549560546875,0.4014773964881897,0.02703075110912323
1732873398355056600,9.313056640625,-0.25366783142089844,0.26694631576538086,-0.5797722339630127
1732873398365035800,9.323035888671875,0.4546995162963867,-0.08079570531845093,-0.4675062298774719
1732873398375045600,9.333045654296875,1.1766119003295898,-0.4974287450313568,0.23191404342651367
1732873398385055500,9.343055419921875,1.4941434860229492,-0.7433957457542419,0.6188511848449707
1732873398395034600,9.35303466796875,1.2124013900756836,-0.6271330118179321,0.49934107065200806
1732873398405044500,9.36304443359375,0.6392250061035156,-0.5681139230728149,0.22701075673103333
1732873398415054300,9.373054443359376,0.05878734588623047,-0.5365599989891052,0.09437733888626099
1732873398425064000,9.38306396484375,-0.2595386505126953,-0.2764822244644165,-0.18321721255779266
1732873398435043300,9.393043212890625,-0.333984375,-0.22448664903640747,-0.6229807138442993
1732873398445053200,9.40305322265625,-0.2204751968383789,-0.3756366968154907,-0.698798656463623
1732873398455062800,9.413062744140625,0.02057933807373047,-0.6408756971359253,-0.694957971572876
1732873398465042200,9.423042236328126,0.3905630111694336,-0.7264567613601685,-0.6204178333282471
1732873398475051800,9.4330517578125,0.5617733001708984,-0.7097013592720032,-0.521791398525238
1732873398485061600,9.4430615234375,0.06048774719238281,-0.6966655254364014,-0.5921640396118164
1732873398495040800,9.453040771484375,-0.7013053894042969,-0.4757595360279083,-0.993953287601471
1732873398505050600,9.463050537109375,-1.6107807159423828,-0.2886369228363037,-1.3866459131240845
1732873398515060200,9.473060302734375,-2.3177499771118164,-0.17027461528778076,-1.315763235092163
1732873398525039600,9.48303955078125,-2.7031002044677734,-0.27135616540908813,-1.128890872001648
1732873398535049500,9.493049560546876,-2.444181442260742,-0.36033356189727783,-0.32918089628219604
1732873398545059000,9.50305908203125,-1.4832382202148438,-0.6569103598594666,0.5531317591667175
1732873398555038500,9.51303857421875,-0.21453285217285156,-0.9528733491897583,1.2901763916015625
1732873398565048300,9.52304833984375,0.8628215789794922,-1.0118019580841064,1.7553942203521729
1732873398575058000,9.533057861328125,1.4624204635620117,-0.854771077632904,1.8591432571411133
1732873398585037000,9.543037109375,1.5872917175292969,-0.5260037183761597,1.851733684539795
1732873398595047000,9.553046875,0.8049230575561523,-0.03343403339385986,1.3373167514801025
1732873398605056500,9.563056396484376,-0.5039825439453125,0.5208571553230286,0.5222548246383667
1732873398615036000,9.573035888671875,-2.04007625579834,1.0838115215301514,-0.539539635181427
1732873398625045800,9.583045654296875,-2.7667107582092285,1.3824477195739746,-1.2755935192108154
1732873398635055400,9.593055419921875,-3.1726832389831543,1.5748859643936157,-1.6016323566436768
1732873398645034800,9.60303466796875,-3.114655017852783,1.5950686931610107,-1.6426488161087036
1732873398655044600,9.613044677734376,-2.353545665740967,1.2504820823669434,-1.6300091743469238
1732873398665054200,9.62305419921875,-1.1482534408569336,0.8559073209762573,-1.3698666095733643
1732873398675064000,9.63306396484375,0.34699058532714844,0.5043599605560303,-1.257327675819397
1732873398685043200,9.643043212890625,1.5154542922973633,0.4044663906097412,-1.3738489151000977
1732873398695052800,9.653052734375,2.8868045806884766,0.40911388397216797,-1.1081089973449707
1732873398705062700,9.663062744140625,4.190666198730469,0.3911643326282501,-0.5861634016036987
1732873398715042000,9.6730419921875,4.86415958404541,0.5033108592033386,-0.2436114400625229
1732873398725051600,9.6830517578125,4.581040382385254,0.7620788812637329,-0.04558902978897095
1732873398735061500,9.6930615234375,3.7951927185058594,1.0169785022735596,-0.09691405296325684
1732873398745041000,9.703041015625,2.6713685989379883,1.0456569194793701,-0.15226715803146362
1732873398755050800,9.71305078125,1.6641883850097656,1.06510329246521,-0.16222837567329407
1732873398765060400,9.723060302734375,0.9218683242797852,0.9116408824920654,-0.24835720658302307
1732873398775039500,9.73303955078125,0.45390796661376953,0.7806011438369751,-0.507080614566803
1732873398785049300,9.74304931640625,-0.09164619445800781,0.7209079265594482,-0.9983665943145752
1732873398795059000,9.753058837890626,-0.554295539855957,0.7063354253768921,-1.431145429611206
1732873398805038300,9.763038330078125,-0.9699058532714844,0.6973875761032104,-1.7363145351409912
1732873398815048200,9.773048095703125,-1.2760839462280273,0.48449844121932983,-2.1056909561157227
1732873398825057800,9.783057861328125,-1.4940786361694336,0.2745220363140106,-2.3184256553649902
1732873398835037200,9.793037109375,-1.7479057312011719,0.11076074093580246,-2.3698365688323975
1732873398845047000,9.803047119140626,-1.718698501586914,0.053439900279045105,-2.218784809112549
1732873398855056600,9.813056640625,-1.471221923828125,0.0889245942234993,-1.9075613021850586
1732873398865036000,9.8230361328125,-1.364558219909668,0.04356551542878151,-1.6582319736480713
1732873398875045600,9.833045654296875,-0.9609613418579102,-0.15768776834011078,-0.9854300022125244
1732873398885055500,9.843055419921875,-0.3240985870361328,-0.3383924663066864,-0.4442368149757385
1732873398895034600,9.85303466796875,0.43290138244628906,-0.6077684760093689,-0.030970990657806396
1732873398905044500,9.86304443359375,1.0129642486572266,-0.7131091952323914,-0.04637974500656128
1732873398915054000,9.87305419921875,1.507028579711914,-0.736796498298645,-0.15421231091022491
1732873398925064000,9.88306396484375,1.7641162872314453,-0.7616140246391296,-0.20059716701507568
1732873398935043300,9.893043212890625,1.7169275283813477,-0.8467978239059448,-0.24952521920204163
1732873398945053000,9.903052978515625,1.3294649124145508,-0.6476172208786011,-0.8419309854507446
1732873398955062800,9.913062744140625,0.831324577331543,-0.35178032517433167,-1.2191026210784912
1732873398965042200,9.923042236328126,0.14857864379882812,-0.10807780921459198,-1.5686464309692383
1732873398975051800,9.9330517578125,-0.47186946868896484,0.06141430884599686,-2.003634214401245
1732873398985061600,9.9430615234375,-0.8170137405395508,0.12211918830871582,-2.06887149810791
1732873398995040800,9.953040771484375,-0.8441848754882812,-0.11144126951694489,-1.735900640487671
1732873399005050600,9.963050537109375,-0.5624303817749023,-0.4641825556755066,-1.5453827381134033
1732873399015060200,9.973060302734375,0.08825492858886719,-0.724526584148407,-1.3283816576004028
1732873399025039600,9.98303955078125,1.1541748046875,-0.9221367239952087,-0.9705303907394409
1732873399035049500,9.993049560546876,2.129638671875,-1.040305733680725,-0.5842906832695007
1732873399045059000,10.00305908203125,2.5764341354370117,-0.9544841051101685,-0.21939364075660706
1732873399055038500,10.01303857421875,2.400803565979004,-0.6600111722946167,0.0838196873664856
1732873399065048300,10.02304833984375,1.7314777374267578,-0.05917177349328995,0.033445507287979126
1732873399075058000,10.033057861328125,0.8146190643310547,0.7375569343566895,-0.544934868812561
1732873399085037000,10.043037109375,-0.11267757415771484,1.5095518827438354,-1.152480125427246
1732873399095047000,10.053046875,-1.052372932434082,2.2174673080444336,-1.4168776273727417
1732873399105056500,10.063056396484376,-1.6567020416259766,2.5248165130615234,-1.4082657098770142
1732873399115036000,10.073035888671875,-1.7961654663085938,2.5018270015716553,-0.8936910629272461
1732873399125045800,10.083045654296875,-1.5285053253173828,2.16817307472229,-0.21783554553985596
1732873399135055600,10.0930556640625,-0.8818979263305664,1.578856110572815,0.648675262928009
1732873399145034800,10.10303466796875,-0.5079841613769531,1.088738203048706,1.2651121616363525
1732873399155044600,10.113044677734376,-0.37335872650146484,0.6999626159667969,1.4382803440093994
1732873399165054500,10.123054443359376,-0.30344104766845703,0.5330926179885864,1.2371255159378052
1732873399175064000,10.13306396484375,-0.09248828887939453,0.5911149382591248,0.716641902923584
1732873399185043200,10.143043212890625,0.2068634033203125,0.8819897770881653,0.021331995725631714
1732873399195053000,10.153052978515625,0.5085506439208984,1.0971770286560059,-0.24950288236141205
1732873399205062700,10.163062744140625,0.6401920318603516,1.017547845840454,-0.20957694947719574
1732873399215042000,10.1730419921875,0.6682033538818359,0.49001938104629517,-0.14018473029136658
1732873399225052000,10.183052001953126,0.6252107620239258,0.2078443169593811,-0.17884835600852966
1732873399235061500,10.1930615234375,0.5240650177001953,-0.04424309730529785,-0.17595961689949036
1732873399245041000,10.203041015625,0.40764331817626953,-0.2588696777820587,-0.047110408544540405
1732873399255050800,10.21305078125,0.20051288604736328,-0.37575310468673706,0.003615349531173706
1732873399265060400,10.223060302734375,-0.011208534240722656,-0.47078290581703186,0.008859723806381226
1732873399275039500,10.23303955078125,-0.23006153106689453,-0.5299263596534729,0.11163663864135742
1732873399285049000,10.243049072265626,-0.5638875961303711,-0.4211506247520447,-0.13975030183792114
1732873399295059000,10.253058837890626,-1.1441946029663086,-0.24132966995239258,-0.6154823303222656
1732873399305038300,10.263038330078125,-1.597336769104004,-0.22998493909835815,-0.9809116125106812
1732873399315048200,10.273048095703125,-1.8706111907958984,-0.21790450811386108,-1.0585447549819946
1732873399325057800,10.283057861328125,-1.926116943359375,-0.2681904435157776,-1.0017776489257812
1732873399335037200,10.293037109375,-1.9411625862121582,-0.3141867518424988,-1.0028586387634277
1732873399345046800,10.303046875,-1.554579734802246,-0.3909073770046234,-0.9436011910438538
1732873399355056600,10.313056640625,-0.6469535827636719,-0.5348963737487793,-0.6470580697059631
1732873399365036000,10.3230361328125,0.0803689956665039,-0.7375667691230774,-0.30607807636260986
1732873399375045600,10.333045654296875,0.4674701690673828,-0.8358035087585449,-0.11003056168556213
1732873399385055500,10.343055419921875,0.7468967437744141,-1.0570764541625977,0.1038413792848587
1732873399395034600,10.35303466796875,0.8872318267822266,-1.1701403856277466,0.09606081247329712
1732873399405044500,10.36304443359375,0.9892282485961914,-1.16185462474823,-0.19427496194839478
1732873399415054300,10.373054443359376,1.1967058181762695,-1.0792204141616821,-0.5865681767463684
1732873399425064000,10.38306396484375,1.5480871200561523,-1.0834686756134033,-0.7331092357635498
1732873399435043300,10.393043212890625,1.80718994140625,-0.8658531308174133,-0.6034108996391296
1732873399445053200,10.40305322265625,1.4906978607177734,-0.6567765474319458,-0.38966622948646545
1732873399455062800,10.413062744140625,0.8268108367919922,-0.567545473575592,-0.106742262840271
1732873399465042200,10.423042236328126,0.06487751007080078,-0.5969146490097046,0.34647154808044434
1732873399475052000,10.433052001953126,-0.7540531158447266,-0.679984450340271,0.7927314043045044
1732873399485061600,10.4430615234375,-1.165818214416504,-0.7891818881034851,1.3565890789031982
1732873399495040800,10.453040771484375,-1.7332391738891602,-0.9049129486083984,1.669805884361267
1732873399505050600,10.463050537109375,-2.1691789627075195,-0.9581654071807861,1.5591824054718018
1732873399515060200,10.473060302734375,-2.227421760559082,-0.8363157510757446,0.9036518335342407
1732873399525039600,10.48303955078125,-1.967851161956787,-0.6085242033004761,0.07984033972024918
1732873399535049500,10.493049560546876,-1.251847267150879,-0.479947566986084,-0.5776083469390869
1732873399545059000,10.50305908203125,-0.47501468658447266,-0.5289793014526367,-0.9056617021560669
1732873399555038500,10.51303857421875,0.6219587326049805,-0.45902562141418457,-1.4191697835922241
1732873399565048300,10.52304833984375,1.4576997756958008,-0.2229228913784027,-1.7071614265441895
1732873399575058000,10.533057861328125,1.6519737243652344,0.046005845069885254,-1.8741395473480225
1732873399585037000,10.543037109375,1.4469900131225586,0.29737788438796997,-1.6127009391784668
1732873399595047000,10.553046875,0.9002771377563477,0.33260631561279297,-1.1792433261871338
1732873399605056500,10.563056396484376,0.1672649383544922,0.38970810174942017,-0.9852330088615417
1732873399615036000,10.573035888671875,0.07118606567382812,0.5071184039115906,-0.9001291394233704
1732873399625045800,10.583045654296875,0.43213558197021484,0.5480438470840454,-0.8695390224456787
1732873399635055400,10.593055419921875,0.908869743347168,0.5788799524307251,-0.72666996717453
1732873399645034800,10.60303466796875,1.3398151397705078,0.6858275532722473,-0.7906262874603271
1732873399655044600,10.613044677734376,1.6752252578735352,0.6054414510726929,-0.7080383896827698
1732873399665054200,10.62305419921875,2.061264991760254,0.5443285703659058,-0.7517222166061401
1732873399675064000,10.63306396484375,2.2940406799316406,0.45982468128204346,-0.747205913066864
1732873399685043200,10.643043212890625,2.4476728439331055,0.30689534544944763,-0.8512514233589172
1732873399695052800,10.653052734375,2.5653839111328125,0.1457047462463379,-0.7282965779304504
1732873399705062700,10.663062744140625,2.5179996490478516,-0.004186570644378662,-0.47996604442596436
1732873399715042000,10.6730419921875,2.1261043548583984,-0.12323883175849915,-0.30068308115005493
1732873399725051600,10.6830517578125,1.7417993545532227,-0.15555329620838165,-0.21464449167251587
1732873399735061500,10.6930615234375,1.3268957138061523,-0.21858003735542297,-0.0569646954536438
1732873399745041000,10.703041015625,0.7115240097045898,-0.3363240957260132,0.17388364672660828
1732873399755050800,10.71305078125,-0.07546329498291016,-0.40689632296562195,0.28677085041999817
1732873399765060400,10.723060302734375,-0.7796459197998047,-0.4668697118759155,0.2506405711174011
1732873399775039500,10.73303955078125,-1.4971046447753906,-0.5338666439056396,0.10562571883201599
1732873399785049300,10.74304931640625,-1.9118499755859375,-0.5127425193786621,-0.32789528369903564
1732873399795059000,10.753058837890626,-2.1677088737487793,-0.48462074995040894,-0.9396438002586365
1732873399805038300,10.763038330078125,-2.382513999938965,-0.5220038890838623,-1.3917908668518066
1732873399815048200,10.773048095703125,-2.4970197677612305,-0.5775955319404602,-1.5546395778656006
1732873399825057800,10.783057861328125,-2.536044120788574,-0.6184015870094299,-1.6601569652557373
1732873399835037200,10.793037109375,-2.429429054260254,-0.4759253263473511,-1.6880353689193726
1732873399845047000,10.803047119140626,-2.0133309364318848,-0.34142404794692993,-1.6127113103866577
1732873399855056600,10.813056640625,-1.6751060485839844,-0.3395983576774597,-1.5431196689605713
1732873399865036000,10.8230361328125,-1.1411457061767578,-0.4019244313240051,-1.3468496799468994
1732873399875045600,10.833045654296875,-0.5713624954223633,-0.5121336579322815,-0.9191128015518188
1732873399885055500,10.843055419921875,-0.1808605194091797,-0.7520513534545898,-0.3498044013977051
1732873399895035000,10.853034912109376,-0.06026172637939453,-0.8546974658966064,-0.07371479272842407
1732873399905044500,10.86304443359375,-0.2908773422241211,-0.8960689306259155,-0.1350935399532318
1732873399915054000,10.87305419921875,-0.47038745880126953,-0.9779337644577026,-0.41669297218322754
1732873399925064000,10.88306396484375,-0.3240976333618164,-1.0805573463439941,-0.8706152439117432
1732873399935043300,10.893043212890625,-0.10146141052246094,-1.2000709772109985,-1.1516889333724976
1732873399945053000,10.903052978515625,0.2618293762207031,-1.4058072566986084,-1.2677090167999268
1732873399955062800,10.913062744140625,0.9116477966308594,-1.5094568729400635,-1.4347076416015625
1732873399965042200,10.923042236328126,1.462742805480957,-1.4366776943206787,-1.513879656791687
1732873399975051800,10.9330517578125,1.7603092193603516,-1.390712022781372,-1.366805911064148
1732873399985061600,10.9430615234375,1.5946340560913086,-1.4325509071350098,-1.1670591831207275
1732873399995040800,10.953040771484375,1.0743179321289062,-1.2499346733093262,-0.662208080291748
1732873400005050600,10.963050537109375,0.4601325988769531,-1.178964614868164,-0.4791523218154907
1732873400015060200,10.973060302734375,-0.41611766815185547,-0.9960422515869141,-0.5296105742454529
1732873400025039600,10.98303955078125,-1.0377492904663086,-0.7833256125450134,-0.738172173500061
1732873400035049500,10.993049560546876,-1.3380460739135742,-0.5023679733276367,-0.9162598848342896
1732873400045059000,11.00305908203125,-1.5352411270141602,-0.1798277497291565,-1.1999579668045044
1732873400055038500,11.01303857421875,-1.6852474212646484,-0.06359094381332397,-1.2941664457321167
1732873400065048300,11.02304833984375,-1.7520732879638672,-0.02551567554473877,-1.1546419858932495
1732873400075058000,11.033057861328125,-1.7793169021606445,-0.09834074974060059,-1.0583786964416504
1732873400085037000,11.043037109375,-1.4896421432495117,-0.23369890451431274,-0.7937909364700317
1732873400095047000,11.053046875,-0.8304891586303711,-0.312289834022522,-0.5093463659286499
1732873400105056500,11.063056396484376,-0.05531597137451172,-0.476929634809494,0.13555072247982025
1732873400115036000,11.073035888671875,0.43186187744140625,-0.4772946834564209,0.7692617177963257
1732873400125045800,11.083045654296875,0.8948297500610352,-0.20700395107269287,1.201085090637207
1732873400135055600,11.0930556640625,1.252427101135254,0.2598339915275574,1.3426038026809692
1732873400145034800,11.10303466796875,1.4379501342773438,0.6487599611282349,1.353052020072937
1732873400155044600,11.113044677734376,1.5521507263183594,1.0483598709106445,1.0334841012954712
1732873400165054500,11.123054443359376,1.571040153503418,1.3758671283721924,0.555831789970398
1732873400175064000,11.13306396484375,1.9365005493164062,1.4148180484771729,0.16678890585899353
1732873400185043200,11.143043212890625,2.71453857421875,1.3181953430175781,0.3576606214046478
1732873400195053000,11.153052978515625,3.36806583404541,0.9051377773284912,1.1299647092819214
1732873400205062700,11.163062744140625,3.834806442260742,0.48658719658851624,1.839255452156067
1732873400215042000,11.1730419921875,4.254079818725586,0.2347676157951355,2.698655843734741
1732873400225052000,11.183052001953126,3.9630002975463867,0.18013882637023926,3.1501667499542236
1732873400235061500,11.1930615234375,2.8563575744628906,0.337846964597702,3.1516706943511963
1732873400245041000,11.203041015625,1.4897222518920898,0.5484067797660828,2.6329827308654785
1732873400255050500,11.213050537109375,0.22231292724609375,0.5774793028831482,2.3112335205078125
1732873400265060400,11.223060302734375,-1.0342979431152344,0.7154849767684937,1.8982168436050415
1732873400275039500,11.23303955078125,-2.4710168838500977,0.9456542134284973,0.8798136711120605
1732873400285049300,11.24304931640625,-3.573387622833252,1.5277189016342163,-0.9105615019798279
1732873400295059000,11.253058837890626,-3.848423957824707,2.0653443336486816,-2.357386589050293
1732873400305038300,11.263038330078125,-3.809190273284912,2.4686312675476074,-3.469783306121826
1732873400315048200,11.273048095703125,-3.4181699752807617,2.356137275695801,-3.3787267208099365
1732873400325057800,11.283057861328125,-2.8392744064331055,1.6193104982376099,-1.9433605670928955
1732873400335037200,11.293037109375,-2.10709285736084,0.624125599861145,-0.32918551564216614
1732873400345047000,11.303047119140626,-1.0763301849365234,-0.18781161308288574,1.0870082378387451
1732873400355056600,11.313056640625,0.031882286071777344,-0.6472360491752625,1.744230031967163
1732873400365036000,11.3230361328125,0.6459684371948242,-0.9403808116912842,1.9281340837478638
1732873400375045600,11.333045654296875,0.8655500411987305,-1.0268112421035767,1.7928012609481812
1732873400385055500,11.343055419921875,0.6986904144287109,-0.8004772067070007,1.2057639360427856
1732873400395034600,11.35303466796875,0.2939319610595703,-0.5482141971588135,0.5412760972976685
1732873400405044500,11.36304443359375,-0.20026493072509766,-0.42472100257873535,0.20886802673339844
1732873400415054300,11.373054443359376,-0.5160799026489258,-0.21174407005310059,-0.040814608335494995
1732873400425064000,11.38306396484375,-0.8453540802001953,0.0011875629425048828,-0.32954108715057373
1732873400435043300,11.393043212890625,-1.057088851928711,0.06797051429748535,-0.3688344657421112
1732873400445053000,11.403052978515625,-0.9818630218505859,0.07631528377532959,-0.251859575510025
1732873400455062800,11.413062744140625,-0.7420978546142578,-0.0699162483215332,-0.04718834161758423
1732873400465042200,11.423042236328126,-0.4815959930419922,-0.32930076122283936,0.3116827607154846
1732873400475051800,11.4330517578125,-0.2720651626586914,-0.461279034614563,0.3870857357978821
1732873400485061600,11.4430615234375,0.0926523208618164,-0.5226736664772034,0.36544138193130493
1732873400495040800,11.453040771484375,0.2624931335449219,-0.48285800218582153,0.29467660188674927
1732873400505050600,11.463050537109375,0.2213754653930664,-0.361297070980072,0.3153209984302521
1732873400515060200,11.473060302734375,-0.009077072143554688,-0.2828735113143921,0.2266857773065567
1732873400525039600,11.48303955078125,-0.3393564224243164,-0.1683896780014038,0.23289382457733154
1732873400535049200,11.49304931640625,-0.6008443832397461,-0.06515681743621826,0.2839735746383667
1732873400545059000,11.50305908203125,-0.894251823425293,0.09076333045959473,0.23412048816680908
1732873400555038500,11.51303857421875,-1.1938514709472656,0.19879591464996338,0.15264983475208282
1732873400565048300,11.52304833984375,-1.4694280624389648,0.16358911991119385,0.04718506336212158
1732873400575058000,11.533057861328125,-1.501997947692871,0.0005542635917663574,-0.15928970277309418
1732873400585037000,11.543037109375,-1.2916584014892578,-0.2086167335510254,-0.33259618282318115
1732873400595047000,11.553046875,-0.6877269744873047,-0.4432854950428009,-0.4103395342826843
1732873400605056500,11.563056396484376,0.051390647888183594,-0.6684433221817017,-0.2515629827976227
1732873400615036000,11.573035888671875,0.8997821807861328,-0.9163000583648682,0.07742102444171906
1732873400625045800,11.583045654296875,1.518071174621582,-0.917087733745575,0.3536199629306793
1732873400635055400,11.593055419921875,1.880387306213379,-0.5822674036026001,0.3916771709918976
1732873400645034800,11.60303466796875,1.8006200790405273,-0.1451205611228943,0.22588962316513062
1732873400655044600,11.613044677734376,1.4056901931762695,0.31135159730911255,-0.07826479524374008
1732873400665054200,11.62305419921875,0.8366842269897461,0.6952117681503296,-0.3868303596973419
1732873400675064000,11.63306396484375,0.2969074249267578,1.0072605609893799,-0.8582424521446228
1732873400685043200,11.643043212890625,0.2028207778930664,1.1007587909698486,-1.4349929094314575
1732873400695052800,11.653052734375,0.4728279113769531,1.0371992588043213,-1.8566100597381592
1732873400705062700,11.663062744140625,1.4442272186279297,0.9120916724205017,-2.297518014907837
1732873400715042000,11.6730419921875,2.7455873489379883,0.823144793510437,-2.390768051147461
1732873400725051600,11.6830517578125,4.259993553161621,0.7219697833061218,-2.269254207611084
1732873400735061500,11.6930615234375,5.343436241149902,0.643333911895752,-1.707982063293457
1732873400745041000,11.703041015625,5.4860124588012695,0.5968599915504456,-0.9293440580368042
1732873400755050800,11.71305078125,4.642293930053711,0.8074590563774109,-0.5921251773834229
1732873400765060400,11.723060302734375,3.099946975708008,1.1427825689315796,-0.32299014925956726
1732873400775039500,11.73303955078125,1.6542634963989258,1.3396165370941162,-0.2607095539569855
1732873400785049300,11.74304931640625,0.10205650329589844,1.5155953168869019,-0.3988994061946869
1732873400795059000,11.753058837890626,-1.1371517181396484,1.4777215719223022,-0.5000326633453369
1732873400805038300,11.763038330078125,-1.8007655143737793,1.3138773441314697,-0.4361875057220459
1732873400815048200,11.773048095703125,-2.2003626823425293,0.9810991287231445,-0.3282506763935089
1732873400825057800,11.783057861328125,-2.374617576599121,0.5566304326057434,-0.23695072531700134
1732873400835037200,11.793037109375,-2.4140706062316895,0.11191892623901367,-0.1804102659225464
1732873400845047000,11.803047119140626,-2.456373691558838,-0.25870275497436523,-0.24984729290008545
1732873400855056600,11.813056640625,-2.5039734840393066,-0.6556673049926758,-0.2762419581413269
1732873400865036000,11.8230361328125,-2.478447914123535,-0.9151849150657654,-0.2507381737232208
1732873400875045600,11.833045654296875,-2.2907605171203613,-1.0506095886230469,-0.30966848134994507
1732873400885055500,11.843055419921875,-2.0796751976013184,-1.0482174158096313,-0.3573426604270935
1732873400895035000,11.853034912109376,-1.8640727996826172,-1.0299700498580933,-0.37711605429649353
1732873400905044500,11.86304443359375,-1.7825226783752441,-1.0100725889205933,-0.23258808255195618
1732873400915054000,11.87305419921875,-1.8660016059875488,-1.0905827283859253,-0.06011629104614258
1732873400925064000,11.88306396484375,-1.683579444885254,-1.230444312095642,0.1195407509803772
1732873400935043300,11.893043212890625,-1.1422443389892578,-1.2252352237701416,0.24048320949077606
1732873400945053000,11.903052978515625,-0.5748891830444336,-1.2044689655303955,0.046362996101379395
1732873400955062800,11.913062744140625,-0.3356447219848633,-1.2159814834594727,-0.2536093294620514
1732873400965042200,11.923042236328126,-0.02692890167236328,-1.2443691492080688,-0.49713951349258423
1732873400975051800,11.9330517578125,0.15974044799804688,-1.102752923965454,-0.8340988159179688
1732873400985061600,11.9430615234375,0.06399726867675781,-0.8608238697052002,-1.5177488327026367
1732873400995040800,11.953040771484375,-0.14863967895507812,-0.5876126885414124,-2.043159246444702
1732873401005050600,11.963050537109375,-0.23400020599365234,-0.48139065504074097,-2.0578744411468506
1732873401015060200,11.973060302734375,-0.5676689147949219,-0.2569373846054077,-1.5976694822311401
1732873401025039600,11.98303955078125,-0.9287633895874023,-0.1588277816772461,-1.1852262020111084
1732873401035049500,11.993049560546876,-1.144474983215332,-0.17373895645141602,-0.8415153622627258
1732873401045059000,12.00305908203125,-1.0946245193481445,-0.22075623273849487,-0.5266156792640686
1732873401055038500,12.01303857421875,-1.0343875885009766,-0.2575281858444214,-0.30271267890930176
1732873401065048300,12.02304833984375,-1.0622596740722656,-0.21067988872528076,-0.15347552299499512
1732873401075058000,12.033057861328125,-1.2167167663574219,-0.1200113296508789,0.04093480110168457
1732873401085037000,12.043037109375,-1.495011329650879,-0.03524947166442871,0.2585498094558716
1732873401095047000,12.053046875,-1.6294307708740234,0.06563550233840942,0.5153908133506775
1732873401105056500,12.063056396484376,-1.6602001190185547,0.14873695373535156,0.5733761787414551
1732873401115036000,12.073035888671875,-1.6804351806640625,0.18592703342437744,0.9285570979118347
1732873401125045800,12.083045654296875,-1.8410367965698242,0.2829558849334717,0.8739473819732666
1732873401135055600,12.0930556640625,-2.087224006652832,0.49217909574508667,0.29305267333984375
1732873401145034800,12.10303466796875,-1.9071741104125977,0.7802430987358093,-0.6093577146530151
1732873401155044600,12.113044677734376,-1.1456451416015625,0.7849506139755249,-1.5399776697158813
1732873401165054200,12.12305419921875,0.25391578674316406,0.741927981376648,-1.974801778793335
1732873401175064000,12.13306396484375,1.8258399963378906,0.5540045499801636,-1.5792393684387207
1732873401185043200,12.143043212890625,3.1439218521118164,0.16864687204360962,-0.6953465938568115
1732873401195053000,12.153052978515625,3.971673011779785,0.05165904760360718,0.27337443828582764
1732873401205062700,12.163062744140625,4.156862258911133,0.22738966345787048,1.2871322631835938
1732873401215042000,12.1730419921875,3.650117874145508,0.7802019119262695,2.022669792175293
1732873401225052000,12.183052001953126,2.2151851654052734,1.464937448501587,2.3494014739990234
1732873401235061500,12.1930615234375,0.04194164276123047,2.0720338821411133,2.174739360809326
1732873401245041000,12.203041015625,-1.4884414672851562,2.520925521850586,1.8782578706741333
1732873401255050500,12.213050537109375,-2.579623222351074,2.849052667617798,1.7178648710250854
1732873401265060400,12.223060302734375,-2.897037982940674,2.8863980770111084,1.810630202293396
1732873401275039500,12.23303955078125,-2.66420316696167,2.670027256011963,2.35732364654541
1732873401285049300,12.24304931640625,-2.014021873474121,2.2808585166931152,2.82732892036438
1732873401295059000,12.253058837890626,-0.9148740768432617,1.8309803009033203,3.020461082458496
1732873401305038300,12.263038330078125,0.4001483917236328,1.4481443166732788,3.008378028869629
1732873401315048000,12.2730478515625,1.5788145065307617,1.137645959854126,2.989164352416992
1732873401325057800,12.283057861328125,2.166834831237793,1.1126372814178467,2.721635580062866
1732873401335037200,12.293037109375,2.468667984008789,1.205741286277771,2.2773892879486084
1732873401345047000,12.303047119140626,2.1756935119628906,1.3527506589889526,1.8687753677368164
1732873401355056600,12.313056640625,1.7209110260009766,1.355776309967041,1.8281694650650024
1732873401365036000,12.3230361328125,0.8717288970947266,1.8453925848007202,1.2636637687683105
1732873401375045600,12.333045654296875,0.06131267547607422,2.1214327812194824,0.6212109327316284
1732873401385055500,12.343055419921875,-0.6961307525634766,2.512300491333008,-0.011271297931671143
1732873401395034600,12.35303466796875,-1.132375717163086,2.735947847366333,-0.4647257328033447
1732873401405044500,12.36304443359375,-1.1156072616577148,2.4649877548217773,-0.47878748178482056
1732873401415054300,12.373054443359376,-0.6735343933105469,1.9895997047424316,0.2009621262550354
1732873401425064000,12.38306396484375,0.3743581771850586,1.4720855951309204,0.9634263515472412
1732873401435043300,12.393043212890625,1.3971185684204102,0.9328204393386841,1.3856167793273926
1732873401445053200,12.40305322265625,2.427278518676758,0.5298240780830383,1.8585654497146606
1732873401455062800,12.413062744140625,2.9547386169433594,0.3272945284843445,1.9723429679870605
1732873401465042200,12.423042236328126,2.9435501098632812,0.3626043498516083,1.7152764797210693
1732873401475052000,12.433052001953126,2.1971492767333984,0.46364083886146545,1.160302758216858
1732873401485061600,12.4430615234375,1.3307628631591797,0.4841209053993225,0.8161152601242065
1732873401495040800,12.453040771484375,0.2894611358642578,0.6661007404327393,0.6017962098121643
1732873401505050600,12.463050537109375,-0.3590984344482422,0.7229061126708984,0.7255613207817078
1732873401515060200,12.473060302734375,-0.8854503631591797,0.7377259731292725,1.3029921054840088
1732873401525039600,12.48303955078125,-1.2521533966064453,0.4896024465560913,2.064483642578125
1732873401535049500,12.493049560546876,-1.294046401977539,0.2138061821460724,2.704453945159912
1732873401545059300,12.503059326171876,-1.03240966796875,0.11101174354553223,2.84131121635437
1732873401555038500,12.51303857421875,-0.5277309417724609,-0.0012080967426300049,2.242053985595703
1732873401565048300,12.52304833984375,0.18120574951171875,0.09487284719944,1.4532487392425537
1732873401575058000,12.533057861328125,0.7824745178222656,0.328652948141098,0.8688950538635254
1732873401585037000,12.543037109375,0.8608016967773438,0.6051333546638489,0.2794727683067322
1732873401595047000,12.553046875,0.5841712951660156,0.9511004090309143,-0.12541663646697998
1732873401605056500,12.563056396484376,0.36505603790283203,1.2473702430725098,-0.31837713718414307
1732873401615036000,12.573035888671875,-0.09322261810302734,1.0941141843795776,-0.26668858528137207
1732873401625045800,12.583045654296875,-0.9160919189453125,0.8426634073257446,-0.0451052188873291
1732873401635055400,12.593055419921875,-1.4925012588500977,0.5934560298919678,0.05121481418609619
1732873401645034800,12.60303466796875,-1.5578231811523438,0.4196229875087738,0.4848489761352539
1732873401655044600,12.613044677734376,-1.308964729309082,0.43014878034591675,0.7347874641418457
1732873401665054200,12.62305419921875,-0.5040378570556641,0.4326269030570984,1.2019859552383423
1732873401675064000,12.63306396484375,0.7640132904052734,0.3744642436504364,1.6230223178863525
1732873401685043200,12.643043212890625,1.6917667388916016,0.37720391154289246,2.0176916122436523
1732873401695052800,12.653052734375,2.5502023696899414,0.3976913094520569,2.229248523712158
1732873401705062700,12.663062744140625,2.944870948791504,0.45229393243789673,2.188617706298828
1732873401715042000,12.6730419921875,3.194424629211426,0.6739825010299683,1.807499885559082
1732873401725051600,12.6830517578125,3.061884880065918,0.8238934278488159,1.5753886699676514
1732873401735061500,12.6930615234375,2.544623374938965,0.9119397401809692,1.3068004846572876
1732873401745041000,12.703041015625,2.1141958236694336,0.9617771506309509,1.1436045169830322
1732873401755050800,12.71305078125,1.9377355575561523,0.883015513420105,1.1541111469268799
