time,seconds_elapsed,z,y,x
1732873389256070100,0.214070068359375,0.02871066704392433,-0.01771509274840355,-0.04948008432984352
1732873389265857800,0.22385791015625,0.02321287989616394,-0.02871066704392433,-0.018325956538319588
1732873389275597600,0.23359765625,0.018936822190880775,-0.0354301854968071,-0.001832595793530345
1732873389285598500,0.243598388671875,0.005497787147760391,-0.0354301854968071,0.010995574295520782
1732873389295586600,0.253586669921875,-0.006719517521560192,-0.039095375686883926,0.02321287989616394
1732873389305587700,0.263587646484375,-0.01038470957428217,-0.031154127791523933,0.028099801391363144
1732873389315575300,0.2735751953125,-0.004886921960860491,-0.018325956538319588,0.02321287989616394
1732873389325607200,0.283607177734375,0.00427605677396059,-0.009773843921720982,0.018936822190880775
1732873389335564500,0.293564453125,0.010995574295520782,-0.009773843921720982,0.019547687843441963
1732873389345596000,0.303595947265625,0.015271631069481373,-0.015882495790719986,0.006719517521560192
1732873389355584000,0.313583984375,0.01466076634824276,-0.01771509274840355,-0.010995574295520782
1732873389365585200,0.323585205078125,0.015271631069481373,-0.01710422709584236,-0.02626720629632473
1732873389375573000,0.333572998046875,0.016493361443281174,-0.015271631069481373,-0.042760565876960754
1732873389385604600,0.3436044921875,0.021380282938480377,-0.01038470957428217,-0.060475658625364304
1732873389395562000,0.35356201171875,0.029932396486401558,-0.010995574295520782,-0.06719517707824707
1732873389405593900,0.36359375,0.036041051149368286,-0.00366519158706069,-0.06963863968849182
1732873389415581400,0.37358154296875,0.02932153269648552,-0.003054326167330146,-0.06902777403593063
1732873389425613600,0.383613525390625,0.009773843921720982,-0.01038470957428217,-0.05925392732024193
1732873389435570400,0.3935703125,-0.006108652334660292,-0.018936822190880775,-0.05497787147760391
1732873389445602000,0.40360205078125,-0.016493361443281174,-0.024434609338641167,-0.0555887371301651
1732873389455590100,0.413590087890625,-0.01771509274840355,-0.025656340643763542,-0.06230825558304787
1732873389465591300,0.42359130859375,-0.013439035043120384,-0.02871066704392433,-0.06536258012056351
1732873389475579100,0.4335791015625,-0.00366519158706069,-0.03298672288656235,-0.060475658625364304
1732873389485610800,0.44361083984375,0.01466076634824276,-0.033597588539123535,-0.04092797264456749
1732873389495568100,0.453568115234375,0.01710422709584236,-0.030543262138962746,-0.02076941914856434
1732873389505599700,0.463599853515625,0.006719517521560192,-0.02932153269648552,-0.00366519158706069
1732873389515587600,0.473587646484375,-0.00366519158706069,-0.02321287989616394,0.006719517521560192
1732873389525589000,0.483589111328125,-0.006108652334660292,-0.010995574295520782,-0.0006108652451075613
1732873389535576800,0.493576904296875,-0.0012217304902151227,-0.0024434609804302454,-0.015882495790719986
1732873389545608200,0.503608154296875,-0.0012217304902151227,0.001832595793530345,-0.03481931984424591
1732873389555565800,0.51356591796875,-0.0024434609804302454,0.001832595793530345,-0.05742133408784866
1732873389565597400,0.523597412109375,0.001832595793530345,-0.003054326167330146,-0.07513642311096191
1732873389575585300,0.533585205078125,-0.001832595793530345,-0.0006108652451075613,-0.07269296050071716
1732873389585586400,0.54358642578125,-0.009162978269159794,0.0006108652451075613,-0.06414084881544113
1732873389595573500,0.553573486328125,-0.01160643994808197,0.0012217304902151227,-0.05253441259264946
1732873389605605600,0.563605712890625,-0.010995574295520782,0.0012217304902151227,-0.04153883829712868
1732873389615562800,0.573562744140625,-0.006719517521560192,0.001832595793530345,-0.03176499158143997
1732873389625594600,0.5835947265625,0.004886921960860491,0.00366519158706069,-0.02932153269648552
1732873389635582500,0.59358251953125,0.03420845419168472,0.004886921960860491,-0.03481931984424591
1732873389645583400,0.603583251953125,0.04153883829712868,0.00733038317412138,-0.033597588539123535
1732873389655571200,0.6135712890625,0.03420845419168472,0.019547687843441963,-0.031154127791523933
1732873389665603000,0.62360302734375,0.02382374368607998,0.030543262138962746,-0.025656340643763542
1732873389675591000,0.6335908203125,0.018325956538319588,0.028099801391363144,-0.018936822190880775
1732873389685592300,0.64359228515625,0.015882495790719986,0.02015855349600315,-0.015271631069481373
1732873389695580200,0.653580078125,0.01710422709584236,0.015882495790719986,-0.02382374368607998
1732873389705612300,0.6636123046875,0.02015855349600315,0.009773843921720982,-0.04459316283464432
1732873389715569200,0.673569091796875,0.019547687843441963,0.001832595793530345,-0.051312681287527084
1732873389725601000,0.68360107421875,0.007941247895359993,-0.009162978269159794,-0.0507018156349659
1732873389735588900,0.6935888671875,-0.003054326167330146,-0.014049900695681572,-0.05253441259264946
1732873389745590000,0.703590087890625,-0.00855211354792118,-0.021991148591041565,-0.0555887371301651
1732873389755577900,0.713577880859375,-0.00855211354792118,-0.012217304669320583,-0.06414084881544113
1732873389765609700,0.723609619140625,-0.01160643994808197,-0.001832595793530345,-0.06658431142568588
1732873389775567000,0.733567138671875,-0.01710422709584236,0.018936822190880775,-0.059864792972803116
1732873389785598700,0.7435986328125,-0.01771509274840355,0.06658431142568588,-0.04764748737215996
1732873389795586300,0.75358642578125,-0.01710422709584236,0.08368854224681854,-0.0403171069920063
1732873389805587700,0.763587646484375,-0.010995574295520782,0.07819075137376785,-0.033597588539123535
1732873389815575300,0.7735751953125,0,0.05619960278272629,-0.024434609338641167
1732873389825607400,0.783607421875,0.00366519158706069,0.02321287989616394,-0.004886921960860491
1732873389835564300,0.793564208984375,0,0.0024434609804302454,0.019547687843441963
1732873389845596200,0.80359619140625,0.0006108652451075613,-0.0006108652451075613,0.03726277872920036
1732873389855584000,0.813583984375,0.01038470957428217,0.01466076634824276,0.04581489413976669
1732873389865585200,0.823585205078125,0.010995574295520782,0.021380282938480377,0.042760565876960754
1732873389875573000,0.833572998046875,0.001832595793530345,0.042760565876960754,0.03237585723400116
1732873389885604600,0.8436044921875,-0.006719517521560192,0.06658431142568588,0.012828170321881771
1732873389895562000,0.85356201171875,-0.00855211354792118,0.07941248267889023,-0.004886921960860491
1732873389905593900,0.86359375,-0.00855211354792118,0.06414084881544113,-0.0012217304902151227
1732873389915581400,0.87358154296875,-0.00855211354792118,0.04214970022439957,0.018936822190880775
1732873389925613000,0.883613037109375,-0.0006108652451075613,0.025656340643763542,0.0555887371301651
1732873389935570400,0.8935703125,0.01466076634824276,0.0354301854968071,0.07513642311096191
1732873389945602300,0.903602294921875,0.030543262138962746,0.051312681287527084,0.08979719132184982
1732873389955590100,0.913590087890625,0.04581489413976669,0.06291911751031876,0.09285151958465576
1732873389965591000,0.923591064453125,0.05803219974040985,0.06291911751031876,0.08429940044879913
1732873389975579100,0.9335791015625,0.06108652427792549,0.08185594528913498,0.05925392732024193
1732873389985610500,0.943610595703125,0.056810468435287476,0.10201449692249298,0.01710422709584236
1732873389995122000,0.953121826171875,0.03787364438176155,0.13011430203914642,-0.025045474991202354
1732873390005153800,0.96315380859375,-0.004886921960860491,0.1820378452539444,-0.056810468435287476
1732873390015141600,0.9731416015625,-0.039095375686883926,0.20952677726745605,-0.05803219974040985
1732873390025142500,0.983142578125,-0.06780604273080826,0.21074850857257843,-0.04153883829712868
1732873390035130600,0.993130615234375,-0.0959058403968811,0.18631389737129211,0.0024434609804302454
1732873390045162200,1.003162353515625,-0.12522737681865692,0.1569923609495163,0.06963863968849182
1732873390055119400,1.013119384765625,-0.15577064454555511,0.1313360333442688,0.14355333149433136
1732873390065151500,1.0231513671875,-0.18325957655906677,0.12950342893600464,0.2015855312347412
1732873390075139000,1.03313916015625,-0.21563543379306793,0.1459967941045761,0.2376265823841095
1732873390085140200,1.04314013671875,-0.23396138846874237,0.16493362188339233,0.23151792585849762
1732873390095128000,1.053128173828125,-0.24495697021484375,0.192422553896904,0.19364428520202637
1732873390105160000,1.063159912109375,-0.24434609711170197,0.21624629199504852,0.1411098688840866
1732873390115117300,1.073117431640625,-0.24862214922904968,0.22418753802776337,0.09407325088977814
1732873390125149000,1.08314892578125,-0.26633724570274353,0.21502456068992615,0.06475171446800232
1732873390135136500,1.093136474609375,-0.29504790902137756,0.2028072625398636,0.06536258012056351
1732873390145138000,1.103137939453125,-0.3396410644054413,0.19303341209888458,0.11545353382825851
1732873390155125500,1.11312548828125,-0.37079519033432007,0.21013765037059784,0.17104226350784302
1732873390165157400,1.123157470703125,-0.3897320330142975,0.23579397797584534,0.22968533635139465
1732873390175145200,1.133145263671875,-0.3995058834552765,0.27611109614372253,0.2822197377681732
1732873390185146400,1.143146484375,-0.3933972120285034,0.2981022298336029,0.32986724376678467
1732873390195134200,1.15313427734375,-0.3781255781650543,0.28955012559890747,0.3634648323059082
1732873390205166000,1.163166015625,-0.36224308609962463,0.26450464129447937,0.3781255781650543
1732873390215123500,1.17312353515625,-0.33658674359321594,0.2070833146572113,0.3842342495918274
1732873390225154800,1.18315478515625,-0.29138273000717163,0.12339477986097336,0.34574973583221436
1732873390235142700,1.193142578125,-0.25045475363731384,0.08307767659425735,0.2822197377681732
1732873390245143000,1.20314306640625,-0.20525072515010834,0.05497787147760391,0.20586158335208893
1732873390255131600,1.213131591796875,-0.15882496535778046,0.019547687843441963,0.1368338167667389
1732873390265162800,1.223162841796875,-0.12461651116609573,-0.018325956538319588,0.0910189226269722
1732873390275120600,1.23312060546875,-0.09896016865968704,-0.05803219974040985,0.06841690838336945
1732873390285152500,1.243152587890625,-0.08124507963657379,-0.09651670604944229,0.06414084881544113
1732873390295140400,1.253140380859375,-0.0659734457731247,-0.11972958594560623,0.06352998316287994
1732873390305140700,1.263140625,-0.05742133408784866,-0.10690141469240189,0.05742133408784866
1732873390315129300,1.27312939453125,-0.03726277872920036,-0.0757472887635231,0.03848451003432274
1732873390325160000,1.283159912109375,0.006108652334660292,-0.036651913076639175,0.014049900695681572
1732873390335118300,1.293118408203125,0.08185594528913498,-0.0006108652451075613,-0.004886921960860491
1732873390345149200,1.303149169921875,0.17043140530586243,0.02626720629632473,-0.006108652334660292
1732873390355137800,1.3131376953125,0.23884831368923187,0.03848451003432274,0.015271631069481373
1732873390365139000,1.323138916015625,0.26022860407829285,0.01160643994808197,0.07635815441608429
1732873390375126800,1.333126708984375,0.22357667982578278,-0.033597588539123535,0.11667526513338089
1732873390385157400,1.343157470703125,0.15882496535778046,-0.09162978827953339,0.1368338167667389
1732873390395116000,1.353115966796875,0.07819075137376785,-0.152105450630188,0.1258382350206375
1732873390405146000,1.36314599609375,-0.01038470957428217,-0.19303341209888458,0.0861319974064827
1732873390415135500,1.373135498046875,-0.07757988572120667,-0.21563543379306793,0.03298672288656235
1732873390425167000,1.3831669921875,-0.09346238523721695,-0.2321287989616394,0.006719517521560192
1732873390435124500,1.39312451171875,-0.06169738993048668,-0.21807889640331268,0.0354301854968071
1732873390445156000,1.403156005859375,0.03726277872920036,-0.19914206862449646,0.1814269721508026
1732873390455144000,1.41314404296875,0.11423180252313614,-0.20036379992961884,0.30604347586631775
1732873390465144600,1.42314453125,0.18570303916931152,-0.20402899384498596,0.41233405470848083
1732873390475133000,1.4331328125,0.25534167885780334,-0.18814650177955627,0.4495968222618103
1732873390485164300,1.443164306640625,0.3286454975605011,-0.1612684279680252,0.4080579876899719
1732873390495122200,1.4531220703125,0.38240164518356323,-0.12095131725072861,0.2877175211906433
1732873390505152500,1.463152587890625,0.39767327904701233,-0.039095375686883926,0.09407325088977814
1732873390515141600,1.4731416015625,0.33108896017074585,0.11056660860776901,-0.2718350291252136
1732873390525142800,1.483142822265625,0.22968533635139465,0.18875735998153687,-0.513737678527832
1732873390535130600,1.493130615234375,0.09162978827953339,0.16432274878025055,-0.6872233748435974
1732873390545162200,1.503162353515625,-0.05497787147760391,0.042760565876960754,-0.740368664264679
1732873390555119600,1.51311962890625,-0.1612684279680252,-0.1313360333442688,-0.6542366743087769
1732873390565151500,1.5231513671875,-0.1918116807937622,-0.31031954288482666,-0.4294382631778717
1732873390575139000,1.53313916015625,-0.14355333149433136,-0.4282165467739105,-0.10751228034496307
1732873390585139700,1.5431396484375,0.03237585723400116,-0.41233405470848083,0.342695415019989
1732873390595127300,1.553127197265625,0.17776179313659668,-0.33047810196876526,0.5186246037483215
1732873390605158400,1.563158447265625,0.2938261926174164,-0.22846360504627228,0.5803219676017761
1732873390615116500,1.573116455078125,0.3286454975605011,-0.13439035415649414,0.5467243790626526
1732873390625147100,1.583147216796875,0.2773328125476837,-0.07452555745840073,0.44654250144958496
1732873390635136000,1.593135986328125,0.1618792861700058,-0.0555887371301651,0.3225368559360504
1732873390645136000,1.603135986328125,-0.0012217304902151227,-0.08735372871160507,0.22907446324825287
1732873390655125200,1.613125244140625,-0.18570303916931152,-0.15515977144241333,0.19058994948863983
1732873390665156900,1.623156982421875,-0.42638394236564636,-0.18509216606616974,0.1973094791173935
1732873390675145000,1.63314501953125,-0.5351179838180542,-0.15760323405265808,0.2119702398777008
1732873390685145600,1.6431455078125,-0.5894849896430969,-0.12767083942890167,0.20402899384498596
1732873390695134200,1.65313427734375,-0.5821545720100403,-0.11728613078594208,0.15882496535778046
1732873390705164500,1.66316455078125,-0.523511528968811,-0.10751228034496307,0.07513642311096191
1732873390715123200,1.673123291015625,-0.4453207552433014,-0.08491026610136032,-0.03237585723400116
1732873390725154800,1.68315478515625,-0.3897320330142975,-0.05497787147760391,-0.12034045159816742
1732873390735142700,1.693142578125,-0.3933972120285034,0.04459316283464432,-0.17470745742321014
1732873390745143300,1.703143310546875,-0.42760565876960754,0.12828169763088226,-0.14905111491680145
1732873390755131600,1.713131591796875,-0.47342056035995483,0.17104226350784302,-0.07024950534105301
1732873390765163000,1.7231630859375,-0.5326744914054871,0.16798794269561768,0.05192354694008827
1732873390775120600,1.73312060546875,-0.5827654600143433,0.09651670604944229,0.20402899384498596
1732873390785151500,1.7431513671875,-0.5876523852348328,0.0024434609804302454,0.3536909818649292
1732873390795140400,1.753140380859375,-0.5314527750015259,-0.06108652427792549,0.47830748558044434
1732873390805140200,1.76314013671875,-0.3543018400669098,-0.10751228034496307,0.5674937963485718
1732873390815129300,1.77312939453125,-0.22052235901355743,-0.11301007121801376,0.5583308339118958
1732873390825159700,1.78315966796875,-0.1111774742603302,-0.10812314599752426,0.5076290369033813
1732873390835118300,1.793118408203125,-0.03726277872920036,-0.08857546001672745,0.4245513379573822
1732873390845149400,1.8031494140625,0.01160643994808197,-0.05375614017248154,0.31459560990333557
1732873390855137800,1.8131376953125,0.042760565876960754,-0.014049900695681572,0.19486601650714874
1732873390865138400,1.823138427734375,0.06108652427792549,0.02687807008624077,0.07452555745840073
1732873390875126800,1.833126708984375,0.08002334833145142,0.0659734457731247,-0.036651913076639175
1732873390885158100,1.843158203125,0.10751228034496307,0.0910189226269722,-0.1618792861700058
1732873390895116000,1.853115966796875,0.12217304855585098,0.0861319974064827,-0.2076941877603531
1732873390905147100,1.863147216796875,0.13805554807186127,0.06963863968849182,-0.23151792585849762
1732873390915135500,1.873135498046875,0.1667662113904953,0.05253441259264946,-0.24190263450145721
1732873390925166300,1.883166259765625,0.20341812074184418,0.03726277872920036,-0.23579397797584534
1732873390935124500,1.89312451171875,0.2321287989616394,0.025656340643763542,-0.22540926933288574
1732873390945183700,1.903183837890625,0.23640485107898712,0.022602014243602753,-0.21380282938480377
1732873390955144000,1.91314404296875,0.19547687470912933,0.01160643994808197,-0.1716531366109848
1732873390965144300,1.923144287109375,0.15332718193531036,0.012828170321881771,-0.1270599663257599
1732873390975133000,1.9331328125,0.11484266817569733,0.01710422709584236,-0.08124507963657379
1732873390985164300,1.943164306640625,0.09773843735456467,0.01710422709584236,-0.05253441259264946
1732873390995122200,1.9531220703125,0.10323622822761536,0.00366519158706069,-0.02871066704392433
1732873391005153300,1.9631533203125,0.10445795953273773,-0.031154127791523933,-0.00427605677396059
1732873391015141600,1.9731416015625,0.09834930300712585,-0.07452555745840073,0.0006108652451075613
1732873391025142000,1.98314208984375,0.12889257073402405,-0.14416420459747314,-0.019547687843441963
1732873391035130600,1.993130615234375,0.16310101747512817,-0.17837265133857727,-0.018325956538319588
1732873391045161500,2.003161376953125,0.1869247704744339,-0.19853121042251587,0.0024434609804302454
1732873391055119400,2.013119384765625,0.18631389737129211,-0.21502456068992615,0.04153883829712868
1732873391065150700,2.023150634765625,0.16249015927314758,-0.23335053026676178,0.08185594528913498
1732873391075139000,2.03313916015625,0.12278391420841217,-0.2541199326515198,0.10201449692249298
1732873391085139500,2.043139404296875,0.08429940044879913,-0.2938261926174164,0.09468411654233932
1732873391095128000,2.053128173828125,0.054367005825042725,-0.3445279896259308,0.05619960278272629
1732873391105159200,2.0631591796875,0.018936822190880775,-0.4398229718208313,-0.04214970022439957
1732873391115117000,2.073116943359375,0.015882495790719986,-0.46547931432724,-0.12950342893600464
1732873391125148200,2.083148193359375,0.054367005825042725,-0.4349360466003418,-0.2382374405860901
1732873391135136800,2.09313671875,0.11301007121801376,-0.37751471996307373,-0.33536502718925476
1732873391145137000,2.103136962890625,0.1417207419872284,-0.32009339332580566,-0.3891211748123169
1732873391155125800,2.113125732421875,0.1215621829032898,-0.2785545587539673,-0.384845107793808
1732873391165157400,2.123157470703125,0.07147123664617538,-0.2620611786842346,-0.3274237811565399
1732873391175145200,2.133145263671875,-0.04153883829712868,-0.2626720666885376,-0.13500121235847473
1732873391185146000,2.14314599609375,-0.15577064454555511,-0.2773328125476837,0.07391469180583954
1732873391195134200,2.15313427734375,-0.27122417092323303,-0.3017674386501312,0.31642818450927734
1732873391205165800,2.163165771484375,-0.33292156457901,-0.33108896017074585,0.5259549617767334
1732873391215123500,2.17312353515625,-0.3121521472930908,-0.3677408695220947,0.6725626587867737
1732873391225154800,2.18315478515625,-0.2370157092809677,-0.3836233615875244,0.7507534027099609
1732873391235142700,2.193142578125,-0.16859880089759827,-0.33597588539123535,0.7806857824325562
1732873391245142500,2.203142578125,-0.17592918872833252,-0.1368338167667389,0.7000515460968018
1732873391255131600,2.213131591796875,-0.27611109614372253,-0.007941247895359993,0.5192354321479797
1732873391265162200,2.223162353515625,-0.45204028487205505,0.0806342139840126,0.2370157092809677
1732873391275121000,2.233120849609375,-0.665232241153717,0.10751228034496307,-0.09529497474431992
1732873391285152500,2.243152587890625,-0.8362745046615601,0.04948008432984352,-0.40683624148368835
1732873391295140400,2.253140380859375,-0.9187413454055786,-0.07391469180583954,-0.646295428276062
1732873391305140500,2.263140380859375,-0.9138544201850891,-0.2223549485206604,-0.779464066028595
1732873391315129300,2.27312939453125,-0.8246681094169617,-0.35674530267715454,-0.7922922372817993
1732873391325160000,2.283159912109375,-0.6328563690185547,-0.4129449129104614,-0.5674937963485718
1732873391335118300,2.293118408203125,-0.5473352670669556,-0.3280346393585205,-0.3084869384765625
1732873391345149400,2.3031494140625,-0.5174028873443604,-0.16004669666290283,-0.04581489413976669
1732873391355137800,2.3131376953125,-0.4996877610683441,0.01710422709584236,0.1563815027475357
1732873391365138400,2.323138427734375,-0.45875978469848633,0.12828169763088226,0.27611109614372253
1732873391375126800,2.333126708984375,-0.3830125033855438,0.1466076523065567,0.2932153046131134
1732873391385158100,2.343158203125,-0.29993483424186707,0.08979719132184982,0.22540926933288574
1732873391395116000,2.353115966796875,-0.20586158335208893,-0.0354301854968071,0.07635815441608429
1732873391405147100,2.363147216796875,-0.1771509200334549,-0.09712757170200348,-0.003054326167330146
1732873391415135500,2.373135498046875,-0.17287486791610718,-0.10751228034496307,-0.05192354694008827
1732873391425166800,2.383166748046875,-0.17592918872833252,-0.08979719132184982,-0.05864306539297104
1732873391435124500,2.39312451171875,-0.18448130786418915,-0.04948008432984352,-0.036041051149368286
1732873391445156600,2.403156494140625,-0.19853121042251587,0.00855211354792118,-0.0012217304902151227
1732873391455144000,2.41314404296875,-0.2168571650981903,0.059864792972803116,0.03848451003432274
1732873391465145300,2.423145263671875,-0.2577851414680481,0.11301007121801376,0.10323622822761536
1732873391475133000,2.4331328125,-0.29138273000717163,0.12522737681865692,0.13500121235847473
1732873391485164800,2.443164794921875,-0.3170390725135803,0.10995574295520782,0.15943582355976105
1732873391495122200,2.4531220703125,-0.32070425152778625,0.08491026610136032,0.1771509200334549
1732873391505153300,2.4631533203125,-0.28588494658470154,0.048258353024721146,0.18631389737129211
1732873391515141600,2.4731416015625,-0.2272418737411499,-0.003054326167330146,0.1820378452539444
1732873391525142500,2.483142578125,-0.15393804013729095,-0.042760565876960754,0.16920967400074005
1732873391535130600,2.493130615234375,-0.07635815441608429,-0.05253441259264946,0.14538592100143433
1732873391545161500,2.503161376953125,0.025656340643763542,-0.00366519158706069,0.11239920556545258
1732873391555119600,2.51311962890625,0.051312681287527084,0.04214970022439957,0.09468411654233932
1732873391565151200,2.523151123046875,0.0507018156349659,0.07208210229873657,0.07513642311096191
1732873391575139000,2.53313916015625,0.0354301854968071,0.09346238523721695,0.06414084881544113
1732873391585139000,2.543138916015625,0.019547687843441963,0.1007927656173706,0.05619960278272629
1732873391595127600,2.55312744140625,-0.003054326167330146,0.09773843735456467,0.04337143152952194
1732873391605158100,2.563158203125,-0.03726277872920036,0.09346238523721695,0.022602014243602753
1732873391615116500,2.573116455078125,-0.10506882518529892,0.0910189226269722,-0.024434609338641167
1732873391625148700,2.583148681640625,-0.15882496535778046,0.06841690838336945,-0.04703662544488907
1732873391635136300,2.59313623046875,-0.21074850857257843,0.028099801391363144,-0.04337143152952194
1732873391645136600,2.60313671875,-0.22968533635139465,-0.004886921960860491,-0.012217304669320583
1732873391655125200,2.613125244140625,-0.2028072625398636,-0.00733038317412138,0.0403171069920063
1732873391665156400,2.62315625,-0.1466076523065567,0.030543262138962746,0.10812314599752426
1732873391675145000,2.63314501953125,-0.08857546001672745,0.07941248267889023,0.16249015927314758
1732873391685145900,2.643145751953125,-0.04886921867728233,0.10323622822761536,0.2223549485206604
1732873391695134200,2.65313427734375,-0.05192354694008827,0.0507018156349659,0.25595253705978394
1732873391705165800,2.663165771484375,-0.06414084881544113,-0.045204028487205505,0.27000242471694946
1732873391715123200,2.673123291015625,-0.07757988572120667,-0.14355333149433136,0.24129177629947662
1732873391725154300,2.683154296875,-0.09346238523721695,-0.21441370248794556,0.16798794269561768
1732873391735142700,2.693142578125,-0.12217304855585098,-0.2474004179239273,0.06902777403593063
1732873391745142800,2.703142822265625,-0.15943582355976105,-0.2583959996700287,-0.039706241339445114
1732873391755131600,2.713131591796875,-0.19058994948863983,-0.27061331272125244,-0.1472185254096985
1732873391765163000,2.7231630859375,-0.1875356286764145,-0.27122417092323303,-0.2541199326515198
1732873391775121000,2.733120849609375,-0.1716531366109848,-0.26022860407829285,-0.26083946228027344
1732873391785152300,2.74315234375,-0.16493362188339233,-0.24434609711170197,-0.21319197118282318
1732873391795140400,2.753140380859375,-0.18081611394882202,-0.22418753802776337,-0.12217304855585098
1732873391805141500,2.7631416015625,-0.23518311977386475,-0.21013765037059784,-0.007941247895359993
1732873391815129000,2.773129150390625,-0.33108896017074585,-0.20525072515010834,0.10873401165008545
1732873391825161200,2.7831611328125,-0.45265114307403564,-0.20952677726745605,0.21624629199504852
1732873391835118300,2.793118408203125,-0.6236934065818787,-0.20463985204696655,0.3396410644054413
1732873391845149400,2.8031494140625,-0.6982190012931824,-0.20463985204696655,0.3805690407752991
1732873391855137800,2.8131376953125,-0.7214318513870239,-0.20830504596233368,0.36102136969566345
1732873391865138000,2.823137939453125,-0.6805039048194885,-0.2064724564552307,0.2742784917354584
1732873391875126800,2.833126708984375,-0.588874101638794,-0.18936823308467865,0.14416420459747314
1732873391885159700,2.84315966796875,-0.4764748811721802,-0.1563815027475357,-0.02321287989616394
1732873391895115800,2.85311572265625,-0.37629300355911255,-0.07757988572120667,-0.21441370248794556
1732873391905147100,2.863147216796875,-0.29077184200286865,0.07269296050071716,-0.49357911944389343
1732873391915135500,2.873135498046875,-0.2968805134296417,0.13072516024112701,-0.607200026512146
1732873391925166600,2.88316650390625,-0.33658674359321594,0.17287486791610718,-0.6499606370925903
1732873391935124500,2.89312451171875,-0.37568211555480957,0.182648703455925,-0.6224716901779175
1732873391945155600,2.903155517578125,-0.40194934606552124,0.15454891324043274,-0.5357288122177124
1732873391955144000,2.91314404296875,-0.40744712948799133,0.10018189996480942,-0.4050036668777466
1732873391965144000,2.92314404296875,-0.3634648323059082,0.03420845419168472,-0.2431243658065796
1732873391975133000,2.9331328125,-0.27550023794174194,-0.03481931984424591,-0.05192354694008827
1732873391985163800,2.943163818359375,-0.08857546001672745,-0.04886921867728233,0.24678955972194672
1732873391995122000,2.953121826171875,0.015271631069481373,-0.015271631069481373,0.41661009192466736
1732873392005153000,2.963153076171875,0.07635815441608429,0.006719517521560192,0.5167919993400574
1732873392015141600,2.9731416015625,0.08857546001672745,0.0006108652451075613,0.5448917746543884
1732873392025142000,2.98314208984375,0.06291911751031876,-0.03237585723400116,0.5143485069274902
1732873392035130600,2.993130615234375,0.03420845419168472,-0.08735372871160507,0.4282165467739105
1732873392045161500,3.003161376953125,0.009773843921720982,-0.17287486791610718,0.2981022298336029
1732873392055119400,3.013119384765625,-0.012828170321881771,-0.27611109614372253,0.07208210229873657
1732873392065150700,3.023150634765625,-0.018936822190880775,-0.31154128909111023,-0.04886921867728233
1732873392075139000,3.03313916015625,-0.006719517521560192,-0.2822197377681732,-0.1264491081237793
1732873392085139700,3.0431396484375,0.022602014243602753,-0.20952677726745605,-0.15332718193531036
1732873392095128000,3.053128173828125,0.059864792972803116,-0.11850785464048386,-0.14049901068210602
1732873392105159200,3.0631591796875,0.0910189226269722,-0.03420845419168472,-0.10445795953273773
1732873392115117300,3.073117431640625,0.11545353382825851,0.021991148591041565,-0.060475658625364304
1732873392125148400,3.0831484375,0.1508837193250656,0.056810468435287476,-0.02932153269648552
1732873392135136800,3.09313671875,0.16432274878025055,0.0555887371301651,-0.036041051149368286
1732873392145137400,3.103137451171875,0.1667662113904953,0.03237585723400116,-0.05619960278272629
1732873392155125800,3.113125732421875,0.1667662113904953,0.00366519158706069,-0.08307767659425735
1732873392165156600,3.123156494140625,0.1716531366109848,-0.015271631069481373,-0.10018189996480942
1732873392175145200,3.133145263671875,0.17959438264369965,-0.02076941914856434,-0.09834930300712585
1732873392185145900,3.143145751953125,0.1966986060142517,-0.01771509274840355,-0.08429940044879913
1732873392195134200,3.15313427734375,0.23396138846874237,0.004886921960860491,-0.06658431142568588
1732873392205164800,3.163164794921875,0.3579670190811157,0.12889257073402405,-0.05009094998240471
1732873392215123200,3.173123291015625,0.4856378734111786,0.22357667982578278,-0.05009094998240471
1732873392225154600,3.183154541015625,0.6059783101081848,0.2474004179239273,-0.06658431142568588
1732873392235143000,3.193142822265625,0.6762278079986572,0.19547687470912933,-0.11972958594560623
1732873392245143600,3.2031435546875,0.6841690540313721,0.05803219974040985,-0.19914206862449646
1732873392255131600,3.213131591796875,0.6359107494354248,-0.12950342893600464,-0.2834414839744568
1732873392265162500,3.22316259765625,0.5326744914054871,-0.304210901260376,-0.3634648323059082
1732873392275121000,3.233120849609375,0.35246923565864563,-0.45265114307403564,-0.43615779280662537
1732873392285151500,3.2431513671875,0.251676470041275,-0.45326200127601624,-0.4404338300228119
1732873392295140400,3.253140380859375,0.18997909128665924,-0.39095374941825867,-0.42088615894317627
1732873392305140700,3.263140625,0.16737708449363708,-0.252287358045578,-0.3836233615875244
1732873392315129300,3.27312939453125,0.1765400618314743,-0.12034045159816742,-0.3237585723400116
1732873392325160200,3.28316015625,0.2119702398777008,-0.05864306539297104,-0.2730567753314972
1732873392335118300,3.293118408203125,0.24495697021484375,-0.06291911751031876,-0.2431243658065796
1732873392345150000,3.30314990234375,0.25106561183929443,-0.19425514340400696,-0.1722639948129654
1732873392355137800,3.3131376953125,0.23396138846874237,-0.303600013256073,-0.08185594528913498
1732873392365139000,3.323138916015625,0.20463985204696655,-0.3854559659957886,0.05803219974040985
1732873392375127000,3.333126953125,0.1716531366109848,-0.43799036741256714,0.23518311977386475
1732873392385158400,3.343158447265625,0.14355333149433136,-0.44226643443107605,0.41111230850219727
1732873392395116000,3.353115966796875,0.12217304855585098,-0.3689626157283783,0.5467243790626526
1732873392405147400,3.3631474609375,0.1062905490398407,-0.2528982162475586,0.6352998614311218
1732873392415135500,3.373135498046875,0.09285151958465576,-0.09651670604944229,0.6695083379745483
1732873392425167000,3.3831669921875,0.07391469180583954,0.14049901068210602,0.6023131608963013
1732873392435124500,3.39312451171875,0.045204028487205505,0.24617868661880493,0.4648684561252594
1732873392445156000,3.403156005859375,-0.009162978269159794,0.3017674386501312,0.24434609711170197
1732873392455144000,3.41314404296875,-0.06719517707824707,0.2889392673969269,-0.03481931984424591
1732873392465145000,3.42314501953125,-0.11056660860776901,0.21074850857257843,-0.3274237811565399
1732873392475133000,3.4331328125,-0.12889257073402405,0.12889257073402405,-0.5705481171607971
1732873392485164500,3.44316455078125,-0.12217304855585098,0.07452555745840073,-0.7092145681381226
1732873392495122000,3.453121826171875,-0.08429940044879913,0.05742133408784866,-0.6933320760726929
1732873392505153500,3.463153564453125,-0.036041051149368286,0.11911872029304504,-0.5919284224510193
1732873392515141600,3.4731416015625,0.02871066704392433,0.2168571650981903,-0.45814892649650574
1732873392525142000,3.48314208984375,0.0910189226269722,0.3017674386501312,-0.30115658044815063
1732873392535130600,3.493130615234375,0.13316862285137177,0.36163222789764404,-0.14844025671482086
1732873392545161500,3.503161376953125,0.15577064454555511,0.3799581825733185,-0.029932396486401558
1732873392555119600,3.51311962890625,0.17104226350784302,0.3579670190811157,0.04703662544488907
1732873392565150500,3.523150390625,0.18997909128665924,0.2669481039047241,0.11972958594560623
1732873392575139000,3.53313916015625,0.21074850857257843,0.18997909128665924,0.1466076523065567
1732873392585139500,3.543139404296875,0.23518311977386475,0.12522737681865692,0.152105450630188
1732873392595127300,3.553127197265625,0.25045475363731384,0.08491026610136032,0.14905111491680145
1732873392605159400,3.563159423828125,0.26083946228027344,0.060475658625364304,0.14294247329235077
1732873392615116800,3.57311669921875,0.2724458873271942,0.05619960278272629,0.1472185254096985
1732873392625148400,3.5831484375,0.2779437005519867,0.054367005825042725,0.1820378452539444
1732873392635136300,3.59313623046875,0.2877175211906433,0.06841690838336945,0.2370157092809677
1732873392645136600,3.60313671875,0.30543261766433716,0.11484266817569733,0.3225368559360504
1732873392655125200,3.613125244140625,0.3090978264808655,0.12767083942890167,0.3836233615875244
1732873392665156400,3.62315625,0.2926044464111328,0.12278391420841217,0.42699480056762695
1732873392675145000,3.63314501953125,0.2828305959701538,0.10995574295520782,0.43799036741256714
1732873392685145600,3.6431455078125,0.2981022298336029,0.08429940044879913,0.40133845806121826
1732873392695134200,3.65313427734375,0.3390302062034607,0.06352998316287994,0.323147714138031
1732873392705165300,3.663165283203125,0.40744712948799133,0.07513642311096191,0.23090706765651703
1732873392715123200,3.673123291015625,0.5076290369033813,0.12767083942890167,0.11362093687057495
1732873392725154800,3.68315478515625,0.5296201705932617,0.2076941877603531,0.06475171446800232
1732873392735142700,3.693142578125,0.5510004758834839,0.2779437005519867,0.04948008432984352
1732873392745144000,3.70314404296875,0.5717698931694031,0.2877175211906433,0.04581489413976669
1732873392755131600,3.713131591796875,0.5656611919403076,0.30543261766433716,0.039706241339445114
1732873392765163500,3.72316357421875,0.5406157374382019,0.303600013256073,0.045204028487205505
1732873392775120600,3.73312060546875,0.5216789245605469,0.2974913716316223,0.05009094998240471
1732873392785152500,3.743152587890625,0.5229006409645081,0.2834414839744568,0.06536258012056351
1732873392795140400,3.753140380859375,0.5363397002220154,0.2571742534637451,0.08674286305904388
1732873392805141500,3.7631416015625,0.5674937963485718,0.2223549485206604,0.10262536257505417
1732873392815129300,3.77312939453125,0.6218608021736145,0.19425514340400696,0.11850785464048386
1732873392825161000,3.783160888671875,0.6890559792518616,0.18997909128665924,0.13561208546161652
1732873392835118300,3.793118408203125,0.7391469478607178,0.19303341209888458,0.15943582355976105
1732873392845150200,3.803150146484375,0.7538077235221863,0.19425514340400696,0.18448130786418915
1732873392855137800,3.8131376953125,0.7360926270484924,0.2015855312347412,0.2028072625398636
1732873392865139200,3.82313916015625,0.6059783101081848,0.20463985204696655,0.26022860407829285
1732873392875126800,3.833126708984375,0.4764748811721802,0.18509216606616974,0.31642818450927734
1732873392885158100,3.843158203125,0.375071257352829,0.1508837193250656,0.35124751925468445
1732873392895116000,3.853115966796875,0.31581732630729675,0.11178833991289139,0.31154128909111023
1732873392905146000,3.86314599609375,0.2840523421764374,0.059864792972803116,0.15454891324043274
1732873392915135500,3.873135498046875,0.3121521472930908,-0.010995574295520782,-0.14905111491680145
1732873392925168000,3.883168212890625,0.42149701714515686,-0.09224065393209457,-0.5723807215690613
1732873392935124500,3.89312451171875,0.655458390712738,-0.3830125033855438,-1.2455542087554932
1732873392945185300,3.903185302734375,0.7525860071182251,-0.6298020482063293,-1.5143349170684814
1732873392955144000,3.91314404296875,0.7415903806686401,-0.7648032903671265,-1.5234979391098022
1732873392965145000,3.92314501953125,0.6163630485534668,-0.7464773058891296,-1.3078625202178955
1732873392975133000,3.9331328125,0.3891211748123169,-0.5998696684837341,-0.9547823667526245
1732873392985164500,3.94316455078125,0.09346238523721695,-0.39584067463874817,-0.5699372887611389
1732873392995122000,3.953121826171875,-0.192422553896904,-0.1771509200334549,-0.27000242471694946
1732873393005152800,3.96315283203125,-0.4031710624694824,0.09407325088977814,-0.02382374368607998
1732873393015141600,3.9731416015625,-0.3799581825733185,0.21319197118282318,0.06291911751031876
1732873393025141500,3.9831416015625,-0.2669481039047241,0.2785545587539673,0.11178833991289139
1732873393035130600,3.993130615234375,-0.1160643994808197,0.3017674386501312,0.13011430203914642
1732873393045161000,4.003160888671875,0.02871066704392433,0.2767219543457031,0.14049901068210602
1732873393055119400,4.013119384765625,0.1466076523065567,0.21013765037059784,0.1514945775270462
1732873393065150200,4.023150146484375,0.23884831368923187,0.08674286305904388,0.13072516024112701
1732873393075139000,4.03313916015625,0.31093040108680725,-0.08735372871160507,0.04764748737215996
1732873393085140000,4.043139892578125,0.3591887652873993,-0.3927863538265228,-0.16982053220272064
1732873393095128000,4.053128173828125,0.3433062732219696,-0.5564982295036316,-0.32620203495025635
1732873393105159700,4.06315966796875,0.28955012559890747,-0.6200281977653503,-0.43188172578811646
1732873393115117300,4.073117431640625,0.21930062770843506,-0.5894849896430969,-0.4550946056842804
1732873393125148700,4.083148681640625,0.16065755486488342,-0.4715879559516907,-0.3878994286060333
1732873393135136500,4.093136474609375,0.12767083942890167,-0.28466320037841797,-0.24556782841682434
1732873393145138000,4.103137939453125,0.10751228034496307,-0.06352998316287994,-0.05253441259264946
1732873393155125800,4.113125732421875,0.08246681094169617,0.19547687470912933,0.21074850857257843
1732873393165157000,4.1231572265625,0.08002334833145142,0.29016098380088806,0.29016098380088806
1732873393175145200,4.133145263671875,0.08918632566928864,0.31581732630729675,0.29626965522766113
1732873393185145600,4.1431455078125,0.10262536257505417,0.3066543638706207,0.2382374405860901
1732873393195134200,4.15313427734375,0.1270599663257599,0.30115658044815063,0.12339477986097336
1732873393205165000,4.1631650390625,0.14844025671482086,0.3292563557624817,0.001832595793530345
1732873393215123500,4.17312353515625,0.1508837193250656,0.39645153284072876,-0.08979719132184982
1732873393225154800,4.18315478515625,0.1215621829032898,0.5393940210342407,-0.18081611394882202
1732873393235142700,4.193142578125,0.1007927656173706,0.6261368989944458,-0.2125810980796814
1732873393245143800,4.203143798828125,0.07819075137376785,0.6835582256317139,-0.21441370248794556
1732873393255131600,4.213131591796875,0.05864306539297104,0.7006624341011047,-0.17959438264369965
1732873393265163500,4.22316357421875,0.05925392732024193,0.6896668672561646,-0.12889257073402405
1732873393275121000,4.233120849609375,0.0910189226269722,0.6786713004112244,-0.07819075137376785
1732873393285151000,4.24315087890625,0.14477506279945374,0.6609562039375305,-0.04214970022439957
1732873393295140400,4.253140380859375,0.2125810980796814,0.636521577835083,-0.025656340643763542
1732873393305141200,4.263141357421875,0.3084869384765625,0.5546656250953674,-0.009162978269159794
1732873393315129300,4.27312939453125,0.35063666105270386,0.4911356568336487,0.015271631069481373
1732873393325161000,4.283160888671875,0.3738495409488678,0.41172316670417786,0.05742133408784866
1732873393335118300,4.293118408203125,0.3885102868080139,0.34574973583221436,0.0959058403968811
1732873393345150200,4.303150146484375,0.40194934606552124,0.3237585723400116,0.11239920556545258
1732873393355137800,4.3131376953125,0.4092797040939331,0.33169981837272644,0.10262536257505417
1732873393365139200,4.32313916015625,0.39706242084503174,0.3323107063770294,0.0659734457731247
1732873393375126800,4.333126708984375,0.342695415019989,0.2724458873271942,-0.07269296050071716
1732873393385157400,4.343157470703125,0.3170390725135803,0.19975294172763824,-0.21991148591041565
1732873393395116000,4.353115966796875,0.32620203495025635,0.10812314599752426,-0.38117989897727966
1732873393405146400,4.363146484375,0.3695734739303589,0.01771509274840355,-0.5125159621238708
1732873393415135700,4.3731357421875,0.42210787534713745,-0.05253441259264946,-0.5870414972305298
1732873393425167000,4.3831669921875,0.45692721009254456,-0.09651670604944229,-0.5962044596672058
1732873393435124500,4.39312451171875,0.455705463886261,-0.11667526513338089,-0.5448917746543884
1732873393445156000,4.403156005859375,0.3701843321323395,-0.0910189226269722,-0.413555771112442
1732873393455144000,4.41314404296875,0.27977627515792847,-0.03481931984424591,-0.3243694305419922
1732873393465145300,4.423145263671875,0.192422553896904,0.04703662544488907,-0.23945917189121246
1732873393475133000,4.4331328125,0.11850785464048386,0.12278391420841217,-0.17409659922122955
1732873393485164800,4.443164794921875,0.07452555745840073,0.18448130786418915,-0.13072516024112701
1732873393495122200,4.4531220703125,0.0659734457731247,0.2064724564552307,-0.09712757170200348
1732873393505153500,4.463153564453125,0.0806342139840126,0.18387043476104736,-0.05619960278272629
1732873393515141600,4.4731416015625,0.09651670604944229,0.13439035415649414,-0.00733038317412138
1732873393525142800,4.483142822265625,0.09346238523721695,0.006719517521560192,0.07941248267889023
1732873393535131000,4.493130859375,0.0757472887635231,-0.07819075137376785,0.15027284622192383
1732873393545162200,4.503162353515625,0.051312681287527084,-0.1264491081237793,0.21868975460529327
1732873393555119600,4.51311962890625,0.036041051149368286,-0.13316862285137177,0.2822197377681732
1732873393565151200,4.523151123046875,0.029932396486401558,-0.10018189996480942,0.32620203495025635
1732873393575139000,4.53313916015625,0.022602014243602753,-0.05314527451992035,0.3396410644054413
1732873393585140000,4.543139892578125,0.01771509274840355,-0.030543262138962746,0.313373863697052
1732873393595127300,4.553127197265625,0.02076941914856434,-0.07513642311096191,0.2125810980796814
1732873393605159400,4.563159423828125,0.01771509274840355,-0.1417207419872284,0.1258382350206375
1732873393615116800,4.57311669921875,0.009162978269159794,-0.2028072625398636,0.04092797264456749
1732873393625148400,4.5831484375,-0.004886921960860491,-0.24190263450145721,-0.00733038317412138
1732873393635136000,4.593135986328125,-0.028099801391363144,-0.2583959996700287,-0.006719517521560192
1732873393645137200,4.60313720703125,-0.06902777403593063,-0.2528982162475586,0.03481931984424591
1732873393655125200,4.613125244140625,-0.12767083942890167,-0.23335053026676178,0.1062905490398407
1732873393665156900,4.623156982421875,-0.2168571650981903,-0.21013765037059784,0.22968533635139465
1732873393675145000,4.63314501953125,-0.26939156651496887,-0.18936823308467865,0.3017674386501312
1732873393685145900,4.643145751953125,-0.3072652220726013,-0.16004669666290283,0.3530801236629486
1732873393695134200,4.65313427734375,-0.3176499307155609,-0.13561208546161652,0.37201693654060364
1732873393705164300,4.663164306640625,-0.3090978264808655,-0.12950342893600464,0.37140607833862305
1732873393715123200,4.673123291015625,-0.29016098380088806,-0.14294247329235077,0.35735616087913513
1732873393725153500,4.683153564453125,-0.2565633952617645,-0.1771509200334549,0.3341432809829712
1732873393735142700,4.693142578125,-0.20402899384498596,-0.21502456068992615,0.3243694305419922
1732873393745142500,4.703142578125,-0.1215621829032898,-0.242513507604599,0.3628539443016052
1732873393755131600,4.713131591796875,-0.1014036312699318,-0.2528982162475586,0.42088615894317627
1732873393765163300,4.723163330078125,-0.09346238523721695,-0.24617868661880493,0.47708576917648315
1732873393775120600,4.73312060546875,-0.06230825558304787,-0.18448130786418915,0.5076290369033813
1732873393785151700,4.74315185546875,-0.01771509274840355,-0.054367005825042725,0.494189977645874
1732873393795140400,4.753140380859375,0.012217304669320583,0.09468411654233932,0.4153883755207062
1732873393805140700,4.763140625,0.021380282938480377,0.21991148591041565,0.26450464129447937
1732873393815129300,4.77312939453125,0.04581489413976669,0.28527405858039856,-0.025656340643763542
1732873393825161000,4.783160888671875,0.04398229718208313,0.20586158335208893,-0.19608774781227112
1732873393835118300,4.793118408203125,0.00366519158706069,0.07330382615327835,-0.37140607833862305
1732873393845150000,4.80314990234375,-0.04153883829712868,-0.05742133408784866,-0.5302310585975647
1732873393855137800,4.8131376953125,-0.08368854224681854,-0.1264491081237793,-0.6316346526145935
1732873393865139000,4.823138916015625,-0.11911872029304504,-0.12278391420841217,-0.6426302194595337
1732873393875126800,4.833126708984375,-0.1466076523065567,-0.05253441259264946,-0.5711590051651001
1732873393885158400,4.843158447265625,-0.1459967941045761,0.08918632566928864,-0.3628539443016052
1732873393895116000,4.853115966796875,-0.12889257073402405,0.18325957655906677,-0.2119702398777008
1732873393905147400,4.8631474609375,-0.09712757170200348,0.2816088795661926,-0.10934487730264664
1732873393915135500,4.873135498046875,-0.06719517707824707,0.34147366881370544,-0.06963863968849182
1732873393925167000,4.8831669921875,-0.0507018156349659,0.35552358627319336,-0.10445795953273773
1732873393935124500,4.89312451171875,-0.04764748737215996,0.33597588539123535,-0.2125810980796814
1732873393945156000,4.903156005859375,-0.05742133408784866,0.2938261926174164,-0.37568211555480957
1732873393955144000,4.91314404296875,-0.07880161702632904,0.17776179313659668,-0.5455026626586914
1732873393965145000,4.92314501953125,-0.09529497474431992,-0.12034045159816742,-0.7061602473258972
1732873393975133000,4.9331328125,-0.09224065393209457,-0.33108896017074585,-0.6896668672561646
1732873393985164500,4.94316455078125,-0.07269296050071716,-0.49846604466438293,-0.5510004758834839
1732873393995122000,4.953121826171875,-0.039706241339445114,-0.5632177591323853,-0.32131510972976685
1732873394005153500,4.963153564453125,0.01466076634824276,-0.5057964324951172,-0.06841690838336945
1732873394015141600,4.9731416015625,0.08491026610136032,-0.34025195240974426,0.14782938361167908
1732873394025142500,4.983142578125,0.1508837193250656,-0.12889257073402405,0.28527405858039856
1732873394035130600,4.993130615234375,0.19486601650714874,0.10018189996480942,0.3237585723400116
1732873394045161200,5.0031611328125,0.19425514340400696,0.15027284622192383,0.25534167885780334
1732873394055119600,5.01311962890625,0.19364428520202637,0.1258382350206375,0.15515977144241333
1732873394065150500,5.023150390625,0.19608774781227112,0.06230825558304787,0.0806342139840126
1732873394075139000,5.03313916015625,0.20891591906547546,0.00427605677396059,0.05314527451992035
1732873394085139700,5.0431396484375,0.2321287989616394,-0.02321287989616394,0.07330382615327835
1732873394095128000,5.053128173828125,0.26939156651496887,0.009773843921720982,0.11850785464048386
1732873394105159700,5.06315966796875,0.33292156457901,0.11362093687057495,0.2076941877603531
1732873394115117000,5.073116943359375,0.3787364661693573,0.2015855312347412,0.24617868661880493
1732873394125149000,5.08314892578125,0.42760565876960754,0.2718350291252136,0.2626720666885376
1732873394135136500,5.093136474609375,0.4691445231437683,0.2993239760398865,0.2632829248905182
1732873394145138000,5.103137939453125,0.49235737323760986,0.2675589919090271,0.251676470041275
1732873394155125500,5.11312548828125,0.5009095072746277,0.1966986060142517,0.23579397797584534
1732873394165157400,5.123157470703125,0.48258355259895325,0.0959058403968811,0.21991148591041565
1732873394175145200,5.133145263671875,0.4282165467739105,-0.04581489413976669,0.21930062770843506
1732873394185145000,5.14314501953125,0.313373863697052,-0.17043140530586243,0.19914206862449646
1732873394195134200,5.15313427734375,0.23396138846874237,-0.1466076523065567,0.18325957655906677
1732873394205165800,5.163165771484375,0.17959438264369965,-0.0354301854968071,0.18997909128665924
1732873394215123500,5.17312353515625,0.15027284622192383,0.1368338167667389,0.2321287989616394
1732873394225154800,5.18315478515625,0.15332718193531036,0.3384193480014801,0.2926044464111328
1732873394235142700,5.193142578125,0.20341812074184418,0.5326744914054871,0.3280346393585205
1732873394245143000,5.20314306640625,0.28099802136421204,0.6615670323371887,0.3323107063770294
1732873394255131600,5.213131591796875,0.39156460762023926,0.6627888083457947,0.2785545587539673
1732873394265163500,5.22316357421875,0.4593706727027893,0.5406157374382019,0.19058994948863983
1732873394275121000,5.233120849609375,0.5210680365562439,0.3488040566444397,0.0861319974064827
1732873394285152800,5.24315283203125,0.5626068711280823,0.1411098688840866,-0.010995574295520782
1732873394295140400,5.253140380859375,0.5809328556060791,-0.025045474991202354,-0.09773843735456467
1732873394305141500,5.2631416015625,0.6004805564880371,-0.0959058403968811,-0.18325957655906677
1732873394315129300,5.27312939453125,0.6163630485534668,-0.04581489413976669,-0.26022860407829285
1732873394325159700,5.28315966796875,0.6010913848876953,0.1814269721508026,-0.4092797040939331
1732873394335118300,5.293118408203125,0.5149593949317932,0.4141666293144226,-0.5302310585975647
1732873394345150000,5.30314990234375,0.38667771220207214,0.5650503635406494,-0.6010913848876953
1732873394355137800,5.3131376953125,0.2626720666885376,0.578489363193512,-0.5913175344467163
1732873394365139000,5.323138916015625,0.16798794269561768,0.4746423065662384,-0.49724429845809937
1732873394375126800,5.333126708984375,0.10018189996480942,0.3170390725135803,-0.3445279896259308
1732873394385158400,5.343158447265625,0.06841690838336945,0.15271630883216858,-0.17470745742321014
1732873394395116000,5.353115966796875,0.07452555745840073,0.039095375686883926,-0.04948008432984352
1732873394405147000,5.36314697265625,0.10018189996480942,-0.030543262138962746,-0.021991148591041565
1732873394415135500,5.373135498046875,0.09224065393209457,-0.0910189226269722,-0.10812314599752426
1732873394425166300,5.383166259765625,0.07635815441608429,-0.1814269721508026,-0.27488934993743896
1732873394435124500,5.39312451171875,0.07208210229873657,-0.2681698501110077,-0.4801400899887085
1732873394445156000,5.403156005859375,0.06963863968849182,-0.30970868468284607,-0.6481280326843262
1732873394455144000,5.41314404296875,0.042760565876960754,-0.29565876722335815,-0.7287622094154358
1732873394465145300,5.423145263671875,-0.024434609338641167,-0.2431243658065796,-0.6908885836601257
1732873394475133000,5.4331328125,-0.1966986060142517,-0.17043140530586243,-0.4190535545349121
1732873394485164800,5.443164794921875,-0.33169981837272644,-0.1459967941045761,-0.16065755486488342
1732873394495122000,5.453121826171875,-0.4495968222618103,-0.19120082259178162,0.08491026610136032
1732873394505153800,5.46315380859375,-0.5302310585975647,-0.2834414839744568,0.2736676335334778
1732873394515141600,5.4731416015625,-0.5632177591323853,-0.3787364661693573,0.3995058834552765
1732873394525142800,5.483142822265625,-0.5510004758834839,-0.45142942667007446,0.47708576917648315
1732873394535131000,5.493130859375,-0.5112941861152649,-0.4807509481906891,0.5271766781806946
1732873394545162000,5.503161865234375,-0.4251621961593628,-0.3952298164367676,0.5442809462547302
1732873394555119600,5.51311962890625,-0.3787364661693573,-0.2822197377681732,0.5338962078094482
1732873394565150500,5.523150390625,-0.3445279896259308,-0.17043140530586243,0.5143485069274902
1732873394575139000,5.53313916015625,-0.3390302062034607,-0.07513642311096191,0.4966334402561188
1732873394585140200,5.54314013671875,-0.3585779070854187,-0.025045474991202354,0.484416127204895
1732873394595127000,5.553126953125,-0.3995058834552765,-0.039095375686883926,0.47708576917648315
1732873394605159400,5.563159423828125,-0.46181413531303406,-0.09529497474431992,0.4801400899887085
1732873394615116500,5.573116455078125,-0.5314527750015259,-0.16004669666290283,0.494189977645874
1732873394625148400,5.5831484375,-0.5931501388549805,-0.24007004499435425,0.5180137157440186
1732873394635136300,5.59313623046875,-0.5974262356758118,-0.2638937830924988,0.5088507533073425
1732873394645136400,5.603136474609375,-0.5619960427284241,-0.2382374405860901,0.4605923891067505
1732873394655125200,5.613125244140625,-0.50335294008255,-0.20036379992961884,0.4001167416572571
1732873394665155800,5.62315576171875,-0.4447098970413208,-0.17104226350784302,0.34208452701568604
1732873394675145000,5.63314501953125,-0.4080579876899719,-0.1466076523065567,0.27977627515792847
1732873394685145600,5.6431455078125,-0.3995058834552765,-0.11239920556545258,0.20891591906547546
1732873394695134200,5.65313427734375,-0.3952298164367676,-0.08552113175392151,0.11423180252313614
1732873394705165600,5.66316552734375,-0.39767327904701233,-0.10812314599752426,0.06108652427792549
1732873394715123500,5.67312353515625,-0.40622538328170776,-0.1661553531885147,0.012217304669320583
1732873394725155000,5.683155029296875,-0.4043927788734436,-0.2272418737411499,-0.036041051149368286
1732873394735142700,5.693142578125,-0.3897320330142975,-0.26633724570274353,-0.06108652427792549
1732873394745144000,5.70314404296875,-0.3695734739303589,-0.2889392673969269,-0.05864306539297104
1732873394755131600,5.713131591796875,-0.34086281061172485,-0.2974913716316223,-0.04092797264456749
1732873394765163500,5.72316357421875,-0.28038713335990906,-0.2474004179239273,-0.00855211354792118
1732873394775120600,5.73312060546875,-0.23884831368923187,-0.18448130786418915,0.01160643994808197
1732873394785152300,5.74315234375,-0.21074850857257843,-0.11423180252313614,0.019547687843441963
1732873394795140400,5.753140380859375,-0.21013765037059784,-0.05742133408784866,0.01466076634824276
1732873394805141500,5.7631416015625,-0.24190263450145721,-0.03298672288656235,-0.00733038317412138
1732873394815129300,5.77312939453125,-0.30604347586631775,-0.04948008432984352,-0.036041051149368286
1732873394825161000,5.783160888671875,-0.38606682419776917,-0.09407325088977814,-0.06719517707824707
1732873394835118300,5.793118408203125,-0.4612032473087311,-0.17776179313659668,-0.09407325088977814
1732873394845150200,5.803150146484375,-0.5412266254425049,-0.29077184200286865,-0.13561208546161652
1732873394855137800,5.8131376953125,-0.5577199459075928,-0.32498031854629517,-0.15943582355976105
1732873394865139200,5.82313916015625,-0.5381723046302795,-0.34208452701568604,-0.1814269721508026
1732873394875126800,5.833126708984375,-0.4758640229701996,-0.32620203495025635,-0.21074850857257843
1732873394885158700,5.84315869140625,-0.4001167416572571,-0.2785545587539673,-0.23090706765651703
1732873394895115800,5.85311572265625,-0.33536502718925476,-0.22357667982578278,-0.2480112910270691
1732873394905147600,5.863147705078125,-0.2785545587539673,-0.16798794269561768,-0.27550023794174194
1732873394915135500,5.873135498046875,-0.22846360504627228,-0.09896016865968704,-0.34208452701568604
1732873394925167000,5.8831669921875,-0.23273965716362,-0.08979719132184982,-0.4202753007411957
1732873394935124500,5.89312451171875,-0.242513507604599,-0.09346238523721695,-0.5296201705932617
1732873394945182700,5.9031826171875,-0.2535090744495392,-0.11178833991289139,-0.6352998614311218
1732873394955144000,5.91314404296875,-0.2626720666885376,-0.12095131725072861,-0.7134906053543091
1732873394965144800,5.923144775390625,-0.2675589919090271,-0.1111774742603302,-0.7483099102973938
1732873394975133200,5.93313330078125,-0.2730567753314972,-0.06291911751031876,-0.7348709106445312
1732873394985164500,5.94316455078125,-0.29016098380088806,0.06291911751031876,-0.6872233748435974
1732873394995122000,5.953121826171875,-0.3127630054950714,0.1667662113904953,-0.6731734871864319
1732873395005153000,5.963153076171875,-0.3280346393585205,0.27061331272125244,-0.6872233748435974
1732873395015141600,5.9731416015625,-0.3084869384765625,0.38728857040405273,-0.7257078886032104
1732873395025142000,5.98314208984375,-0.2590068578720093,0.503963828086853,-0.7556403279304504
1732873395035130600,5.993130615234375,-0.2021963894367218,0.5253441333770752,-0.7476990818977356
1732873395045161200,6.0031611328125,-0.14844025671482086,0.42088615894317627,-0.7122688889503479
1732873395055119400,6.013119384765625,-0.09346238523721695,0.24190263450145721,-0.6823364496231079
1732873395065150700,6.023150634765625,-0.004886921960860491,-0.09407325088977814,-0.6194173693656921
1732873395075139000,6.03313916015625,0.051312681287527084,-0.28527405858039856,-0.5564982295036316
1732873395085140000,6.043139892578125,0.09529497474431992,-0.39584067463874817,-0.49846604466438293
1732873395095128000,6.053128173828125,0.10873401165008545,-0.4447098970413208,-0.44776421785354614
1732873395105159700,6.06315966796875,0.10567969083786011,-0.4196644127368927,-0.3830125033855438
1732873395115117000,6.073116943359375,0.07941248267889023,-0.32009339332580566,-0.26450464129447937
1732873395125148700,6.083148681640625,0.04581489413976669,-0.18325957655906677,-0.07880161702632904
1732873395135136500,6.093136474609375,0.02626720629632473,0.03176499158143997,0.303600013256073
1732873395145138000,6.103137939453125,0.0403171069920063,0.15454891324043274,0.5949827432632446
1732873395155125800,6.113125732421875,0.04337143152952194,0.21868975460529327,0.8723155856132507
1732873395165157000,6.1231572265625,0.022602014243602753,0.19120082259178162,1.076344609260559
1732873395175145200,6.133145263671875,-0.0024434609804302454,0.10018189996480942,1.1551461219787598
1732873395185145600,6.1431455078125,-0.00733038317412138,-0.004886921960860491,1.1142182350158691
1732873395195134200,6.15313427734375,0.005497787147760391,-0.09285151958465576,0.9828822016716003
1732873395205165300,6.163165283203125,0.08002334833145142,-0.15760323405265808,0.7092145681381226
1732873395215123200,6.173123291015625,0.18570303916931152,-0.12217304855585098,0.5369505286216736
1732873395225154600,6.183154541015625,0.32070425152778625,-0.03787364438176155,0.40072759985923767
1732873395235143000,6.193142822265625,0.4440990388393402,0.05864306539297104,0.33047810196876526
1732873395245143300,6.203143310546875,0.5308418869972229,0.15943582355976105,0.3182607889175415
1732873395255131600,6.213131591796875,0.598647952079773,0.2376265823841095,0.32986724376678467
1732873395265163800,6.223163818359375,0.6572909951210022,0.2626720666885376,0.3127630054950714
1732873395275120600,6.23312060546875,0.6963863968849182,0.2583959996700287,0.24617868661880493
1732873395285151700,6.24315185546875,0.7159340381622314,0.2278527319431305,0.08491026610136032
1732873395295140400,6.253140380859375,0.7226535677909851,0.21624629199504852,-0.036041051149368286
1732873395305141000,6.26314111328125,0.7293730974197388,0.2590068578720093,-0.13744467496871948
1732873395315129300,6.27312939453125,0.7739662528038025,0.33292156457901,-0.20036379992961884
1732873395325160700,6.28316064453125,0.8820894360542297,0.44104471802711487,-0.2028072625398636
1732873395335118300,6.293118408203125,1.037249207496643,0.5900958180427551,-0.14905111491680145
1732873395345150200,6.303150146484375,1.1728612184524536,0.7776314616203308,-0.06841690838336945
1732873395355137800,6.3131376953125,1.2009611129760742,0.9657779335975647,0.060475658625364304
1732873395365138000,6.323137939453125,1.10139000415802,1.009149432182312,0.14294247329235077
1732873395375126800,6.333126708984375,0.9657779335975647,0.960280179977417,0.19425514340400696
1732873395385157000,6.3431572265625,0.7953465580940247,0.7727445363998413,0.22602014243602753
1732873395395116000,6.353115966796875,0.6023131608963013,0.49296826124191284,0.23335053026676178
1732873395405147600,6.363147705078125,0.4306600093841553,0.11850785464048386,0.19914206862449646
1732873395415135500,6.373135498046875,0.28527405858039856,-0.2730567753314972,0.08124507963657379
1732873395425167000,6.3831669921875,0.16493362188339233,-0.6615670323371887,-0.22846360504627228
1732873395435124500,6.39312451171875,0.1875356286764145,-0.7922922372817993,-0.4404338300228119
1732873395445154800,6.40315478515625,0.24556782841682434,-0.8106181621551514,-0.5955936312675476
1732873395455144000,6.41314404296875,0.2919935882091522,-0.7202101349830627,-0.6597344875335693
1732873395465145300,6.423145263671875,0.2871066629886627,-0.5534439086914062,-0.6120869517326355
1732873395475133000,6.4331328125,0.2174680233001709,-0.3530801236629486,-0.4648684561252594
1732873395485164800,6.443164794921875,0.11301007121801376,-0.1667662113904953,-0.2724458873271942
1732873395495122000,6.453121826171875,0.010995574295520782,-0.03237585723400116,-0.10812314599752426
1732873395505153300,6.4631533203125,-0.11178833991289139,0.012217304669320583,-0.04214970022439957
1732873395515141600,6.4731416015625,-0.17837265133857727,-0.06169738993048668,-0.12339477986097336
1732873395525142800,6.483142822265625,-0.22052235901355743,-0.1814269721508026,-0.2791654169559479
1732873395535130600,6.493130615234375,-0.23579397797584534,-0.3170390725135803,-0.4599815309047699
1732873395545162200,6.503162353515625,-0.24434609711170197,-0.4196644127368927,-0.6010913848876953
1732873395555119600,6.51311962890625,-0.26511552929878235,-0.4795292317867279,-0.6786713004112244
1732873395565151200,6.523151123046875,-0.2968805134296417,-0.4764748811721802,-0.684779942035675
1732873395575139000,6.53313916015625,-0.35613444447517395,-0.3494149148464203,-0.5302310585975647
1732873395585140500,6.543140380859375,-0.3799581825733185,-0.242513507604599,-0.3378084897994995
1732873395595127000,6.553126953125,-0.3995058834552765,-0.14233160018920898,-0.10995574295520782
1732873395605159400,6.563159423828125,-0.3988949954509735,-0.0757472887635231,0.11239920556545258
1732873395615116500,6.573116455078125,-0.3793473243713379,-0.04948008432984352,0.2840523421764374
1732873395625148700,6.583148681640625,-0.34636059403419495,-0.05742133408784866,0.3854559659957886
1732873395635136000,6.593135986328125,-0.31031954288482666,-0.09346238523721695,0.4306600093841553
1732873395645137400,6.603137451171875,-0.24617868661880493,-0.1661553531885147,0.43676865100860596
1732873395655125200,6.613125244140625,-0.20952677726745605,-0.19792033731937408,0.4398229718208313
1732873395665156900,6.623156982421875,-0.1875356286764145,-0.20463985204696655,0.4691445231437683
1732873395675144700,6.633144775390625,-0.19058994948863983,-0.17348572611808777,0.5198463201522827
1732873395685145900,6.643145751953125,-0.2168571650981903,-0.12950342893600464,0.5778785347938538
1732873395695134200,6.65313427734375,-0.26145032048225403,-0.09040805697441101,0.6151412725448608
1732873395705165800,6.663165771484375,-0.32131510972976685,-0.06414084881544113,0.6139195561408997
1732873395715123200,6.673123291015625,-0.3799581825733185,-0.07757988572120667,0.578489363193512
1732873395725154800,6.68315478515625,-0.4392121136188507,-0.07696902006864548,0.4954117238521576
1732873395735142700,6.693142578125,-0.44593164324760437,-0.0757472887635231,0.42577308416366577
1732873395745144000,6.70314404296875,-0.4300491213798523,-0.07513642311096191,0.33719760179519653
1732873395755131600,6.713131591796875,-0.3878994286060333,-0.06536258012056351,0.22052235901355743
1732873395765162500,6.72316259765625,-0.28649580478668213,-0.0507018156349659,0.08735372871160507
1732873395775120600,6.73312060546875,-0.1716531366109848,-0.0507018156349659,-0.018936822190880775
1732873395785152000,6.743152099609375,-0.0757472887635231,-0.059864792972803116,-0.09957103431224823
1732873395795140400,6.753140380859375,-0.0354301854968071,-0.04642575979232788,-0.1765400618314743
1732873395805141200,6.763141357421875,-0.07819075137376785,-0.033597588539123535,-0.18631389737129211
1732873395815129300,6.77312939453125,-0.15821409225463867,-0.039095375686883926,-0.1716531366109848
1732873395825161000,6.783160888671875,-0.23396138846874237,-0.03726277872920036,-0.17837265133857727
1732873395835118300,6.793118408203125,-0.2779437005519867,-0.012217304669320583,-0.21991148591041565
1732873395845150200,6.803150146484375,-0.32681289315223694,0.03726277872920036,-0.252287358045578
1732873395855137800,6.8131376953125,-0.37629300355911255,0.10323622822761536,-0.27000242471694946
1732873395865139000,6.823138916015625,-0.3995058834552765,0.24373523890972137,-0.32070425152778625
1732873395875126800,6.833126708984375,-0.39645153284072876,0.32620203495025635,-0.37690386176109314
1732873395885158700,6.84315869140625,-0.40194934606552124,0.36713001132011414,-0.47769662737846375
1732873395895115800,6.85311572265625,-0.4056145250797272,0.3744603991508484,-0.616973876953125
1732873395905147400,6.8631474609375,-0.40072759985923767,0.3286454975605011,-0.7574729323387146
1732873395915135500,6.873135498046875,-0.37751471996307373,0.2932153046131134,-0.8588765263557434
1732873395925167000,6.8831669921875,-0.33658674359321594,0.24434609711170197,-0.8765916228294373
1732873395935124500,6.89312451171875,-0.29565876722335815,0.1966986060142517,-0.817948579788208
1732873395945156000,6.903156005859375,-0.23151792585849762,0.19608774781227112,-0.6487388610839844
1732873395955144000,6.91314404296875,-0.17470745742321014,0.19303341209888458,-0.4709770977497101
1732873395965145000,6.92314501953125,-0.10934487730264664,0.1661553531885147,-0.26511552929878235
1732873395975133000,6.9331328125,-0.05497787147760391,0.10201449692249298,-0.08918632566928864
1732873395985164800,6.943164794921875,-0.021991148591041565,-0.0006108652451075613,0.015271631069481373
1732873395995122200,6.9531220703125,0.0006108652451075613,-0.10812314599752426,0.06230825558304787
1732873396005153300,6.9631533203125,0.02015855349600315,-0.192422553896904,0.05192354694008827
1732873396015141600,6.9731416015625,0.0507018156349659,-0.22602014243602753,-0.05253441259264946
1732873396025141800,6.983141845703125,0.08796459436416626,-0.15454891324043274,-0.15882496535778046
1732873396035130600,6.993130615234375,0.13988813757896423,-0.018325956538319588,-0.2590068578720093
1732873396045160700,7.00316064453125,0.17287486791610718,0.11362093687057495,-0.3176499307155609
1732873396055119400,7.013119384765625,0.16920967400074005,0.19364428520202637,-0.3188716471195221
1732873396065150000,7.02314990234375,0.12461651116609573,0.21991148591041565,-0.2736676335334778
1732873396075139000,7.03313916015625,0.04581489413976669,0.19486601650714874,-0.20097467303276062
1732873396085138700,7.043138671875,-0.1215621829032898,0.012217304669320583,-0.0861319974064827
1732873396095128000,7.053128173828125,-0.21563543379306793,-0.15882496535778046,-0.029932396486401558
1732873396105160200,7.06316015625,-0.2779437005519867,-0.2816088795661926,0.03420845419168472
1732873396115117000,7.073116943359375,-0.2938261926174164,-0.33719760179519653,0.10812314599752426
1732873396125148700,7.083148681640625,-0.27061331272125244,-0.32620203495025635,0.18570303916931152
1732873396135136500,7.093136474609375,-0.2028072625398636,-0.2718350291252136,0.24984388053417206
1732873396145137000,7.103136962890625,-0.1160643994808197,-0.20830504596233368,0.2974913716316223
1732873396155125800,7.113125732421875,-0.030543262138962746,-0.15515977144241333,0.30604347586631775
1732873396165157000,7.1231572265625,0.0659734457731247,-0.10445795953273773,0.2480112910270691
1732873396175145200,7.133145263671875,0.08307767659425735,-0.07452555745840073,0.1973094791173935
1732873396185146000,7.14314599609375,0.08002334833145142,-0.04153883829712868,0.1508837193250656
1732873396195134200,7.15313427734375,0.07147123664617538,-0.00733038317412138,0.12278391420841217
1732873396205165800,7.163165771484375,0.04886921867728233,0.04886921867728233,0.11484266817569733
1732873396215123200,7.173123291015625,0.012828170321881771,0.11423180252313614,0.11972958594560623
1732873396225154800,7.18315478515625,-0.014049900695681572,0.16920967400074005,0.1270599663257599
1732873396235142700,7.193142578125,-0.02932153269648552,0.18509216606616974,0.14782938361167908
1732873396245143800,7.203143798828125,-0.02321287989616394,0.1869247704744339,0.16310101747512817
1732873396255131600,7.213131591796875,-0.010995574295520782,0.18448130786418915,0.16310101747512817
1732873396265163500,7.22316357421875,0.00366519158706069,0.18020524084568024,0.14782938361167908
1732873396275120600,7.23312060546875,0.022602014243602753,0.1612684279680252,0.12339477986097336
1732873396285152300,7.24315234375,0.0507018156349659,0.14416420459747314,0.09224065393209457
1732873396295140400,7.253140380859375,0.08796459436416626,0.12278391420841217,0.05864306539297104
1732873396305141500,7.2631416015625,0.15760323405265808,0.11178833991289139,0.02871066704392433
1732873396315129300,7.27312939453125,0.2119702398777008,0.1270599663257599,0.030543262138962746
1732873396325161200,7.2831611328125,0.2687807083129883,0.1466076523065567,0.05619960278272629
1732873396335118300,7.293118408203125,0.31520646810531616,0.17531833052635193,0.09407325088977814
1732873396345150200,7.303150146484375,0.3494149148464203,0.2174680233001709,0.13744467496871948
1732873396355137800,7.3131376953125,0.36163222789764404,0.24556782841682434,0.18875735998153687
1732873396365139200,7.32313916015625,0.35246923565864563,0.26022860407829285,0.2278527319431305
1732873396375127000,7.333126953125,0.31459560990333557,0.24923302233219147,0.24556782841682434
1732873396385158700,7.34315869140625,0.21991148591041565,0.21319197118282318,0.21563543379306793
1732873396395116000,7.353115966796875,0.15027284622192383,0.192422553896904,0.1362229436635971
1732873396405147400,7.3631474609375,0.09407325088977814,0.16371189057826996,0.009162978269159794
1732873396415135500,7.373135498046875,0.0659734457731247,0.12828169763088226,-0.15393804013729095
1732873396425167000,7.3831669921875,0.07330382615327835,0.09040805697441101,-0.31031954288482666
1732873396435124500,7.39312451171875,0.08185594528913498,0.0861319974064827,-0.4245513379573822
1732873396445156000,7.403156005859375,0.07024950534105301,0.11301007121801376,-0.4709770977497101
1732873396455144000,7.41314404296875,0.02932153269648552,0.1918116807937622,-0.4801400899887085
1732873396465145300,7.423145263671875,0.010995574295520782,0.2577851414680481,-0.49724429845809937
1732873396475133000,7.4331328125,0.001832595793530345,0.3029891550540924,-0.5442809462547302
1732873396485163500,7.44316357421875,0,0.34208452701568604,-0.6096435189247131
1732873396495122200,7.4531220703125,0.00427605677396059,0.3445279896259308,-0.6646214127540588
1732873396505152300,7.46315234375,0.0012217304902151227,0.28588494658470154,-0.6927211880683899
1732873396515141600,7.4731416015625,-0.022602014243602753,0.21135938167572021,-0.6780604124069214
1732873396525141200,7.483141357421875,-0.08918632566928864,0.10995574295520782,-0.5564982295036316
1732873396535131000,7.493130859375,-0.11545353382825851,0.02871066704392433,-0.42149701714515686
1732873396545161000,7.503160888671875,-0.10751228034496307,-0.0708603709936142,-0.2528982162475586
1732873396555119600,7.51311962890625,-0.0708603709936142,-0.1716531366109848,-0.04581489413976669
1732873396565151500,7.5231513671875,-0.021991148591041565,-0.22479841113090515,0.17409659922122955
1732873396575139000,7.53313916015625,0.021380282938480377,-0.22418753802776337,0.3805690407752991
1732873396585139700,7.5431396484375,0.05009094998240471,-0.1875356286764145,0.5626068711280823
1732873396595127000,7.553126953125,0.07024950534105301,-0.14355333149433136,0.7018841505050659
1732873396605158700,7.56315869140625,0.07147123664617538,-0.09651670604944229,0.7837401032447815
1732873396615116800,7.57311669921875,0.056810468435287476,-0.09529497474431992,0.759305477142334
1732873396625147600,7.583147705078125,0.036041051149368286,-0.1111774742603302,0.6963863968849182
1732873396635136000,7.593135986328125,0.00733038317412138,-0.12461651116609573,0.6065891981124878
1732873396645136600,7.60313671875,0.006719517521560192,-0.12889257073402405,0.49846604466438293
1732873396655125200,7.613125244140625,0.01771509274840355,-0.12828169763088226,0.4001167416572571
1732873396665156900,7.623156982421875,0.033597588539123535,-0.16737708449363708,0.32620203495025635
1732873396675144700,7.633144775390625,0.012217304669320583,-0.2687807083129883,0.2687807083129883
1732873396685145900,7.643145751953125,-0.036651913076639175,-0.33536502718925476,0.2590068578720093
1732873396695134200,7.65313427734375,-0.10690141469240189,-0.37568211555480957,0.2632829248905182
1732873396705165800,7.663165771484375,-0.20097467303276062,-0.36224308609962463,0.2785545587539673
1732873396715123200,7.673123291015625,-0.3127630054950714,-0.30970868468284607,0.2926044464111328
1732873396725155000,7.683155029296875,-0.4190535545349121,-0.22968533635139465,0.2968805134296417
1732873396735142700,7.693142578125,-0.4856378734111786,-0.152105450630188,0.29565876722335815
1732873396745144000,7.70314404296875,-0.4990769028663635,-0.05742133408784866,0.3023782968521118
1732873396755131600,7.713131591796875,-0.47219884395599365,-0.025656340643763542,0.3243694305419922
1732873396765163800,7.723163818359375,-0.4404338300228119,-0.015882495790719986,0.34574973583221436
1732873396775120600,7.73312060546875,-0.40622538328170776,-0.024434609338641167,0.3530801236629486
1732873396785152500,7.743152587890625,-0.39767327904701233,-0.04703662544488907,0.3280346393585205
1732873396795140400,7.753140380859375,-0.40683624148368835,-0.05864306539297104,0.26022860407829285
1732873396805141500,7.7631416015625,-0.43249258399009705,-0.04398229718208313,0.16493362188339233
1732873396815129300,7.77312939453125,-0.45753806829452515,-0.015271631069481373,0.0708603709936142
1732873396825161200,7.7831611328125,-0.4917465150356293,-0.031154127791523933,-0.018936822190880775
1732873396835118300,7.793118408203125,-0.4905247986316681,-0.05375614017248154,-0.05009094998240471
1732873396845150200,7.803150146484375,-0.4740314185619354,-0.07757988572120667,-0.04642575979232788
1732873396855137800,7.8131376953125,-0.45814892649650574,-0.08979719132184982,-0.012217304669320583
1732873396865139200,7.82313916015625,-0.4447098970413208,-0.06841690838336945,0.021991148591041565
1732873396875126800,7.833126708984375,-0.4239404797554016,0.015882495790719986,0.014049900695681572
1732873396885157600,7.84315771484375,-0.3854559659957886,0.13988813757896423,-0.06902777403593063
1732873396895116000,7.853115966796875,-0.2583959996700287,0.242513507604599,-0.3335324227809906
1732873396905146000,7.86314599609375,-0.16065755486488342,0.21074850857257843,-0.5259549617767334
1732873396915135500,7.873135498046875,-0.07696902006864548,0.1508837193250656,-0.6597344875335693
1732873396925166800,7.883166748046875,-0.01710422709584236,0.09468411654233932,-0.7073819637298584
1732873396935124500,7.89312451171875,-0.0012217304902151227,0.039706241339445114,-0.6499606370925903
1732873396945182500,7.903182373046875,-0.027488935738801956,0.00733038317412138,-0.5076290369033813
1732873396955144000,7.91314404296875,-0.07513642311096191,-0.0006108652451075613,-0.3341432809829712
1732873396965145000,7.92314501953125,-0.14294247329235077,0.01038470957428217,-0.12522737681865692
1732873396975133000,7.9331328125,-0.17287486791610718,0.012828170321881771,-0.06536258012056351
1732873396985164800,7.943164794921875,-0.17043140530586243,0.007941247895359993,-0.09896016865968704
1732873396995122000,7.953121826171875,-0.14355333149433136,-0.015271631069481373,-0.20036379992961884
1732873397005153800,7.96315380859375,-0.11178833991289139,-0.039706241339445114,-0.31154128909111023
1732873397015141600,7.9731416015625,-0.08246681094169617,-0.04581489413976669,-0.40683624148368835
1732873397025142500,7.983142578125,-0.06108652427792549,-0.02871066704392433,-0.455705463886261
1732873397035130600,7.993130615234375,-0.05864306539297104,-0.009773843921720982,-0.4349360466003418
1732873397045162200,8.003162353515625,-0.09712757170200348,0.054367005825042725,-0.3017674386501312
1732873397055119600,8.01311962890625,-0.13377949595451355,0.10018189996480942,-0.1875356286764145
1732873397065151500,8.0231513671875,-0.16920967400074005,0.10934487730264664,-0.07208210229873657
1732873397075139000,8.03313916015625,-0.19425514340400696,0.07880161702632904,0.03298672288656235
1732873397085140200,8.04314013671875,-0.19914206862449646,0.03176499158143997,0.12461651116609573
1732873397095128000,8.053128173828124,-0.18020524084568024,-0.01771509274840355,0.20830504596233368
1732873397105160000,8.063159912109375,-0.1417207419872284,-0.04703662544488907,0.2828305959701538
1732873397115117000,8.073116943359375,-0.04214970022439957,-0.0354301854968071,0.33536502718925476
1732873397125148400,8.0831484375,0.029932396486401558,-0.03726277872920036,0.3378084897994995
1732873397135136800,8.09313671875,0.08307767659425735,-0.059864792972803116,0.31459560990333557
1732873397145138000,8.103137939453125,0.1111774742603302,-0.07757988572120667,0.27977627515792847
1732873397155125500,8.11312548828125,0.11667526513338089,-0.08491026610136032,0.25045475363731384
1732873397165157000,8.1231572265625,0.1111774742603302,-0.09896016865968704,0.2376265823841095
1732873397175145200,8.133145263671874,0.1014036312699318,-0.09773843735456467,0.23945917189121246
1732873397185146000,8.14314599609375,0.10934487730264664,-0.09407325088977814,0.24617868661880493
1732873397195134200,8.15313427734375,0.13805554807186127,-0.09896016865968704,0.24129177629947662
1732873397205165800,8.163165771484374,0.17959438264369965,-0.09712757170200348,0.2125810980796814
1732873397215123200,8.173123291015624,0.23518311977386475,-0.04886921867728233,0.16432274878025055
1732873397225155000,8.183155029296875,0.304210901260376,0.04642575979232788,0.10751228034496307
1732873397235142700,8.193142578125,0.3646865487098694,0.09040805697441101,0.0659734457731247
1732873397245144000,8.20314404296875,0.3897320330142975,0.07208210229873657,0.04886921867728233
1732873397255131600,8.213131591796875,0.37568211555480957,0.04459316283464432,0.05253441259264946
1732873397265163500,8.22316357421875,0.30115658044815063,0.03481931984424591,0.11056660860776901
1732873397275121000,8.233120849609374,0.24068090319633484,0.03726277872920036,0.1569923609495163
1732873397285152500,8.243152587890625,0.20097467303276062,0.039095375686883926,0.18081611394882202
1732873397295140400,8.253140380859374,0.18997909128665924,0.00427605677396059,0.1722639948129654
1732873397305141500,8.2631416015625,0.22357667982578278,-0.04581489413976669,0.13500121235847473
1732873397315129300,8.27312939453125,0.30604347586631775,-0.08491026610136032,0.06963863968849182
1732873397325161000,8.283160888671874,0.4245513379573822,0.018936822190880775,-0.015271631069481373
1732873397335118300,8.293118408203124,0.6603453159332275,0.4703662395477295,-0.11056660860776901
1732873397345150200,8.303150146484375,0.7586946487426758,0.6811147332191467,-0.054367005825042725
1732873397355137800,8.3131376953125,0.7067710757255554,0.6969972252845764,0.05497787147760391
1732873397365139000,8.323138916015624,0.5106833577156067,0.5125159621238708,0.19853121042251587
1732873397375126800,8.333126708984375,0.26511552929878235,0.16432274878025055,0.3084869384765625
1732873397385158700,8.34315869140625,0.07880161702632904,-0.30115658044815063,0.32681289315223694
1732873397395116000,8.353115966796874,-0.0403171069920063,-0.6713408827781677,0.23335053026676178
1732873397405147600,8.363147705078125,-0.1270599663257599,-0.8210029006004333,-0.08918632566928864
1732873397415135500,8.373135498046874,-0.04092797264456749,-0.7342600226402283,-0.3127630054950714
1732873397425167000,8.3831669921875,0.10323622822761536,-0.5589417219161987,-0.4489859640598297
1732873397435124700,8.393124755859375,0.24862214922904968,-0.2724458873271942,-0.4813618063926697
1732873397445156000,8.403156005859374,0.38240164518356323,0.06780604273080826,-0.46242499351501465
1732873397455144000,8.41314404296875,0.45631635189056396,0.35246923565864563,-0.4434881806373596
1732873397465145300,8.423145263671875,0.4447098970413208,0.47708576917648315,-0.4605923891067505
1732873397475133000,8.4331328125,0.33047810196876526,0.4893030524253845,-0.5467243790626526
1732873397485164800,8.443164794921875,0.015882495790719986,0.2675589919090271,-0.8063421249389648
1732873397495122000,8.453121826171875,-0.1966986060142517,0.0354301854968071,-0.9896016716957092
1732873397505153500,8.463153564453124,-0.375071257352829,-0.15821409225463867,-1.1429288387298584
1732873397515141600,8.4731416015625,-0.5015203952789307,-0.2816088795661926,-1.2247848510742188
1732873397525142800,8.483142822265625,-0.5699372887611389,-0.32070425152778625,-1.215621829032898
1732873397535130600,8.493130615234374,-0.5662720799446106,-0.3188716471195221,-1.120937705039978
1732873397545162200,8.503162353515625,-0.48685958981513977,-0.27977627515792847,-0.9810495972633362
1732873397555119600,8.51311962890625,-0.2773328125476837,-0.14416420459747314,-0.7727445363998413
1732873397565151200,8.523151123046874,-0.11667526513338089,-0.0403171069920063,-0.6707300543785095
1732873397575139300,8.533139404296875,-0.00427605677396059,0.04337143152952194,-0.6108652353286743
1732873397585140000,8.543139892578125,0.03481931984424591,0.08246681094169617,-0.6017022728919983
1732873397595127300,8.553127197265624,0.014049900695681572,0.033597588539123535,-0.637132465839386
1732873397605158000,8.563157958984375,0.00427605677396059,-0.04153883829712868,-0.7116580009460449
1732873397615116800,8.57311669921875,-0.03176499158143997,-0.05497787147760391,-0.7623597979545593
1732873397625147000,8.58314697265625,-0.06414084881544113,-0.2742784917354584,-0.6927211880683899
1732873397635136300,8.59313623046875,-0.09346238523721695,-0.4282165467739105,-0.5662720799446106
1732873397645137200,8.60313720703125,-0.12767083942890167,-0.5479460954666138,-0.40256020426750183
1732873397655125200,8.613125244140624,-0.15454891324043274,-0.6432411074638367,-0.2174680233001709
1732873397665156900,8.623156982421875,-0.15515977144241333,-0.7183775305747986,-0.031154127791523933
1732873397675145000,8.63314501953125,-0.11239920556545258,-0.7635815739631653,0.14049901068210602
1732873397685145900,8.643145751953124,-0.04886921867728233,-0.7605272531509399,0.29504790902137756
1732873397695134200,8.65313427734375,0.04642575979232788,-0.6908885836601257,0.4245513379573822
1732873397705165800,8.663165771484374,0.2119702398777008,-0.44776421785354614,0.5931501388549805
1732873397715123200,8.673123291015624,0.2742784917354584,-0.2883284091949463,0.6878342628479004
1732873397725153500,8.683153564453125,0.29016098380088806,-0.14294247329235077,0.7391469478607178
1732873397735142700,8.693142578125,0.2590068578720093,-0.005497787147760391,0.7385360598564148
1732873397745142500,8.703142578125,0.16310101747512817,0.07819075137376785,0.7141014933586121
1732873397755131600,8.713131591796875,0.022602014243602753,0.12461651116609573,0.665232241153717
1732873397765162200,8.723162353515624,-0.12339477986097336,0.16798794269561768,0.5931501388549805
1732873397775120600,8.73312060546875,-0.3078760802745819,0.20830504596233368,0.5125159621238708
1732873397785152300,8.74315234375,-0.3885102868080139,0.2028072625398636,0.494189977645874
1732873397795140400,8.753140380859374,-0.43249258399009705,0.18325957655906677,0.47769662737846375
1732873397805141200,8.763141357421874,-0.45142942667007446,0.16432274878025055,0.4489859640598297
1732873397815129300,8.77312939453125,-0.4648684561252594,0.16920967400074005,0.4086688458919525
1732873397825161000,8.783160888671874,-0.48380526900291443,0.19486601650714874,0.3738495409488678
1732873397835118300,8.793118408203124,-0.5009095072746277,0.24129177629947662,0.3640756905078888
1732873397845150200,8.803150146484375,-0.48380526900291443,0.41599923372268677,0.4031710624694824
1732873397855137800,8.8131376953125,-0.3842342495918274,0.6328563690185547,0.4349360466003418
1732873397865138000,8.823137939453124,-0.21563543379306793,0.846659243106842,0.45814892649650574
1732873397875126800,8.833126708984375,-0.04886921867728233,0.9779952764511108,0.48808133602142334
1732873397885158700,8.84315869140625,0.06108652427792549,0.9633345007896423,0.5259549617767334
1732873397895116000,8.853115966796874,0.09773843735456467,0.8307767510414124,0.5552765130996704
1732873397905147400,8.8631474609375,0.06291911751031876,0.6389650702476501,0.5522221922874451
1732873397915135500,8.873135498046874,-0.02687807008624077,0.4538728892803192,0.5119050741195679
1732873397925167000,8.8831669921875,-0.21991148591041565,0.3023782968521118,0.39584067463874817
1732873397935124500,8.89312451171875,-0.35552358627319336,0.2779437005519867,0.29504790902137756
1732873397945156000,8.903156005859374,-0.4691445231437683,0.26939156651496887,0.19058994948863983
1732873397955144000,8.91314404296875,-0.5326744914054871,0.31459560990333557,0.08491026610136032
1732873397965135400,8.92313525390625,-0.5161811113357544,0.40683624148368835,-0.003054326167330146
1732873397975124200,8.933124267578124,-0.3885102868080139,0.4544837474822998,-0.0507018156349659
1732873397985155000,8.943155029296875,-0.18875735998153687,0.45326200127601624,-0.06658431142568588
1732873397995113200,8.95311328125,0.04337143152952194,0.36163222789764404,-0.030543262138962746
1732873398005143600,8.9631435546875,0.1215621829032898,0.22418753802776337,0.012828170321881771
1732873398015133000,8.9731328125,0.1563815027475357,0.06108652427792549,0.02015855349600315
1732873398025134000,8.983134033203125,0.17348572611808777,-0.14905111491680145,-0.003054326167330146
1732873398035122000,8.993121826171874,0.152105450630188,-0.31459560990333557,-0.01710422709584236
1732873398045153500,9.003153564453125,0.09040805697441101,-0.35246923565864563,-0.00366519158706069
1732873398055111000,9.01311083984375,0.033597588539123535,-0.2871066629886627,0.03787364438176155
1732873398065142800,9.023142822265624,0.04153883829712868,-0.08979719132184982,0.11484266817569733
1732873398075130400,9.03313037109375,0.09834930300712585,0.06414084881544113,0.1111774742603302
1732873398085130200,9.043130126953125,0.2028072625398636,0.1612684279680252,0.021380282938480377
1732873398094682600,9.0526826171875,0.3536909818649292,0.15882496535778046,-0.14538592100143433
1732873398105151000,9.06315087890625,0.5100724697113037,0.07024950534105301,-0.3488040566444397
1732873398115108600,9.073108642578125,0.5870414972305298,-0.05803219974040985,-0.5259549617767334
1732873398125140200,9.08314013671875,0.5736024379730225,-0.1771509200334549,-0.6029239892959595
1732873398135128000,9.093128173828125,0.5094616413116455,-0.2370157092809677,-0.5534439086914062
1732873398145129200,9.103129150390625,0.38606682419776917,-0.24495697021484375,-0.4178318381309509
1732873398155116800,9.11311669921875,0.2938261926174164,-0.23579397797584534,-0.2278527319431305
1732873398165148700,9.123148681640625,0.20525072515010834,-0.20891591906547546,-0.04459316283464432
1732873398175136500,9.133136474609374,0.1362229436635971,-0.182648703455925,0.10323622822761536
1732873398185137700,9.1431376953125,0.09407325088977814,-0.15332718193531036,0.23945917189121246
1732873398195125500,9.15312548828125,0.08124507963657379,-0.11484266817569733,0.3591887652873993
1732873398205157000,9.1631572265625,0.10567969083786011,-0.09407325088977814,0.43127086758613586
1732873398215114500,9.173114501953124,0.18997909128665924,-0.09957103431224823,0.43676865100860596
1732873398225146000,9.18314599609375,0.24129177629947662,-0.10567969083786011,0.41661009192466736
1732873398235134000,9.193134033203124,0.252287358045578,-0.0507018156349659,0.4031710624694824
1732873398245135000,9.203135009765624,0.23151792585849762,0.05619960278272629,0.39217549562454224
1732873398255123000,9.213123046875,0.23518311977386475,0.12400564551353455,0.37140607833862305
1732873398265154800,9.22315478515625,0.2565633952617645,0.16493362188339233,0.34208452701568604
1732873398275112200,9.2331123046875,0.2675589919090271,0.17531833052635193,0.3243694305419922
1732873398285143800,9.243143798828125,0.2816088795661926,0.16371189057826996,0.32070425152778625
1732873398295441000,9.25344091796875,0.32009339332580566,0.15515977144241333,0.313373863697052
1732873398305163300,9.263163330078125,0.35735616087913513,0.14905111491680145,0.3017674386501312
1732873398315120600,9.27312060546875,0.3695734739303589,0.13439035415649414,0.2828305959701538
1732873398325152300,9.28315234375,0.3628539443016052,0.11056660860776901,0.24617868661880493
1732873398335109600,9.293109619140624,0.3341432809829712,0.08552113175392151,0.20891591906547546
1732873398345141500,9.3031416015625,0.2974913716316223,0.08674286305904388,0.18325957655906677
1732873398355129000,9.313129150390624,0.2877175211906433,0.08674286305904388,0.15821409225463867
1732873398365130200,9.323130126953124,0.35552358627319336,0.059864792972803116,0.15332718193531036
1732873398375118000,9.3331181640625,0.3885102868080139,0.02626720629632473,0.1716531366109848
1732873398385150000,9.34314990234375,0.3732386529445648,-0.012217304669320583,0.2223549485206604
1732873398395107300,9.353107421875,0.33719760179519653,-0.036651913076639175,0.29565876722335815
1732873398405138700,9.363138671875,0.3090978264808655,-0.05925392732024193,0.3500257730484009
1732873398415126800,9.373126708984374,0.30482175946235657,-0.04398229718208313,0.3805690407752991
1732873398425158400,9.383158447265625,0.31154128909111023,0.051312681287527084,0.4043927788734436
1732873398435115800,9.39311572265625,0.38179078698158264,0.22968533635139465,0.384845107793808
1732873398445147600,9.403147705078124,0.4605923891067505,0.30054569244384766,0.3378084897994995
1732873398455135200,9.41313525390625,0.5259549617767334,0.3439171314239502,0.29504790902137756
1732873398465136600,9.42313671875,0.5656611919403076,0.375071257352829,0.2779437005519867
1732873398475124200,9.433124267578124,0.5821545720100403,0.38606682419776917,0.29565876722335815
1732873398485156000,9.443156005859375,0.5778785347938538,0.3640756905078888,0.32681289315223694
1732873398495113200,9.45311328125,0.5571091175079346,0.32498031854629517,0.3225368559360504
1732873398505145000,9.46314501953125,0.5522221922874451,0.16798794269561768,0.18997909128665924
1732873398515133000,9.4731328125,0.5650503635406494,-0.015271631069481373,0.01038470957428217
1732873398525134000,9.483134033203125,0.5754350423812866,-0.23640485107898712,-0.23518311977386475
1732873398535122000,9.493121826171874,0.5925393104553223,-0.44593164324760437,-0.4856378734111786
1732873398545153500,9.503153564453125,0.5858197808265686,-0.6108652353286743,-0.7061602473258972
1732873398555111000,9.51311083984375,0.543059229850769,-0.6860016584396362,-0.8313875794410706
1732873398565141200,9.523141357421874,0.455705463886261,-0.6664539575576782,-0.8289441466331482
1732873398575130400,9.53313037109375,0.34697145223617554,-0.5186246037483215,-0.6310238242149353
1732873398585130200,9.543130126953125,0.17531833052635193,-0.10445795953273773,-0.39584067463874817
1732873398595118300,9.553118408203124,0.04459316283464432,0.2125810980796814,-0.13316862285137177
1732873398605150700,9.563150634765625,-0.06780604273080826,0.44776421785354614,0.06719517707824707
1732873398615108000,9.573108154296875,-0.13500121235847473,0.5467243790626526,0.12461651116609573
1732873398625139000,9.583138916015624,-0.15760323405265808,0.5229006409645081,0.03481931984424591
1732873398635127600,9.59312744140625,-0.1466076523065567,0.35552358627319336,-0.1612684279680252
1732873398645127400,9.60312744140625,-0.11362093687057495,0.1472185254096985,-0.4202753007411957
1732873398655116500,9.613116455078124,-0.04703662544488907,-0.13316862285137177,-0.8381071090698242
1732873398665148200,9.623148193359375,-0.00855211354792118,-0.2926044464111328,-1.076344609260559
1732873398675136000,9.633135986328124,-0.009773843921720982,-0.4080579876899719,-1.2302825450897217
1732873398685137200,9.64313720703125,-0.0354301854968071,-0.4648684561252594,-1.2944234609603882
1732873398695125500,9.65312548828125,-0.05864306539297104,-0.4893030524253845,-1.2864822149276733
1732873398705157000,9.6631572265625,-0.10384709388017654,-0.484416127204895,-1.1942415237426758
1732873398715114500,9.673114501953124,-0.19120082259178162,-0.4697553813457489,-1.017701506614685
1732873398725146000,9.68314599609375,-0.3591887652873993,-0.46364670991897583,-0.6640105247497559
1732873398735134000,9.693134033203124,-0.46303585171699524,-0.4282165467739105,-0.44226643443107605
1732873398745135400,9.70313525390625,-0.5351179838180542,-0.37568211555480957,-0.25595253705978394
1732873398755123000,9.713123046875,-0.5809328556060791,-0.29565876722335815,-0.10873401165008545
1732873398765155000,9.723155029296874,-0.618195652961731,-0.1973094791173935,0.0006108652451075613
1732873398775112000,9.73311181640625,-0.6524040699005127,-0.10323622822761536,0.1007927656173706
1732873398785143800,9.743143798828125,-0.6725626587867737,-0.018936822190880775,0.19914206862449646
1732873398795131600,9.753131591796874,-0.6695083379745483,0.03726277872920036,0.294437050819397
1732873398805132500,9.763132568359374,-0.6328563690185547,0.09529497474431992,0.3274237811565399
1732873398815120600,9.77312060546875,-0.6053674817085266,0.12522737681865692,0.33536502718925476
1732873398825151000,9.78315087890625,-0.5833762884140015,0.14416420459747314,0.31581732630729675
1732873398835109600,9.793109619140624,-0.5552765130996704,0.13439035415649414,0.28038713335990906
1732873398845140000,9.803139892578125,-0.5290092825889587,0.12828169763088226,0.22418753802776337
1732873398855129000,9.813129150390624,-0.5155702829360962,0.10262536257505417,0.15454891324043274
1732873398865130500,9.823130615234374,-0.5174028873443604,0.05864306539297104,0.08552113175392151
1732873398875118000,9.8331181640625,-0.5241223573684692,-0.036651913076639175,-0.03481931984424591
1732873398885150000,9.84314990234375,-0.5442809462547302,-0.10323622822761536,-0.10445795953273773
1732873398895107300,9.853107421875,-0.5931501388549805,-0.15332718193531036,-0.14477506279945374
1732873398905139000,9.863138916015625,-0.6493497490882874,-0.18997909128665924,-0.14966198801994324
1732873398915126800,9.873126708984374,-0.6927211880683899,-0.19792033731937408,-0.11728613078594208
1732873398925158400,9.883158447265625,-0.7153232097625732,-0.17898350954055786,-0.04886921867728233
1732873398935115800,9.89311572265625,-0.7263187766075134,-0.12400564551353455,0.05009094998240471
1732873398945176300,9.90317626953125,-0.7385360598564148,-0.02932153269648552,0.20830504596233368
1732873398955135200,9.91313525390625,-0.7092145681381226,0.019547687843441963,0.2828305959701538
1732873398965136600,9.92313671875,-0.656680166721344,0.05864306539297104,0.3182607889175415
1732873398975124200,9.933124267578124,-0.5864306092262268,0.09162978827953339,0.3084869384765625
1732873398985154600,9.943154541015625,-0.48685958981513977,0.1014036312699318,0.23945917189121246
1732873398995113500,9.953113525390625,-0.3805690407752991,0.07391469180583954,0.12522737681865692
1732873399005145000,9.96314501953125,-0.30115658044815063,0.005497787147760391,-0.027488935738801956
1732873399015133000,9.9731328125,-0.24129177629947662,-0.16065755486488342,-0.28955012559890747
1732873399025134000,9.983134033203125,-0.18875735998153687,-0.26083946228027344,-0.4141666293144226
1732873399035122000,9.993121826171874,-0.18875735998153687,-0.3072652220726013,-0.4447098970413208
1732873399045153500,10.003153564453125,-0.21319197118282318,-0.27488934993743896,-0.375071257352829
1732873399055110700,10.013110595703125,-0.2681698501110077,-0.16982053220272064,-0.23273965716362
1732873399065142800,10.023142822265624,-0.3396410644054413,-0.009773843921720982,-0.059864792972803116
1732873399075130400,10.03313037109375,-0.3982841372489929,0.13316862285137177,0.09224065393209457
1732873399085131800,10.0431318359375,-0.41722095012664795,0.21380282938480377,0.18387043476104736
1732873399095119400,10.053119384765624,-0.33597588539123535,0.18875735998153687,0.19608774781227112
1732873399105150700,10.063150634765625,-0.2321287989616394,0.1215621829032898,0.1264491081237793
1732873399115108400,10.0731083984375,-0.11056660860776901,0.04337143152952194,0.01160643994808197
1732873399125139700,10.0831396484375,-0.004886921960860491,-0.02626720629632473,-0.11850785464048386
1732873399135128000,10.093128173828125,0.05864306539297104,-0.06230825558304787,-0.22479841113090515
1732873399145127700,10.103127685546875,0.06841690838336945,-0.0659734457731247,-0.28099802136421204
1732873399155116800,10.11311669921875,0.02871066704392433,-0.036041051149368286,-0.3017674386501312
1732873399165148700,10.123148681640625,-0.06902777403593063,0.036651913076639175,-0.303600013256073
1732873399175136300,10.13313623046875,-0.12522737681865692,0.08552113175392151,-0.2968805134296417
1732873399185137400,10.143137451171874,-0.15943582355976105,0.08918632566928864,-0.2730567753314972
1732873399195125500,10.15312548828125,-0.1472185254096985,0.07941248267889023,-0.2272418737411499
1732873399205157000,10.1631572265625,-0.12461651116609573,0.051312681287527084,-0.1569923609495163
1732873399215114500,10.173114501953124,-0.10751228034496307,0.0006108652451075613,-0.08307767659425735
1732873399225146400,10.183146484375,-0.09834930300712585,-0.07024950534105301,-0.019547687843441963
1732873399235134000,10.193134033203124,-0.08124507963657379,-0.13255776464939117,0.05803219974040985
1732873399245135000,10.203135009765624,-0.04703662544488907,-0.12095131725072861,0.11545353382825851
1732873399255123000,10.213123046875,-0.03237585723400116,-0.07147123664617538,0.18814650177955627
1732873399265154800,10.22315478515625,-0.010995574295520782,0.021380282938480377,0.2669481039047241
1732873399275112000,10.23311181640625,0.013439035043120384,0.1472185254096985,0.3488040566444397
1732873399285143600,10.2431435546875,0.02382374368607998,0.2718350291252136,0.4300491213798523
1732873399295131600,10.253131591796874,0.04214970022439957,0.3683517575263977,0.4905247986316681
1732873399305132500,10.263132568359374,0.07941248267889023,0.42577308416366577,0.5021312236785889
1732873399315120600,10.27312060546875,0.152105450630188,0.41661009192466736,0.42638394236564636
1732873399325152300,10.28315234375,0.18387043476104736,0.34636059403419495,0.3280346393585205
1732873399335109600,10.293109619140624,0.20830504596233368,0.23335053026676178,0.20341812074184418
1732873399345141200,10.303141357421875,0.23518311977386475,0.11484266817569733,0.05803219974040985
1732873399355129000,10.313129150390624,0.2669481039047241,0.033597588539123535,-0.051312681287527084
1732873399365130500,10.323130615234374,0.2877175211906433,-0.0024434609804302454,-0.09040805697441101
1732873399375118000,10.3331181640625,0.2993239760398865,0.009162978269159794,-0.0806342139840126
1732873399385150000,10.34314990234375,0.2968805134296417,0.07147123664617538,-0.033597588539123535
1732873399395107000,10.353107177734374,0.27061331272125244,0.11484266817569733,-0.006108652334660292
1732873399405139000,10.363138916015625,0.242513507604599,0.14477506279945374,0.014049900695681572
1732873399415126800,10.373126708984374,0.2278527319431305,0.16310101747512817,0.02932153269648552
1732873399425158700,10.38315869140625,0.24190263450145721,0.1814269721508026,0.06230825558304787
1732873399435116000,10.393115966796875,0.26572638750076294,0.19058994948863983,0.1319468915462494
1732873399445147600,10.403147705078124,0.29016098380088806,0.17776179313659668,0.23640485107898712
1732873399455135200,10.41313525390625,0.3243694305419922,0.14294247329235077,0.37079519033432007
1732873399465136600,10.42313671875,0.3799581825733185,0.10445795953273773,0.40744712948799133
1732873399475124200,10.433124267578124,0.40622538328170776,0.0861319974064827,0.4056145250797272
1732873399485156000,10.443156005859375,0.4184426963329315,0.0959058403968811,0.37262779474258423
1732873399495113200,10.45311328125,0.39706242084503174,0.12034045159816742,0.3237585723400116
1732873399505143600,10.4631435546875,0.3500257730484009,0.1716531366109848,0.242513507604599
1732873399515133000,10.4731328125,0.2938261926174164,0.2431243658065796,0.12095131725072861
1732873399525133600,10.483133544921875,0.24373523890972137,0.2968805134296417,-0.019547687843441963
1732873399535122000,10.493121826171874,0.19853121042251587,0.3078760802745819,-0.23579397797584534
1732873399545153500,10.503153564453125,0.1667662113904953,0.2681698501110077,-0.3494149148464203
1732873399555111000,10.51311083984375,0.1264491081237793,0.2223549485206604,-0.4105014503002167
1732873399565142800,10.523142822265624,0.10262536257505417,0.18325957655906677,-0.4001167416572571
1732873399575130400,10.53313037109375,0.0910189226269722,0.1569923609495163,-0.32009339332580566
1732873399585131300,10.54313134765625,0.08857546001672745,0.1569923609495163,-0.22846360504627228
1732873399595118300,10.553118408203124,0.08124507963657379,0.15332718193531036,-0.16493362188339233
1732873399605150700,10.563150634765625,0.036651913076639175,0.16004669666290283,-0.17470745742321014
1732873399615108000,10.573108154296875,0.007941247895359993,0.16798794269561768,-0.2565633952617645
1732873399625139700,10.5831396484375,-0.018325956538319588,0.1514945775270462,-0.34574973583221436
1732873399635127600,10.59312744140625,-0.04581489413976669,0.12034045159816742,-0.41233405470848083
1732873399645128700,10.603128662109375,-0.0659734457731247,0.07880161702632904,-0.4440990388393402
1732873399655116500,10.613116455078124,-0.06963863968849182,0.039706241339445114,-0.44837507605552673
1732873399665148200,10.623148193359375,-0.07696902006864548,-0.006108652334660292,-0.42699480056762695
1732873399675136000,10.633135986328124,-0.08124507963657379,-0.08796459436416626,-0.36529740691185
1732873399685137200,10.64313720703125,-0.08124507963657379,-0.1411098688840866,-0.30482175946235657
1732873399695125500,10.65312548828125,-0.07330382615327835,-0.18081611394882202,-0.22540926933288574
1732873399705157000,10.6631572265625,-0.07330382615327835,-0.20036379992961884,-0.12400564551353455
1732873399715114500,10.673114501953124,-0.0910189226269722,-0.20097467303276062,-0.006719517521560192
1732873399725146000,10.68314599609375,-0.11484266817569733,-0.17776179313659668,0.11239920556545258
1732873399735134000,10.693134033203124,-0.13439035415649414,-0.1411098688840866,0.23273965716362
1732873399745135400,10.70313525390625,-0.1508837193250656,-0.09957103431224823,0.3628539443016052
1732873399755123000,10.713123046875,-0.18814650177955627,-0.009773843921720982,0.5510004758834839
1732873399765154800,10.72315478515625,-0.21380282938480377,0.04948008432984352,0.646295428276062
1732873399775112200,10.7331123046875,-0.2370157092809677,0.10873401165008545,0.7067710757255554
1732873399785143600,10.7431435546875,-0.25961771607398987,0.14294247329235077,0.7299839854240417
1732873399795131600,10.753131591796874,-0.26450464129447937,0.13316862285137177,0.7183775305747986
1732873399805131300,10.76313134765625,-0.25473082065582275,0.06536258012056351,0.6695083379745483
1732873399815120600,10.77312060546875,-0.23579397797584534,-0.06963863968849182,0.5809328556060791
1732873399825151000,10.78315087890625,-0.21380282938480377,-0.3274237811565399,0.39217549562454224
1732873399835109600,10.793109619140624,-0.20952677726745605,-0.475253164768219,0.2541199326515198
1732873399845140000,10.803139892578125,-0.20097467303276062,-0.5791002511978149,0.13866640627384186
1732873399855129000,10.813129150390624,-0.18814650177955627,-0.6316346526145935,0.05864306539297104
1732873399865129000,10.82312890625,-0.16310101747512817,-0.636521577835083,0.00733038317412138
1732873399875118000,10.8331181640625,-0.14049901068210602,-0.607200026512146,-0.01466076634824276
1732873399885150000,10.84314990234375,-0.12889257073402405,-0.5528330206871033,0.006108652334660292
1732873399895107300,10.853107421875,-0.14049901068210602,-0.4905247986316681,0.04642575979232788
1732873399905138700,10.863138671875,-0.18570303916931152,-0.37201693654060364,0.09773843735456467
1732873399915126800,10.873126708984374,-0.20341812074184418,-0.2840523421764374,0.09712757170200348
1732873399925158400,10.883158447265625,-0.2168571650981903,-0.21807889640331268,0.059864792972803116
1732873399935115800,10.89311572265625,-0.2125810980796814,-0.21441370248794556,0.00427605677396059
1732873399945147400,10.9031474609375,-0.2119702398777008,-0.24984388053417206,-0.05619960278272629
1732873399955135200,10.91313525390625,-0.2174680233001709,-0.3066543638706207,-0.1014036312699318
1732873399965136400,10.923136474609375,-0.21441370248794556,-0.3579670190811157,-0.1014036312699318
1732873399975124200,10.933124267578124,-0.18814650177955627,-0.3787364661693573,0.015271631069481373
1732873399985155800,10.94315576171875,-0.16554448008537292,-0.32681289315223694,0.14355333149433136
1732873399995113200,10.95311328125,-0.152105450630188,-0.23029619455337524,0.2736676335334778
1732873400005145000,10.96314501953125,-0.15943582355976105,-0.11056660860776901,0.3836233615875244
1732873400015133000,10.9731328125,-0.17898350954055786,0.00855211354792118,0.44837507605552673
1732873400025134000,10.983134033203125,-0.19608774781227112,0.12217304855585098,0.4605923891067505
1732873400035122000,10.993121826171874,-0.1973094791173935,0.2168571650981903,0.4282165467739105
1732873400045153500,11.003153564453125,-0.17776179313659668,0.29016098380088806,0.32620203495025635
1732873400055111000,11.01311083984375,-0.14233160018920898,0.27977627515792847,0.22602014243602753
1732873400065141200,11.023141357421874,-0.09957103431224823,0.22357667982578278,0.0959058403968811
1732873400075130400,11.03313037109375,-0.05864306539297104,0.14844025671482086,-0.0555887371301651
1732873400085131800,11.0431318359375,-0.013439035043120384,0.08491026610136032,-0.22113321721553802
1732873400095119600,11.05311962890625,0.033597588539123535,0.045204028487205505,-0.36651915311813354
1732873400105150700,11.063150634765625,0.07147123664617538,0.022602014243602753,-0.46303585171699524
1732873400115108600,11.073108642578125,0.07696902006864548,-0.009773843921720982,-0.5167919993400574
1732873400125140000,11.083139892578124,0.021991148591041565,-0.04459316283464432,-0.5375614166259766
1732873400135128000,11.093128173828125,-0.031154127791523933,-0.04886921867728233,-0.5222898125648499
1732873400145129000,11.10312890625,-0.08124507963657379,-0.04092797264456749,-0.4948008358478546
1732873400155116800,11.11311669921875,-0.1215621829032898,-0.02626720629632473,-0.47219884395599365
1732873400165148700,11.123148681640625,-0.1319468915462494,-0.013439035043120384,-0.46364670991897583
1732873400175136500,11.133136474609374,-0.09224065393209457,-0.01160643994808197,-0.47830748558044434
1732873400185137400,11.143137451171874,-0.010995574295520782,-0.059864792972803116,-0.5002986192703247
1732873400195125500,11.15312548828125,0.1215621829032898,-0.20891591906547546,-0.47280970215797424
1732873400205157000,11.1631572265625,0.17104226350784302,-0.2626720666885376,-0.3897320330142975
1732873400215114500,11.173114501953124,0.1667662113904953,-0.2742784917354584,-0.22907446324825287
1732873400225144800,11.183144775390625,0.09834930300712585,-0.2736676335334778,0.0012217304902151227
1732873400235134000,11.193134033203124,-0.015271631069481373,-0.23640485107898712,0.24617868661880493
1732873400245134000,11.203134033203124,-0.15027284622192383,-0.1618792861700058,0.46303585171699524
1732873400255123000,11.213123046875,-0.27122417092323303,-0.04886921867728233,0.6487388610839844
1732873400265153500,11.223153564453124,-0.44593164324760437,0.16310101747512817,0.856433093547821
1732873400275112200,11.2331123046875,-0.5375614166259766,0.34086281061172485,0.940121591091156
1732873400285143300,11.243143310546875,-0.5479460954666138,0.5155702829360962,0.9260717034339905
1732873400295131600,11.253131591796874,-0.4440990388393402,0.6120869517326355,0.8356636762619019
1732873400305131500,11.263131591796874,-0.24007004499435425,0.617584764957428,0.694553792476654
1732873400315120600,11.27312060546875,0.024434609338641167,0.5308418869972229,0.5088507533073425
1732873400325151000,11.28315087890625,0.2785545587539673,0.3500257730484009,0.2974913716316223
1732873400335109600,11.293109619140624,0.43799036741256714,0.10506882518529892,0.08124507963657379
1732873400345141500,11.3031416015625,0.4697553813457489,-0.23518311977386475,-0.17104226350784302
1732873400355129000,11.313129150390624,0.42638394236564636,-0.35674530267715454,-0.22846360504627228
1732873400365130200,11.323130126953124,0.3799581825733185,-0.3695734739303589,-0.18387043476104736
1732873400375118000,11.3331181640625,0.33658674359321594,-0.2926044464111328,-0.07391469180583954
1732873400385150000,11.34314990234375,0.303600013256073,-0.16798794269561768,0.056810468435287476
1732873400395107300,11.353107421875,0.303600013256073,-0.03176499158143997,0.18081611394882202
1732873400405139000,11.363138916015625,0.32009339332580566,0.07513642311096191,0.26939156651496887
1732873400415126800,11.373126708984374,0.34574973583221436,0.18448130786418915,0.3176499307155609
1732873400425158400,11.383158447265625,0.35674530267715454,0.20463985204696655,0.3127630054950714
1732873400435115800,11.39311572265625,0.3744603991508484,0.1869247704744339,0.2730567753314972
1732873400445147600,11.403147705078124,0.3885102868080139,0.15393804013729095,0.21013765037059784
1732873400455135200,11.41313525390625,0.39645153284072876,0.11850785464048386,0.14477506279945374
1732873400465136600,11.42313671875,0.39767327904701233,0.08796459436416626,0.09346238523721695
1732873400475124200,11.433124267578124,0.3885102868080139,0.07941248267889023,0.06414084881544113
1732873400485156000,11.443156005859375,0.394008070230484,0.1466076523065567,0.07452555745840073
1732873400495113500,11.453113525390625,0.41661009192466736,0.20586158335208893,0.12950342893600464
1732873400505145000,11.46314501953125,0.43799036741256714,0.2565633952617645,0.19792033731937408
1732873400515133000,11.4731328125,0.4538728892803192,0.27122417092323303,0.2571742534637451
1732873400525134000,11.483134033203125,0.4715879559516907,0.2541199326515198,0.29077184200286865
1732873400535122000,11.493121826171874,0.485027015209198,0.21624629199504852,0.29626965522766113
1732873400545153800,11.50315380859375,0.4960225820541382,0.17043140530586243,0.2785545587539673
1732873400555111000,11.51311083984375,0.5119050741195679,0.12889257073402405,0.23151792585849762
1732873400565142800,11.523142822265624,0.5491678714752197,0.08735372871160507,0.08918632566928864
1732873400575130400,11.53313037109375,0.5699372887611389,0.06902777403593063,-0.04764748737215996
1732873400585131800,11.5431318359375,0.5900958180427551,0.04337143152952194,-0.20341812074184418
1732873400595118300,11.553118408203124,0.6047565937042236,0.012217304669320583,-0.3488040566444397
1732873400605150700,11.563150634765625,0.6029239892959595,-0.0354301854968071,-0.45875978469848633
1732873400615108000,11.573108154296875,0.5748242139816284,-0.09162978827953339,-0.5149593949317932
1732873400625139700,11.5831396484375,0.5082398653030396,-0.13439035415649414,-0.513737678527832
1732873400635127600,11.59312744140625,0.35674530267715454,-0.12461651116609573,-0.4202753007411957
1732873400645128400,11.60312841796875,0.2565633952617645,-0.05619960278272629,-0.3323107063770294
1732873400655116500,11.613116455078124,0.17959438264369965,0.06352998316287994,-0.2541199326515198
1732873400665148200,11.623148193359375,0.12461651116609573,0.22663100063800812,-0.2076941877603531
1732873400675136300,11.63313623046875,0.09224065393209457,0.41111230850219727,-0.2119702398777008
1732873400685137400,11.643137451171874,0.07635815441608429,0.5681046843528748,-0.27550023794174194
1732873400695125500,11.65312548828125,0.07635815441608429,0.6615670323371887,-0.38728857040405273
1732873400705155800,11.66315576171875,0.08674286305904388,0.6395758986473083,-0.5839871764183044
1732873400715114500,11.673114501953124,0.10690141469240189,0.5143485069274902,-0.6603453159332275
1732873400725144800,11.683144775390625,0.13011430203914642,0.3323107063770294,-0.6426302194595337
1732873400735134000,11.693134033203124,0.15027284622192383,0.13255776464939117,-0.5100724697113037
1732873400745135000,11.703135009765624,0.15271630883216858,-0.048258353024721146,-0.2742784917354584
1732873400755123000,11.713123046875,0.13255776464939117,-0.13316862285137177,0.01771509274840355
1732873400765154800,11.72315478515625,0.12522737681865692,-0.11789698898792267,0.3066543638706207
1732873400775112000,11.73311181640625,0.13011430203914642,-0.03787364438176155,0.5473352670669556
1732873400785143000,11.74314306640625,0.15332718193531036,0.09773843735456467,0.769690215587616
1732873400795131600,11.753131591796874,0.18936823308467865,0.14782938361167908,0.8112290501594543
1732873400805132300,11.76313232421875,0.23273965716362,0.1618792861700058,0.797789990901947
1732873400815120600,11.77312060546875,0.2675589919090271,0.14294247329235077,0.7556403279304504
1732873400825152300,11.78315234375,0.28099802136421204,0.11301007121801376,0.7049384713172913
1732873400835109600,11.793109619140624,0.27488934993743896,0.07024950534105301,0.646295428276062
1732873400845141200,11.803141357421875,0.2535090744495392,0.012217304669320583,0.5894849896430969
1732873400855129000,11.813129150390624,0.2070833146572113,-0.08796459436416626,0.4917465150356293
1732873400865130500,11.823130615234374,0.16432274878025055,-0.1466076523065567,0.4239404797554016
1732873400875118300,11.833118408203125,0.11301007121801376,-0.18325957655906677,0.3640756905078888
1732873400885150000,11.84314990234375,0.06536258012056351,-0.19547687470912933,0.32498031854629517
1732873400895107300,11.853107421875,0.025045474991202354,-0.18570303916931152,0.3121521472930908
1732873400905138700,11.863138671875,-0.009773843921720982,-0.1716531366109848,0.30970868468284607
1732873400915126800,11.873126708984374,-0.04764748737215996,-0.152105450630188,0.3072652220726013
1732873400925158400,11.883158447265625,-0.1215621829032898,-0.12400564551353455,0.26939156651496887
1732873400935115800,11.89311572265625,-0.18631389737129211,-0.12278391420841217,0.23640485107898712
1732873400945174000,11.903174072265625,-0.25961771607398987,-0.1362229436635971,0.22357667982578278
1732873400955135500,11.913135498046875,-0.32009339332580566,-0.15577064454555511,0.22846360504627228
1732873400965136600,11.92313671875,-0.36651915311813354,-0.1667662113904953,0.23945917189121246
1732873400975124200,11.933124267578124,-0.4056145250797272,-0.18020524084568024,0.26022860407829285
1732873400985154800,11.94315478515625,-0.4245513379573822,-0.17287486791610718,0.2919935882091522
1732873400995113200,11.95311328125,-0.4086688458919525,-0.15821409225463867,0.3176499307155609
1732873401005143800,11.963143798828124,-0.3225368559360504,-0.15943582355976105,0.33658674359321594
1732873401015133000,11.9731328125,-0.28955012559890747,-0.1661553531885147,0.3488040566444397
1732873401025132800,11.9831328125,-0.2730567753314972,-0.16982053220272064,0.342695415019989
1732873401035122000,11.993121826171874,-0.2718350291252136,-0.16310101747512817,0.31520646810531616
1732873401045153500,12.003153564453125,-0.2889392673969269,-0.1667662113904953,0.2724458873271942
1732873401055111000,12.01311083984375,-0.3121521472930908,-0.18875735998153687,0.2272418737411499
1732873401065142800,12.023142822265624,-0.33169981837272644,-0.20952677726745605,0.18570303916931152
1732873401075130400,12.03313037109375,-0.33658674359321594,-0.18325957655906677,0.13927727937698364
1732873401085131800,12.0431318359375,-0.3243694305419922,-0.12278391420841217,0.10690141469240189
1732873401095119400,12.053119384765624,-0.31154128909111023,-0.024434609338641167,0.06658431142568588
1732873401105151000,12.06315087890625,-0.3023782968521118,0.10262536257505417,0.02076941914856434
1732873401115108600,12.073108642578125,-0.2974913716316223,0.22418753802776337,-0.02871066704392433
1732873401125140200,12.08314013671875,-0.3237585723400116,0.323147714138031,-0.09468411654233932
1732873401135128000,12.093128173828125,-0.3591887652873993,0.3891211748123169,-0.1869247704744339
1732873401145128000,12.1031279296875,-0.3378084897994995,0.4960225820541382,-0.40133845806121826
1732873401155116800,12.11311669921875,-0.24984388053417206,0.48319441080093384,-0.5864306092262268
1732873401165147400,12.1231474609375,-0.10812314599752426,0.36651915311813354,-0.7861835956573486
1732873401175136500,12.133136474609374,0.06108652427792549,0.2064724564552307,-0.9492846131324768
1732873401185137400,12.143137451171874,0.20097467303276062,0.02687807008624077,-1.018923282623291
1732873401195125500,12.15312548828125,0.2822197377681732,-0.12400564551353455,-0.9877691268920898
1732873401205157000,12.1631572265625,0.30054569244384766,-0.22846360504627228,-0.8497135639190674
1732873401215114500,12.173114501953124,0.2632829248905182,-0.2767219543457031,-0.6291912198066711
1732873401225146000,12.18314599609375,0.17409659922122955,-0.2638937830924988,-0.2577851414680481
1732873401235134000,12.193134033203124,0.14477506279945374,-0.21380282938480377,-0.08002334833145142
1732873401245134600,12.203134521484374,0.16859880089759827,-0.14294247329235077,-0.022602014243602753
1732873401255123000,12.213123046875,0.24129177629947662,-0.09834930300712585,-0.06963863968849182
1732873401265154600,12.223154541015624,0.3335324227809906,-0.10567969083786011,-0.20402899384498596
1732873401275112000,12.23311181640625,0.41599923372268677,-0.17287486791610718,-0.3891211748123169
1732873401285142500,12.243142578125,0.4648684561252594,-0.2932153046131134,-0.5974262356758118
1732873401295131600,12.253131591796874,0.44776421785354614,-0.48747047781944275,-0.8662069439888
1732873401305131500,12.263131591796874,0.40256020426750183,-0.5638286471366882,-0.9608910083770752
1732873401315120600,12.27312060546875,0.34086281061172485,-0.6096435189247131,-0.9584475755691528
1732873401325152300,12.28315234375,0.2687807083129883,-0.6041457056999207,-0.8796459436416626
1732873401335109600,12.293109619140624,0.20830504596233368,-0.5381723046302795,-0.7434229850769043
1732873401345141200,12.303141357421875,0.1618792861700058,-0.4434881806373596,-0.5583308339118958
1732873401355129000,12.313129150390624,0.11972958594560623,-0.34208452701568604,-0.36590829491615295
1732873401365130200,12.323130126953124,0.02687807008624077,-0.20525072515010834,-0.1319468915462494
1732873401375118000,12.3331181640625,0.00427605677396059,-0.1270599663257599,-0.031154127791523933
1732873401385149400,12.3431494140625,0.019547687843441963,-0.05925392732024193,0.012828170321881771
1732873401395107300,12.353107421875,0.07024950534105301,0.0006108652451075613,-0.0012217304902151227
1732873401405138400,12.363138427734375,0.15393804013729095,0.01038470957428217,-0.08246681094169617
1732873401415126800,12.373126708984374,0.23579397797584534,-0.05314527451992035,-0.22418753802776337
1732873401425158400,12.383158447265625,0.27977627515792847,-0.12400564551353455,-0.38179078698158264
1732873401435116000,12.393115966796875,0.2834414839744568,-0.17043140530586243,-0.4807509481906891
1732873401445147400,12.4031474609375,0.2583959996700287,-0.16982053220272064,-0.4440990388393402
1732873401455135200,12.41313525390625,0.2223549485206604,-0.09346238523721695,-0.304210901260376
1732873401465136600,12.42313671875,0.18448130786418915,0.02015855349600315,-0.09162978827953339
1732873401475124200,12.433124267578124,0.16798794269561768,0.14477506279945374,0.1459967941045761
1732873401485156000,12.443156005859375,0.18509216606616974,0.2474004179239273,0.35246923565864563
1732873401495113200,12.45311328125,0.22052235901355743,0.3029891550540924,0.48197266459465027
1732873401505144800,12.463144775390624,0.26083946228027344,0.2877175211906433,0.5119050741195679
