time,seconds_elapsed,z,y,x
1732873389275668500,0.23366845703125,-0.031154127791523933,-0.07819075137376785,0.016493361443281174
1732873389285669600,0.243669677734375,-0.04459316283464432,-0.07819075137376785,0.02932153269648552
1732873389295657500,0.253657470703125,-0.056810468435287476,-0.08185594528913498,0.04153883829712868
1732873389305658600,0.26365869140625,-0.060475658625364304,-0.07391469180583954,0.04642575979232788
1732873389315646500,0.273646484375,-0.05497787147760391,-0.06108652427792549,0.04153883829712868
1732873389325678000,0.283677978515625,-0.04581489413976669,-0.05253441259264946,0.03726277872920036
1732873389335635700,0.2936357421875,-0.039095375686883926,-0.05253441259264946,0.03787364438176155
1732873389345667000,0.3036669921875,-0.03481931984424591,-0.05864306539297104,0.025045474991202354
1732873389355655200,0.3136552734375,-0.0354301854968071,-0.060475658625364304,0.00733038317412138
1732873389365656300,0.32365625,-0.03481931984424591,-0.059864792972803116,-0.007941247895359993
1732873389375644000,0.333643798828125,-0.033597588539123535,-0.05803219974040985,-0.024434609338641167
1732873389385676000,0.343676025390625,-0.02871066704392433,-0.05314527451992035,-0.04214970022439957
1732873389395633200,0.353633056640625,-0.02015855349600315,-0.05375614017248154,-0.04886921867728233
1732873389405664800,0.363664794921875,-0.014049900695681572,-0.04642575979232788,-0.051312681287527084
1732873389415652600,0.373652587890625,-0.02076941914856434,-0.04581489413976669,-0.0507018156349659
1732873389425684500,0.3836845703125,-0.0403171069920063,-0.05314527451992035,-0.04092797264456749
1732873389435641900,0.393641845703125,-0.05619960278272629,-0.06169738993048668,-0.036651913076639175
1732873389445673200,0.403673095703125,-0.06658431142568588,-0.06719517707824707,-0.03726277872920036
1732873389455661300,0.413661376953125,-0.06780604273080826,-0.06841690838336945,-0.04398229718208313
1732873389465662500,0.423662353515625,-0.06352998316287994,-0.07147123664617538,-0.04703662544488907
1732873389475650300,0.433650390625,-0.05375614017248154,-0.0757472887635231,-0.04214970022439957
1732873389485682200,0.44368212890625,-0.0354301854968071,-0.07635815441608429,-0.022602014243602753
1732873389495639300,0.453639404296875,-0.03298672288656235,-0.07330382615327835,-0.0024434609804302454
1732873389505670700,0.463670654296875,-0.04337143152952194,-0.07208210229873657,0.01466076634824276
1732873389515659000,0.473658935546875,-0.05375614017248154,-0.0659734457731247,0.025045474991202354
1732873389525660000,0.483659912109375,-0.05619960278272629,-0.05375614017248154,0.01771509274840355
1732873389535648000,0.49364794921875,-0.051312681287527084,-0.045204028487205505,0.0024434609804302454
1732873389545679600,0.5036796875,-0.051312681287527084,-0.04092797264456749,-0.016493361443281174
1732873389555637000,0.513636962890625,-0.05253441259264946,-0.04092797264456749,-0.039095375686883926
1732873389565668600,0.523668701171875,-0.048258353024721146,-0.04581489413976669,-0.056810468435287476
1732873389575656400,0.533656494140625,-0.05192354694008827,-0.04337143152952194,-0.054367005825042725
1732873389585657600,0.54365771484375,-0.05925392732024193,-0.04214970022439957,-0.04581489413976669
1732873389595643600,0.5536435546875,-0.06169738993048668,-0.04153883829712868,-0.03420845419168472
1732873389605676300,0.56367626953125,-0.06108652427792549,-0.04153883829712868,-0.02321287989616394
1732873389615633400,0.57363330078125,-0.056810468435287476,-0.04092797264456749,-0.013439035043120384
1732873389625665300,0.583665283203125,-0.045204028487205505,-0.039095375686883926,-0.010995574295520782
1732873389635652900,0.59365283203125,-0.015882495790719986,-0.03787364438176155,-0.016493361443281174
1732873389645654000,0.603654052734375,-0.00855211354792118,-0.0354301854968071,-0.015271631069481373
1732873389655641900,0.613641845703125,-0.015882495790719986,-0.02321287989616394,-0.012828170321881771
1732873389665673500,0.623673583984375,-0.02626720629632473,-0.012217304669320583,-0.00733038317412138
1732873389675661600,0.63366162109375,-0.03176499158143997,-0.01466076634824276,-0.0006108652451075613
1732873389685663000,0.6436630859375,-0.03420845419168472,-0.022602014243602753,0.003054326167330146
1732873389695651300,0.6536513671875,-0.03298672288656235,-0.02687807008624077,-0.005497787147760391
1732873389705683200,0.66368310546875,-0.029932396486401558,-0.03298672288656235,-0.02626720629632473
1732873389715640300,0.673640380859375,-0.030543262138962746,-0.04092797264456749,-0.03298672288656235
1732873389725672000,0.683671875,-0.04214970022439957,-0.05192354694008827,-0.03237585723400116
1732873389735660000,0.693659912109375,-0.05314527451992035,-0.056810468435287476,-0.03420845419168472
1732873389745661200,0.7036611328125,-0.05864306539297104,-0.06475171446800232,-0.03726277872920036
1732873389755649000,0.71364892578125,-0.05864306539297104,-0.05497787147760391,-0.04581489413976669
1732873389765681000,0.723680908203125,-0.06169738993048668,-0.04459316283464432,-0.048258353024721146
1732873389775638000,0.733637939453125,-0.06719517707824707,-0.02382374368607998,-0.04153883829712868
1732873389785669600,0.743669677734375,-0.06780604273080826,0.02382374368607998,-0.02932153269648552
1732873389795657500,0.753657470703125,-0.06719517707824707,0.04092797264456749,-0.021991148591041565
1732873389805659000,0.763658935546875,-0.06108652427792549,0.0354301854968071,-0.015271631069481373
1732873389815646500,0.773646484375,-0.05009094998240471,0.013439035043120384,-0.006108652334660292
1732873389825678300,0.78367822265625,-0.04642575979232788,-0.019547687843441963,0.013439035043120384
1732873389835635500,0.793635498046875,-0.05009094998240471,-0.0403171069920063,0.03787364438176155
1732873389845667300,0.803667236328125,-0.04948008432984352,-0.04337143152952194,0.0555887371301651
1732873389855655400,0.813655517578125,-0.039706241339445114,-0.028099801391363144,0.06414084881544113
1732873389865656300,0.82365625,-0.039095375686883926,-0.021380282938480377,0.06108652427792549
1732873389875644000,0.833643798828125,-0.048258353024721146,0,0.0507018156349659
1732873389885675500,0.843675537109375,-0.056810468435287476,0.02382374368607998,0.031154127791523933
1732873389895633200,0.853633056640625,-0.05864306539297104,0.036651913076639175,0.013439035043120384
1732873389905664800,0.863664794921875,-0.05864306539297104,0.021380282938480377,0.01710422709584236
1732873389915652600,0.873652587890625,-0.05864306539297104,-0.0006108652451075613,0.03726277872920036
1732873389925684200,0.883684326171875,-0.0507018156349659,-0.01710422709584236,0.07391469180583954
1732873389935641600,0.8936416015625,-0.0354301854968071,-0.00733038317412138,0.09346238523721695
1732873389945673500,0.903673583984375,-0.019547687843441963,0.00855211354792118,0.10812314599752426
1732873389955661000,0.9136611328125,-0.00427605677396059,0.02015855349600315,0.1111774742603302
1732873389965662200,0.923662109375,0.007941247895359993,0.02015855349600315,0.10262536257505417
1732873389975650300,0.933650390625,0.010995574295520782,0.039095375686883926,0.07757988572120667
1732873389985681400,0.943681396484375,0.006719517521560192,0.05925392732024193,0.0354301854968071
1732873389995193000,0.953193115234375,-0.012217304669320583,0.08735372871160507,-0.006719517521560192
1732873390005225000,0.963224853515625,-0.05497787147760391,0.13927727937698364,-0.03848451003432274
1732873390015212500,0.973212646484375,-0.08918632566928864,0.1667662113904953,-0.039706241339445114
1732873390025213700,0.983213623046875,-0.11789698898792267,0.16798794269561768,-0.02321287989616394
1732873390035201500,0.993201416015625,-0.1459967941045761,0.14355333149433136,0.02076941914856434
1732873390045233400,1.0032333984375,-0.17531833052635193,0.11423180252313614,0.08796459436416626
1732873390055190800,1.013190673828125,-0.20586158335208893,0.08857546001672745,0.1618792861700058
1732873390065222400,1.023222412109375,-0.23335053026676178,0.08674286305904388,0.21991148591041565
1732873390075210200,1.033210205078125,-0.26572638750076294,0.10323622822761536,0.25595253705978394
1732873390085211400,1.04321142578125,-0.2840523421764374,0.12217304855585098,0.24984388053417206
1732873390095199200,1.05319921875,-0.29504790902137756,0.14966198801994324,0.2119702398777008
1732873390105231000,1.063231201171875,-0.294437050819397,0.17348572611808777,0.15943582355976105
1732873390115188200,1.073188232421875,-0.2987131178379059,0.1814269721508026,0.11239920556545258
1732873390125220000,1.08322021484375,-0.31642818450927734,0.1722639948129654,0.08307767659425735
1732873390135207700,1.093207763671875,-0.34513887763023376,0.16004669666290283,0.08368854224681854
1732873390145209000,1.103208984375,-0.3897320330142975,0.15027284622192383,0.13377949595451355
1732873390155196700,1.11319677734375,-0.42088615894317627,0.16737708449363708,0.18936823308467865
1732873390165228300,1.123228271484375,-0.4398229718208313,0.19303341209888458,0.2480112910270691
1732873390175216400,1.13321630859375,-0.4495968222618103,0.23335053026676178,0.30054569244384766
1732873390185217500,1.143217529296875,-0.4434881806373596,0.25534167885780334,0.3481931984424591
1732873390195205000,1.153205078125,-0.4282165467739105,0.24678955972194672,0.38179078698158264
1732873390205237200,1.1632373046875,-0.41233405470848083,0.2217440903186798,0.39645153284072876
1732873390215194400,1.1731943359375,-0.38667771220207214,0.16432274878025055,0.40256020426750183
1732873390225226000,1.18322607421875,-0.34147366881370544,0.0806342139840126,0.3640756905078888
1732873390235213800,1.1932138671875,-0.30054569244384766,0.0403171069920063,0.30054569244384766
1732873390245214200,1.203214111328125,-0.25534167885780334,0.012217304669320583,0.22418753802776337
1732873390255202800,1.213202880859375,-0.20891591906547546,-0.02321287989616394,0.15515977144241333
1732873390265234000,1.22323388671875,-0.17470745742321014,-0.06108652427792549,0.10934487730264664
1732873390275191800,1.23319189453125,-0.14905111491680145,-0.1007927656173706,0.08674286305904388
1732873390285223700,1.2432236328125,-0.1313360333442688,-0.13927727937698364,0.08246681094169617
1732873390295211300,1.253211181640625,-0.1160643994808197,-0.16249015927314758,0.08185594528913498
1732873390305211600,1.263211669921875,-0.10751228034496307,-0.14966198801994324,0.0757472887635231
1732873390315200300,1.2732001953125,-0.08735372871160507,-0.11850785464048386,0.056810468435287476
1732873390325231400,1.2832314453125,-0.04398229718208313,-0.07941248267889023,0.03237585723400116
1732873390335189500,1.293189453125,0.03176499158143997,-0.04337143152952194,0.013439035043120384
1732873390345220600,1.303220703125,0.12034045159816742,-0.016493361443281174,0.012217304669320583
1732873390355209000,1.313208984375,0.18875735998153687,-0.00427605677396059,0.033597588539123535
1732873390365210000,1.323210205078125,0.21013765037059784,-0.031154127791523933,0.09468411654233932
1732873390375198200,1.3331982421875,0.17348572611808777,-0.07635815441608429,0.13500121235847473
1732873390385228500,1.343228515625,0.10873401165008545,-0.13439035415649414,0.15515977144241333
1732873390395187000,1.35318701171875,0.028099801391363144,-0.19486601650714874,0.14416420459747314
1732873390405217300,1.36321728515625,-0.060475658625364304,-0.23579397797584534,0.10445795953273773
1732873390415206400,1.373206298828125,-0.12767083942890167,-0.2583959996700287,0.051312681287527084
1732873390425238000,1.383238037109375,-0.14355333149433136,-0.27488934993743896,0.025045474991202354
1732873390435195600,1.393195556640625,-0.11178833991289139,-0.26083946228027344,0.05375614017248154
1732873390445227000,1.40322705078125,-0.012828170321881771,-0.24190263450145721,0.19975294172763824
1732873390455215000,1.413215087890625,0.06414084881544113,-0.2431243658065796,0.3243694305419922
1732873390465215700,1.4232158203125,0.13561208546161652,-0.24678955972194672,0.4306600093841553
1732873390475204400,1.433204345703125,0.20525072515010834,-0.23090706765651703,0.46792277693748474
1732873390485235500,1.4432353515625,0.2785545587539673,-0.20402899384498596,0.42638394236564636
1732873390495193000,1.453193115234375,0.3323107063770294,-0.16371189057826996,0.30604347586631775
1732873390505223700,1.4632236328125,0.34758231043815613,-0.08185594528913498,0.11239920556545258
1732873390515212800,1.473212890625,0.28099802136421204,0.06780604273080826,-0.2535090744495392
1732873390525214200,1.483214111328125,0.17959438264369965,0.1459967941045761,-0.4954117238521576
1732873390535201800,1.493201904296875,0.04153883829712868,0.1215621829032898,-0.6688974499702454
1732873390545233700,1.503233642578125,-0.10506882518529892,0,-0.7220427393913269
1732873390555190800,1.513190673828125,-0.21135938167572021,-0.17409659922122955,-0.6359107494354248
1732873390565222400,1.523222412109375,-0.24190263450145721,-0.3530801236629486,-0.41111230850219727
1732873390575210500,1.53321044921875,-0.19364428520202637,-0.4709770977497101,-0.08918632566928864
1732873390585211100,1.543211181640625,-0.01771509274840355,-0.4550946056842804,0.36102136969566345
1732873390595197400,1.553197509765625,0.12767083942890167,-0.3732386529445648,0.5369505286216736
1732873390605229300,1.563229248046875,0.24373523890972137,-0.27122417092323303,0.598647952079773
1732873390615187500,1.5731875,0.2785545587539673,-0.1771509200334549,0.5650503635406494
1732873390625217500,1.583217529296875,0.2272418737411499,-0.11728613078594208,0.4648684561252594
1732873390635207200,1.593207275390625,0.11178833991289139,-0.09834930300712585,0.34086281061172485
1732873390645206500,1.60320654296875,-0.051312681287527084,-0.13011430203914642,0.2474004179239273
1732873390655196000,1.61319580078125,-0.23579397797584534,-0.19792033731937408,0.20891591906547546
1732873390665227800,1.623227783203125,-0.4764748811721802,-0.2278527319431305,0.21563543379306793
1732873390675215400,1.63321533203125,-0.5852088928222656,-0.20036379992961884,0.23029619455337524
1732873390685216300,1.64321630859375,-0.6395758986473083,-0.17043140530586243,0.2223549485206604
1732873390695205000,1.653205078125,-0.6322455406188965,-0.16004669666290283,0.1771509200334549
1732873390705235700,1.663235595703125,-0.5736024379730225,-0.15027284622192383,0.09346238523721695
1732873390715194000,1.673194091796875,-0.4954117238521576,-0.12767083942890167,-0.014049900695681572
1732873390725225700,1.683225830078125,-0.4398229718208313,-0.09773843735456467,-0.10201449692249298
1732873390735213800,1.6932138671875,-0.4434881806373596,0.001832595793530345,-0.1563815027475357
1732873390745214500,1.70321435546875,-0.47769662737846375,0.08552113175392151,-0.13072516024112701
1732873390755202800,1.713202880859375,-0.523511528968811,0.12828169763088226,-0.05192354694008827
1732873390765234200,1.723234130859375,-0.5827654600143433,0.12522737681865692,0.07024950534105301
1732873390775191800,1.73319189453125,-0.6328563690185547,0.05375614017248154,0.2223549485206604
1732873390785222400,1.743222412109375,-0.6377432942390442,-0.0403171069920063,0.37201693654060364
1732873390795211300,1.753211181640625,-0.5815436840057373,-0.10384709388017654,0.4966334402561188
1732873390805211400,1.76321142578125,-0.4043927788734436,-0.15027284622192383,0.5858197808265686
1732873390815200300,1.7732001953125,-0.27061331272125244,-0.15577064454555511,0.5766568183898926
1732873390825230800,1.78323095703125,-0.1612684279680252,-0.1508837193250656,0.5259549617767334
1732873390835189200,1.793189208984375,-0.08735372871160507,-0.1313360333442688,0.44287729263305664
1732873390845220600,1.803220703125,-0.03848451003432274,-0.09651670604944229,0.33292156457901
1732873390855209000,1.813208984375,-0.00733038317412138,-0.056810468435287476,0.21319197118282318
1732873390865209600,1.823209716796875,0.010995574295520782,-0.015882495790719986,0.09285151958465576
1732873390875198000,1.833197998046875,0.029932396486401558,0.02321287989616394,-0.018325956538319588
1732873390885229300,1.843229248046875,0.05742133408784866,0.048258353024721146,-0.14355333149433136
1732873390895187200,1.853187255859375,0.07208210229873657,0.04337143152952194,-0.18936823308467865
1732873390905218000,1.863218017578125,0.08796459436416626,0.02687807008624077,-0.21319197118282318
1732873390915206400,1.873206298828125,0.11667526513338089,0.009773843921720982,-0.22357667982578278
1732873390925237500,1.883237548828125,0.15332718193531036,-0.005497787147760391,-0.2174680233001709
1732873390935195400,1.8931953125,0.1820378452539444,-0.01710422709584236,-0.2070833146572113
1732873390945254700,1.903254638671875,0.18631389737129211,-0.02015855349600315,-0.19547687470912933
1732873390955215000,1.913215087890625,0.14538592100143433,-0.031154127791523933,-0.15332718193531036
1732873390965215500,1.923215576171875,0.10323622822761536,-0.029932396486401558,-0.10873401165008545
1732873390975204000,1.9332041015625,0.06475171446800232,-0.025656340643763542,-0.06291911751031876
1732873390985235500,1.9432353515625,0.04764748737215996,-0.025656340643763542,-0.03420845419168472
1732873390995193000,1.953193115234375,0.05314527451992035,-0.039095375686883926,-0.01038470957428217
1732873391005224200,1.96322412109375,0.054367005825042725,-0.07391469180583954,0.014049900695681572
1732873391015212500,1.973212646484375,0.048258353024721146,-0.11728613078594208,0.018936822190880775
1732873391025213200,1.983213134765625,0.07880161702632904,-0.1869247704744339,-0.0012217304902151227
1732873391035201500,1.993201416015625,0.11301007121801376,-0.22113321721553802,0
1732873391045232600,2.003232666015625,0.1368338167667389,-0.24129177629947662,0.02076941914856434
1732873391055190500,2.0131904296875,0.1362229436635971,-0.2577851414680481,0.059864792972803116
1732873391065222100,2.02322216796875,0.11239920556545258,-0.27611109614372253,0.10018189996480942
1732873391075210200,2.033210205078125,0.07269296050071716,-0.2968805134296417,0.12034045159816742
1732873391085210600,2.043210693359375,0.03420845419168472,-0.33658674359321594,0.11301007121801376
1732873391095199200,2.05319921875,0.00427605677396059,-0.38728857040405273,0.07452555745840073
1732873391105230300,2.063230224609375,-0.031154127791523933,-0.48258355259895325,-0.02382374368607998
1732873391115188200,2.073188232421875,-0.03420845419168472,-0.5082398653030396,-0.1111774742603302
1732873391125219300,2.08321923828125,0.00427605677396059,-0.47769662737846375,-0.21991148591041565
1732873391135207700,2.093207763671875,0.06291911751031876,-0.4202753007411957,-0.3170390725135803
1732873391145208000,2.1032080078125,0.09162978827953339,-0.3628539443016052,-0.37079519033432007
1732873391155197000,2.113197021484375,0.07147123664617538,-0.32131510972976685,-0.36651915311813354
1732873391165228300,2.123228271484375,0.021380282938480377,-0.30482175946235657,-0.3090978264808655
1732873391175216400,2.13321630859375,-0.09162978827953339,-0.30543261766433716,-0.11667526513338089
1732873391185217300,2.14321728515625,-0.20586158335208893,-0.32009339332580566,0.09224065393209457
1732873391195205400,2.153205322265625,-0.32131510972976685,-0.3445279896259308,0.33475416898727417
1732873391205237000,2.163237060546875,-0.3830125033855438,-0.3738495409488678,0.5442809462547302
1732873391215194000,2.173194091796875,-0.36224308609962463,-0.4105014503002167,0.6908885836601257
1732873391225226000,2.18322607421875,-0.2871066629886627,-0.42638394236564636,0.769079327583313
1732873391235213800,2.1932138671875,-0.21868975460529327,-0.3787364661693573,0.799011766910553
1732873391245213700,2.203213623046875,-0.22602014243602753,-0.17959438264369965,0.7183775305747986
1732873391255202800,2.213202880859375,-0.32620203495025635,-0.0507018156349659,0.5375614166259766
1732873391265233400,2.2232333984375,-0.5021312236785889,0.03787364438176155,0.25534167885780334
1732873391275191800,2.23319189453125,-0.7153232097625732,0.06475171446800232,-0.07696902006864548
1732873391285223700,2.2432236328125,-0.8863654732704163,0.006719517521560192,-0.3885102868080139
1732873391295211300,2.253211181640625,-0.96883225440979,-0.11667526513338089,-0.6279694437980652
1732873391305211400,2.26321142578125,-0.9639453291893005,-0.26511552929878235,-0.7611380815505981
1732873391315200300,2.2732001953125,-0.8747590184211731,-0.3995058834552765,-0.7739662528038025
1732873391325231000,2.283231201171875,-0.6829473376274109,-0.455705463886261,-0.5491678714752197
1732873391335189500,2.293189453125,-0.5974262356758118,-0.37079519033432007,-0.29016098380088806
1732873391345220600,2.303220703125,-0.5674937963485718,-0.2028072625398636,-0.027488935738801956
1732873391355209000,2.313208984375,-0.5497786998748779,-0.025656340643763542,0.17470745742321014
1732873391365209600,2.323209716796875,-0.5088507533073425,0.08552113175392151,0.294437050819397
1732873391375198000,2.333197998046875,-0.4331034719944,0.10384709388017654,0.31154128909111023
1732873391385229300,2.343229248046875,-0.3500257730484009,0.04703662544488907,0.24373523890972137
1732873391395187000,2.35318701171875,-0.25595253705978394,-0.07819075137376785,0.09468411654233932
1732873391405218300,2.36321826171875,-0.2272418737411499,-0.13988813757896423,0.015271631069481373
1732873391415206400,2.373206298828125,-0.22296582162380219,-0.15027284622192383,-0.033597588539123535
1732873391425237800,2.38323779296875,-0.22602014243602753,-0.13255776464939117,-0.0403171069920063
1732873391435195600,2.393195556640625,-0.23457226157188416,-0.09224065393209457,-0.01771509274840355
1732873391445227800,2.403227783203125,-0.24862214922904968,-0.03420845419168472,0.01710422709584236
1732873391455215000,2.413215087890625,-0.2669481039047241,0.01710422709584236,0.056810468435287476
1732873391465216300,2.42321630859375,-0.3078760802745819,0.07024950534105301,0.1215621829032898
1732873391475204000,2.4332041015625,-0.34147366881370544,0.08246681094169617,0.15332718193531036
1732873391485236000,2.443236083984375,-0.36713001132011414,0.06719517707824707,0.17776179313659668
1732873391495193000,2.453193115234375,-0.37079519033432007,0.04214970022439957,0.19547687470912933
1732873391505224200,2.46322412109375,-0.33597588539123535,0.005497787147760391,0.20463985204696655
1732873391515212800,2.473212890625,-0.2773328125476837,-0.04581489413976669,0.20036379992961884
1732873391525213400,2.48321337890625,-0.20402899384498596,-0.08552113175392151,0.1875356286764145
1732873391535201800,2.493201904296875,-0.1264491081237793,-0.09529497474431992,0.16371189057826996
1732873391545233000,2.50323291015625,-0.024434609338641167,-0.04642575979232788,0.13072516024112701
1732873391555190800,2.513190673828125,0.0012217304902151227,-0.0006108652451075613,0.11301007121801376
1732873391565222400,2.523222412109375,0.0006108652451075613,0.02932153269648552,0.09346238523721695
1732873391575210200,2.533210205078125,-0.01466076634824276,0.0507018156349659,0.08246681094169617
1732873391585210000,2.543210205078125,-0.030543262138962746,0.05803219974040985,0.07452555745840073
1732873391595198000,2.553197998046875,-0.05314527451992035,0.05497787147760391,0.06169738993048668
1732873391605228800,2.563228759765625,-0.08735372871160507,0.0507018156349659,0.04092797264456749
1732873391615187500,2.5731875,-0.15515977144241333,0.048258353024721146,-0.006108652334660292
1732873391625219000,2.583218994140625,-0.20891591906547546,0.025656340643763542,-0.02871066704392433
1732873391635207000,2.59320703125,-0.26083946228027344,-0.01466076634824276,-0.025045474991202354
1732873391645207300,2.603207275390625,-0.27977627515792847,-0.04764748737215996,0.006108652334660292
1732873391655196000,2.61319580078125,-0.2528982162475586,-0.05009094998240471,0.05864306539297104
1732873391665227000,2.62322705078125,-0.1966986060142517,-0.012217304669320583,0.1264491081237793
1732873391675215600,2.633215576171875,-0.13866640627384186,0.036651913076639175,0.18081611394882202
1732873391685216300,2.64321630859375,-0.09896016865968704,0.060475658625364304,0.24068090319633484
1732873391695205400,2.653205322265625,-0.10201449692249298,0.007941247895359993,0.2742784917354584
1732873391705237000,2.663237060546875,-0.11423180252313614,-0.08796459436416626,0.2883284091949463
1732873391715194000,2.673194091796875,-0.12767083942890167,-0.18631389737129211,0.25961771607398987
1732873391725225200,2.68322509765625,-0.14355333149433136,-0.2571742534637451,0.18631389737129211
1732873391735213800,2.6932138671875,-0.1722639948129654,-0.29016098380088806,0.08735372871160507
1732873391745214000,2.7032138671875,-0.20952677726745605,-0.30115658044815063,-0.021380282938480377
1732873391755202800,2.713202880859375,-0.24068090319633484,-0.313373863697052,-0.12889257073402405
1732873391765234200,2.723234130859375,-0.2376265823841095,-0.3139847218990326,-0.23579397797584534
1732873391775192000,2.733192138671875,-0.2217440903186798,-0.3029891550540924,-0.242513507604599
1732873391785223400,2.743223388671875,-0.21502456068992615,-0.2871066629886627,-0.19486601650714874
1732873391795211500,2.75321142578125,-0.23090706765651703,-0.2669481039047241,-0.10384709388017654
1732873391805212700,2.763212646484375,-0.28527405858039856,-0.2528982162475586,0.01038470957428217
1732873391815200300,2.7732001953125,-0.38117989897727966,-0.2480112910270691,0.1270599663257599
1732873391825232400,2.783232421875,-0.5027421116828918,-0.252287358045578,0.23457226157188416
1732873391835189500,2.793189453125,-0.6737843751907349,-0.2474004179239273,0.3579670190811157
1732873391845220600,2.803220703125,-0.7483099102973938,-0.2474004179239273,0.3988949954509735
1732873391855209000,2.813208984375,-0.7715228199958801,-0.25106561183929443,0.3793473243713379
1732873391865209000,2.823208984375,-0.7305948138237,-0.24923302233219147,0.2926044464111328
1732873391875198000,2.833197998046875,-0.6389650702476501,-0.2321287989616394,0.16249015927314758
1732873391885230800,2.84323095703125,-0.5265658497810364,-0.19914206862449646,-0.004886921960860491
1732873391895187000,2.85318701171875,-0.42638394236564636,-0.12034045159816742,-0.19608774781227112
1732873391905218300,2.86321826171875,-0.34086281061172485,0.029932396486401558,-0.475253164768219
1732873391915206400,2.873206298828125,-0.34697145223617554,0.08796459436416626,-0.588874101638794
1732873391925237500,2.883237548828125,-0.38667771220207214,0.13011430203914642,-0.6316346526145935
1732873391935195600,2.893195556640625,-0.42577308416366577,0.13988813757896423,-0.6041457056999207
1732873391945226800,2.903226806640625,-0.45204028487205505,0.11178833991289139,-0.5174028873443604
1732873391955215000,2.913215087890625,-0.45753806829452515,0.05742133408784866,-0.38667771220207214
1732873391965215200,2.92321533203125,-0.413555771112442,-0.00855211354792118,-0.22479841113090515
1732873391975204000,2.9332041015625,-0.32559117674827576,-0.07757988572120667,-0.033597588539123535
1732873391985234400,2.943234375,-0.13866640627384186,-0.09162978827953339,0.26511552929878235
1732873391995193000,2.953193115234375,-0.03481931984424591,-0.05803219974040985,0.4349360466003418
1732873392005224200,2.96322412109375,0.02626720629632473,-0.036041051149368286,0.5351179838180542
1732873392015212800,2.973212890625,0.03848451003432274,-0.04214970022439957,0.5632177591323853
1732873392025213200,2.983213134765625,0.012828170321881771,-0.07513642311096191,0.5326744914054871
1732873392035201800,2.993201904296875,-0.015882495790719986,-0.13011430203914642,0.44654250144958496
1732873392045232600,3.003232666015625,-0.0403171069920063,-0.21563543379306793,0.31642818450927734
1732873392055190500,3.0131904296875,-0.06291911751031876,-0.3188716471195221,0.09040805697441101
1732873392065222000,3.023221923828125,-0.06902777403593063,-0.3543018400669098,-0.030543262138962746
1732873392075210200,3.033210205078125,-0.056810468435287476,-0.32498031854629517,-0.10812314599752426
1732873392085210600,3.043210693359375,-0.027488935738801956,-0.252287358045578,-0.13500121235847473
1732873392095199200,3.05319921875,0.009773843921720982,-0.1612684279680252,-0.12217304855585098
1732873392105230300,3.063230224609375,0.04092797264456749,-0.07696902006864548,-0.0861319974064827
1732873392115188200,3.073188232421875,0.06536258012056351,-0.02076941914856434,-0.04214970022439957
1732873392125219300,3.08321923828125,0.1007927656173706,0.014049900695681572,-0.010995574295520782
1732873392135207700,3.093207763671875,0.11423180252313614,0.012828170321881771,-0.01771509274840355
1732873392145208600,3.10320849609375,0.11667526513338089,-0.01038470957428217,-0.03787364438176155
1732873392155197000,3.113197021484375,0.11667526513338089,-0.039095375686883926,-0.06475171446800232
1732873392165227800,3.123227783203125,0.1215621829032898,-0.05803219974040985,-0.08185594528913498
1732873392175216400,3.13321630859375,0.12950342893600464,-0.06352998316287994,-0.08002334833145142
1732873392185217000,3.143217041015625,0.1466076523065567,-0.060475658625364304,-0.0659734457731247
1732873392195205400,3.153205322265625,0.18387043476104736,-0.03787364438176155,-0.048258353024721146
1732873392205236000,3.163236083984375,0.3078760802745819,0.0861319974064827,-0.03176499158143997
1732873392215194000,3.173194091796875,0.4355469346046448,0.18081611394882202,-0.03176499158143997
1732873392225225500,3.1832255859375,0.5558874011039734,0.20463985204696655,-0.048258353024721146
1732873392235213800,3.1932138671875,0.6261368989944458,0.15271630883216858,-0.1014036312699318
1732873392245214500,3.20321435546875,0.6340781450271606,0.015271631069481373,-0.18081611394882202
1732873392255202800,3.213202880859375,0.5858197808265686,-0.1722639948129654,-0.26511552929878235
1732873392265233400,3.2232333984375,0.48258355259895325,-0.34697145223617554,-0.34513887763023376
1732873392275192000,3.233192138671875,0.3023782968521118,-0.4954117238521576,-0.4178318381309509
1732873392285222400,3.243222412109375,0.2015855312347412,-0.4960225820541382,-0.42210787534713745
1732873392295211500,3.25321142578125,0.13988813757896423,-0.4337143301963806,-0.40256020426750183
1732873392305211600,3.263211669921875,0.11728613078594208,-0.29504790902137756,-0.36529740691185
1732873392315200300,3.2732001953125,0.1264491081237793,-0.16310101747512817,-0.30543261766433716
1732873392325231000,3.283231201171875,0.1618792861700058,-0.1014036312699318,-0.25473082065582275
1732873392335189200,3.293189208984375,0.19486601650714874,-0.10567969083786011,-0.22479841113090515
1732873392345220900,3.303220947265625,0.20097467303276062,-0.2370157092809677,-0.15393804013729095
1732873392355209000,3.313208984375,0.18387043476104736,-0.34636059403419495,-0.06352998316287994
1732873392365209900,3.3232099609375,0.15454891324043274,-0.4282165467739105,0.07635815441608429
1732873392375198200,3.3331982421875,0.1215621829032898,-0.4807509481906891,0.2535090744495392
1732873392385229600,3.3432294921875,0.09346238523721695,-0.485027015209198,0.4294382631778717
1732873392395187000,3.35318701171875,0.07208210229873657,-0.41172316670417786,0.5650503635406494
1732873392405218800,3.36321875,0.05619960278272629,-0.29565876722335815,0.6536257863044739
1732873392415206400,3.373206298828125,0.042760565876960754,-0.13927727937698364,0.6878342628479004
1732873392425238000,3.383238037109375,0.02382374368607998,0.09773843735456467,0.6206390857696533
1732873392435195600,3.393195556640625,-0.004886921960860491,0.20341812074184418,0.48319441080093384
1732873392445227000,3.40322705078125,-0.05925392732024193,0.2590068578720093,0.2626720666885376
1732873392455215000,3.413215087890625,-0.11728613078594208,0.24617868661880493,-0.016493361443281174
1732873392465216300,3.42321630859375,-0.16065755486488342,0.16798794269561768,-0.3090978264808655
1732873392475204000,3.4332041015625,-0.17898350954055786,0.0861319974064827,-0.5522221922874451
1732873392485235700,3.443235595703125,-0.1722639948129654,0.03176499158143997,-0.6908885836601257
1732873392495193000,3.453193115234375,-0.13439035415649414,0.01466076634824276,-0.675006091594696
1732873392505225000,3.463224853515625,-0.0861319974064827,0.07635815441608429,-0.5736024379730225
1732873392515212800,3.473212890625,-0.021380282938480377,0.17409659922122955,-0.4398229718208313
1732873392525213200,3.483213134765625,0.04092797264456749,0.2590068578720093,-0.2828305959701538
1732873392535201800,3.493201904296875,0.08307767659425735,0.3188716471195221,-0.13011430203914642
1732873392545233000,3.50323291015625,0.10567969083786011,0.33719760179519653,-0.01160643994808197
1732873392555190800,3.513190673828125,0.12095131725072861,0.31520646810531616,0.06536258012056351
1732873392565221600,3.5232216796875,0.13988813757896423,0.22418753802776337,0.13805554807186127
1732873392575210500,3.53321044921875,0.16065755486488342,0.1472185254096985,0.16493362188339233
1732873392585210600,3.543210693359375,0.18509216606616974,0.08246681094169617,0.17043140530586243
1732873392595197400,3.553197509765625,0.20036379992961884,0.04214970022439957,0.16737708449363708
1732873392605229800,3.563229736328125,0.21074850857257843,0.01771509274840355,0.1612684279680252
1732873392615187500,3.5731875,0.2223549485206604,0.013439035043120384,0.16554448008537292
1732873392625219000,3.583218994140625,0.2278527319431305,0.01160643994808197,0.20036379992961884
1732873392635207000,3.59320703125,0.2376265823841095,0.025656340643763542,0.25534167885780334
1732873392645207300,3.603207275390625,0.25534167885780334,0.07208210229873657,0.34086281061172485
1732873392655196000,3.61319580078125,0.2590068578720093,0.08491026610136032,0.40194934606552124
1732873392665227000,3.62322705078125,0.242513507604599,0.08002334833145142,0.4453207552433014
1732873392675215400,3.63321533203125,0.23273965716362,0.06719517707824707,0.45631635189056396
1732873392685216000,3.643216064453125,0.2480112910270691,0.04153883829712868,0.4196644127368927
1732873392695205000,3.653205078125,0.2889392673969269,0.02076941914856434,0.34147366881370544
1732873392705236200,3.663236328125,0.35735616087913513,0.03237585723400116,0.24923302233219147
1732873392715194400,3.6731943359375,0.45753806829452515,0.08491026610136032,0.1319468915462494
1732873392725226000,3.68322607421875,0.4795292317867279,0.16493362188339233,0.08307767659425735
1732873392735213800,3.6932138671875,0.5009095072746277,0.23518311977386475,0.06780604273080826
1732873392745215200,3.70321533203125,0.5216789245605469,0.24495697021484375,0.06414084881544113
1732873392755202800,3.713202880859375,0.5155702829360962,0.2626720666885376,0.05803219974040985
1732873392765234400,3.723234375,0.4905247986316681,0.26083946228027344,0.06352998316287994
1732873392775191800,3.73319189453125,0.4715879559516907,0.25473082065582275,0.06841690838336945
1732873392785223700,3.7432236328125,0.47280970215797424,0.24068090319633484,0.08368854224681854
1732873392795211300,3.753211181640625,0.4862487316131592,0.21441370248794556,0.10506882518529892
1732873392805212700,3.763212646484375,0.5174028873443604,0.17959438264369965,0.12095131725072861
1732873392815200300,3.7732001953125,0.5717698931694031,0.1514945775270462,0.1368338167667389
1732873392825232100,3.783232177734375,0.6389650702476501,0.1472185254096985,0.15393804013729095
1732873392835189200,3.793189208984375,0.6890559792518616,0.15027284622192383,0.17776179313659668
1732873392845221000,3.80322119140625,0.7037167549133301,0.1514945775270462,0.2028072625398636
1732873392855209000,3.813208984375,0.6860016584396362,0.15882496535778046,0.22113321721553802
1732873392865210000,3.823210205078125,0.5558874011039734,0.1618792861700058,0.2785545587539673
1732873392875198000,3.833197998046875,0.42638394236564636,0.14233160018920898,0.33475416898727417
1732873392885229300,3.843229248046875,0.32498031854629517,0.10812314599752426,0.3695734739303589
1732873392895187000,3.85318701171875,0.26572638750076294,0.06902777403593063,0.32986724376678467
1732873392905217300,3.86321728515625,0.23396138846874237,0.01710422709584236,0.17287486791610718
1732873392915206400,3.873206298828125,0.2620611786842346,-0.05375614017248154,-0.13072516024112701
1732873392925239000,3.883239013671875,0.37140607833862305,-0.13500121235847473,-0.5540547966957092
1732873392935195400,3.8931953125,0.6053674817085266,-0.42577308416366577,-1.2272282838821411
1732873392945256000,3.903255859375,0.7024950385093689,-0.6725626587867737,-1.4960089921951294
1732873392955215000,3.913215087890625,0.6914994716644287,-0.807563841342926,-1.5051720142364502
1732873392965216000,3.923216064453125,0.5662720799446106,-0.789237916469574,-1.289536476135254
1732873392975204000,3.9332041015625,0.3390302062034607,-0.6426302194595337,-0.9364564418792725
1732873392985235700,3.943235595703125,0.04337143152952194,-0.4386012554168701,-0.5516113042831421
1732873392995193000,3.953193115234375,-0.242513507604599,-0.21991148591041565,-0.251676470041275
1732873393005223700,3.9632236328125,-0.45326200127601624,0.051312681287527084,-0.005497787147760391
1732873393015212800,3.973212890625,-0.4300491213798523,0.17043140530586243,0.08124507963657379
1732873393025212700,3.983212646484375,-0.3170390725135803,0.23579397797584534,0.13011430203914642
1732873393035201500,3.993201416015625,-0.1661553531885147,0.2590068578720093,0.14844025671482086
1732873393045232000,4.003232177734375,-0.021380282938480377,0.23396138846874237,0.15882496535778046
1732873393055190500,4.0131904296875,0.09651670604944229,0.16737708449363708,0.16982053220272064
1732873393065221000,4.02322119140625,0.18875735998153687,0.04398229718208313,0.14905111491680145
1732873393075210200,4.033210205078125,0.26083946228027344,-0.13011430203914642,0.0659734457731247
1732873393085211100,4.043211181640625,0.3090978264808655,-0.4355469346046448,-0.1514945775270462
1732873393095199200,4.05319921875,0.2932153046131134,-0.5992587804794312,-0.3078760802745819
1732873393105230800,4.06323095703125,0.23945917189121246,-0.6627888083457947,-0.413555771112442
1732873393115188200,4.073188232421875,0.16920967400074005,-0.6322455406188965,-0.43676865100860596
1732873393125219800,4.0832197265625,0.11056660860776901,-0.5143485069274902,-0.3695734739303589
1732873393135207700,4.093207763671875,0.07757988572120667,-0.3274237811565399,-0.2272418737411499
1732873393145208800,4.103208740234375,0.05742133408784866,-0.1062905490398407,-0.03420845419168472
1732873393155197000,4.113197021484375,0.03237585723400116,0.15271630883216858,0.22907446324825287
1732873393165228300,4.123228271484375,0.029932396486401558,0.2474004179239273,0.3084869384765625
1732873393175216400,4.13321630859375,0.039095375686883926,0.2730567753314972,0.31459560990333557
1732873393185216800,4.143216796875,0.05253441259264946,0.2638937830924988,0.2565633952617645
1732873393195205400,4.153205322265625,0.07696902006864548,0.2583959996700287,0.1417207419872284
1732873393205236000,4.163236083984375,0.09834930300712585,0.28649580478668213,0.02015855349600315
1732873393215194000,4.173194091796875,0.1007927656173706,0.3536909818649292,-0.07147123664617538
1732873393225226000,4.18322607421875,0.07147123664617538,0.4966334402561188,-0.16249015927314758
1732873393235213800,4.1932138671875,0.0507018156349659,0.5833762884140015,-0.19425514340400696
1732873393245214700,4.203214599609375,0.028099801391363144,0.6407976150512695,-0.19608774781227112
1732873393255202800,4.213202880859375,0.00855211354792118,0.6579018831253052,-0.1612684279680252
1732873393265234400,4.223234375,0.009162978269159794,0.646906316280365,-0.11056660860776901
1732873393275192000,4.233192138671875,0.04092797264456749,0.6359107494354248,-0.059864792972803116
1732873393285222100,4.24322216796875,0.09468411654233932,0.618195652961731,-0.02382374368607998
1732873393295211300,4.253211181640625,0.16249015927314758,0.5937610268592834,-0.00733038317412138
1732873393305212700,4.263212646484375,0.2583959996700287,0.5119050741195679,0.009162978269159794
1732873393315200300,4.2732001953125,0.30054569244384766,0.44837507605552673,0.033597588539123535
1732873393325231900,4.28323193359375,0.3237585723400116,0.3689626157283783,0.0757472887635231
1732873393335189200,4.293189208984375,0.3384193480014801,0.3029891550540924,0.11423180252313614
1732873393345221000,4.30322119140625,0.35185837745666504,0.28099802136421204,0.13072516024112701
1732873393355209000,4.313208984375,0.3591887652873993,0.2889392673969269,0.12095131725072861
1732873393365210000,4.323210205078125,0.34697145223617554,0.28955012559890747,0.08429940044879913
1732873393375198000,4.333197998046875,0.2926044464111328,0.22968533635139465,-0.054367005825042725
1732873393385228300,4.343228271484375,0.2669481039047241,0.1569923609495163,-0.2015855312347412
1732873393395187000,4.35318701171875,0.27611109614372253,0.06536258012056351,-0.3628539443016052
1732873393405217500,4.363217529296875,0.3194825351238251,-0.025045474991202354,-0.494189977645874
1732873393415206400,4.373206298828125,0.37201693654060364,-0.09529497474431992,-0.5687155723571777
1732873393425238300,4.38323828125,0.40683624148368835,-0.13927727937698364,-0.5778785347938538
1732873393435195600,4.393195556640625,0.4056145250797272,-0.15943582355976105,-0.5265658497810364
1732873393445227300,4.403227294921875,0.32009339332580566,-0.13377949595451355,-0.3952298164367676
1732873393455215000,4.413215087890625,0.22968533635139465,-0.07757988572120667,-0.30604347586631775
1732873393465216300,4.42321630859375,0.14233160018920898,0.00427605677396059,-0.22113321721553802
1732873393475204000,4.4332041015625,0.06841690838336945,0.08002334833145142,-0.15577064454555511
1732873393485236000,4.443236083984375,0.024434609338641167,0.1417207419872284,-0.11239920556545258
1732873393495193000,4.453193115234375,0.015882495790719986,0.16371189057826996,-0.07880161702632904
1732873393505224700,4.463224609375,0.030543262138962746,0.1411098688840866,-0.03787364438176155
1732873393515212800,4.473212890625,0.04642575979232788,0.09162978827953339,0.010995574295520782
1732873393525214000,4.4832138671875,0.04337143152952194,-0.036041051149368286,0.09773843735456467
1732873393535201800,4.493201904296875,0.025656340643763542,-0.12095131725072861,0.16859880089759827
1732873393545233200,4.503233154296875,0.0012217304902151227,-0.16920967400074005,0.2370157092809677
1732873393555190800,4.513190673828125,-0.014049900695681572,-0.17592918872833252,0.30054569244384766
1732873393565222400,4.523222412109375,-0.02015855349600315,-0.14294247329235077,0.3445279896259308
1732873393575210200,4.533210205078125,-0.027488935738801956,-0.0959058403968811,0.3579670190811157
1732873393585211400,4.54321142578125,-0.03237585723400116,-0.07330382615327835,0.33169981837272644
1732873393595197700,4.55319775390625,-0.02932153269648552,-0.11789698898792267,0.23090706765651703
1732873393605229800,4.563229736328125,-0.03237585723400116,-0.18448130786418915,0.14416420459747314
1732873393615187200,4.573187255859375,-0.04092797264456749,-0.24556782841682434,0.05925392732024193
1732873393625219000,4.583218994140625,-0.05497787147760391,-0.28466320037841797,0.010995574295520782
1732873393635206700,4.59320654296875,-0.07819075137376785,-0.30115658044815063,0.01160643994808197
1732873393645207800,4.603207763671875,-0.11911872029304504,-0.29565876722335815,0.05314527451992035
1732873393655196000,4.61319580078125,-0.17776179313659668,-0.27611109614372253,0.12461651116609573
1732873393665227500,4.6232275390625,-0.2669481039047241,-0.2528982162475586,0.2480112910270691
1732873393675215600,4.633215576171875,-0.3194825351238251,-0.2321287989616394,0.32009339332580566
1732873393685216300,4.64321630859375,-0.35735616087913513,-0.2028072625398636,0.37140607833862305
1732873393695205000,4.653205078125,-0.3677408695220947,-0.17837265133857727,0.3903428912162781
1732873393705235500,4.6632353515625,-0.3591887652873993,-0.1722639948129654,0.3897320330142975
1732873393715194000,4.673194091796875,-0.34025195240974426,-0.18570303916931152,0.37568211555480957
1732873393725224700,4.683224609375,-0.3066543638706207,-0.21991148591041565,0.35246923565864563
1732873393735213800,4.6932138671875,-0.2541199326515198,-0.2577851414680481,0.342695415019989
1732873393745213700,4.703213623046875,-0.1716531366109848,-0.28527405858039856,0.38117989897727966
1732873393755202800,4.713202880859375,-0.1514945775270462,-0.29565876722335815,0.4392121136188507
1732873393765234400,4.723234375,-0.14355333149433136,-0.2889392673969269,0.4954117238521576
1732873393775191800,4.73319189453125,-0.11239920556545258,-0.2272418737411499,0.5259549617767334
1732873393785222700,4.74322265625,-0.06780604273080826,-0.09712757170200348,0.5125159621238708
1732873393795211500,4.75321142578125,-0.03787364438176155,0.05192354694008827,0.4337143301963806
1732873393805211600,4.763211669921875,-0.02871066704392433,0.1771509200334549,0.2828305959701538
1732873393815200300,4.7732001953125,-0.00427605677396059,0.242513507604599,-0.00733038317412138
1732873393825232100,4.783232177734375,-0.006108652334660292,0.16310101747512817,-0.17776179313659668
1732873393835189500,4.793189453125,-0.04642575979232788,0.030543262138962746,-0.3530801236629486
1732873393845220900,4.803220947265625,-0.09162978827953339,-0.10018189996480942,-0.5119050741195679
1732873393855209000,4.813208984375,-0.13377949595451355,-0.16920967400074005,-0.6133087277412415
1732873393865210000,4.823210205078125,-0.16920967400074005,-0.16554448008537292,-0.6243042945861816
1732873393875198000,4.833197998046875,-0.1966986060142517,-0.09529497474431992,-0.5528330206871033
1732873393885229600,4.8432294921875,-0.19608774781227112,0.04642575979232788,-0.3445279896259308
1732873393895187000,4.85318701171875,-0.17898350954055786,0.14049901068210602,-0.19364428520202637
1732873393905218600,4.863218505859375,-0.1472185254096985,0.23884831368923187,-0.0910189226269722
1732873393915206400,4.873206298828125,-0.11728613078594208,0.2987131178379059,-0.051312681287527084
1732873393925238000,4.883238037109375,-0.1007927656173706,0.3127630054950714,-0.0861319974064827
1732873393935195600,4.893195556640625,-0.09773843735456467,0.2932153046131134,-0.19425514340400696
1732873393945227300,4.903227294921875,-0.10751228034496307,0.25106561183929443,-0.35735616087913513
1732873393955215000,4.913215087890625,-0.12889257073402405,0.13500121235847473,-0.5271766781806946
1732873393965216000,4.923216064453125,-0.14538592100143433,-0.16310101747512817,-0.6878342628479004
1732873393975204000,4.9332041015625,-0.14233160018920898,-0.3738495409488678,-0.6713408827781677
1732873393985235700,4.943235595703125,-0.12278391420841217,-0.5412266254425049,-0.5326744914054871
1732873393995193000,4.953193115234375,-0.08979719132184982,-0.6059783101081848,-0.3029891550540924
1732873394005224700,4.963224609375,-0.0354301854968071,-0.5485569834709167,-0.05009094998240471
1732873394015212800,4.973212890625,0.03481931984424591,-0.3830125033855438,0.1661553531885147
1732873394025213700,4.983213623046875,0.1007927656173706,-0.1716531366109848,0.303600013256073
1732873394035201800,4.993201904296875,0.14477506279945374,0.05742133408784866,0.34208452701568604
1732873394045232400,5.003232421875,0.14416420459747314,0.10751228034496307,0.2736676335334778
1732873394055190500,5.0131904296875,0.14355333149433136,0.08307767659425735,0.17348572611808777
1732873394065221600,5.0232216796875,0.1459967941045761,0.019547687843441963,0.09896016865968704
1732873394075210200,5.033210205078125,0.15882496535778046,-0.03848451003432274,0.07147123664617538
1732873394085211000,5.0432109375,0.1820378452539444,-0.0659734457731247,0.09162978827953339
1732873394095199200,5.05319921875,0.21930062770843506,-0.03298672288656235,0.1368338167667389
1732873394105231000,5.063231201171875,0.2828305959701538,0.0708603709936142,0.22602014243602753
1732873394115188000,5.07318798828125,0.3286454975605011,0.15882496535778046,0.26450464129447937
1732873394125220000,5.08322021484375,0.37751471996307373,0.22907446324825287,0.28099802136421204
1732873394135207700,5.093207763671875,0.4190535545349121,0.2565633952617645,0.2816088795661926
1732873394145209000,5.103208984375,0.44226643443107605,0.22479841113090515,0.27000242471694946
1732873394155196700,5.11319677734375,0.4508185386657715,0.15393804013729095,0.2541199326515198
1732873394165228300,5.123228271484375,0.43249258399009705,0.05314527451992035,0.2382374405860901
1732873394175216400,5.13321630859375,0.3781255781650543,-0.08857546001672745,0.2376265823841095
1732873394185216000,5.143216064453125,0.2632829248905182,-0.21319197118282318,0.2174680233001709
1732873394195205600,5.15320556640625,0.18387043476104736,-0.18936823308467865,0.2015855312347412
1732873394205237000,5.163237060546875,0.12950342893600464,-0.07819075137376785,0.20830504596233368
1732873394215194400,5.1731943359375,0.10018189996480942,0.09407325088977814,0.25045475363731384
1732873394225225700,5.183225830078125,0.10323622822761536,0.29565876722335815,0.31093040108680725
1732873394235213800,5.1932138671875,0.15332718193531036,0.4899139404296875,0.34636059403419495
1732873394245214200,5.203214111328125,0.23090706765651703,0.6188064813613892,0.35063666105270386
1732873394255202800,5.213202880859375,0.34147366881370544,0.6200281977653503,0.2968805134296417
1732873394265234400,5.223234375,0.4092797040939331,0.49785518646240234,0.20891591906547546
1732873394275191800,5.23319189453125,0.4709770977497101,0.30604347586631775,0.10445795953273773
1732873394285223700,5.2432236328125,0.5125159621238708,0.09834930300712585,0.00733038317412138
1732873394295211300,5.253211181640625,0.5308418869972229,-0.06780604273080826,-0.07941248267889023
1732873394305212700,5.263212646484375,0.5503895878791809,-0.13866640627384186,-0.16493362188339233
1732873394315200300,5.2732001953125,0.5662720799446106,-0.08857546001672745,-0.24190263450145721
1732873394325230800,5.28323095703125,0.5510004758834839,0.13866640627384186,-0.39095374941825867
1732873394335189500,5.293189453125,0.4648684561252594,0.37140607833862305,-0.5119050741195679
1732873394345220900,5.303220947265625,0.33658674359321594,0.5222898125648499,-0.5827654600143433
1732873394355209000,5.313208984375,0.2125810980796814,0.5357288122177124,-0.5729916095733643
1732873394365210000,5.323210205078125,0.11789698898792267,0.43188172578811646,-0.4789183437824249
1732873394375198000,5.333197998046875,0.05009094998240471,0.2742784917354584,-0.32620203495025635
1732873394385229600,5.3432294921875,0.018325956538319588,0.10995574295520782,-0.1563815027475357
1732873394395187000,5.35318701171875,0.024434609338641167,-0.00366519158706069,-0.031154127791523933
1732873394405217800,5.3632177734375,0.05009094998240471,-0.07330382615327835,-0.00366519158706069
1732873394415206400,5.373206298828125,0.04214970022439957,-0.13377949595451355,-0.08979719132184982
1732873394425237500,5.383237548828125,0.02626720629632473,-0.22418753802776337,-0.2565633952617645
1732873394435195600,5.393195556640625,0.021991148591041565,-0.31093040108680725,-0.46181413531303406
1732873394445227300,5.403227294921875,0.019547687843441963,-0.35246923565864563,-0.6298020482063293
1732873394455215000,5.413215087890625,-0.00733038317412138,-0.3384193480014801,-0.7104362845420837
1732873394465216300,5.42321630859375,-0.07452555745840073,-0.28588494658470154,-0.6725626587867737
1732873394475204000,5.4332041015625,-0.24678955972194672,-0.21319197118282318,-0.40072759985923767
1732873394485235700,5.443235595703125,-0.38179078698158264,-0.18875735998153687,-0.14233160018920898
1732873394495193300,5.453193359375,-0.4996877610683441,-0.23396138846874237,0.10323622822761536
1732873394505225000,5.463224853515625,-0.5803219676017761,-0.32620203495025635,0.2919935882091522
1732873394515212800,5.473212890625,-0.6133087277412415,-0.42149701714515686,0.4178318381309509
1732873394525214000,5.4832138671875,-0.6010913848876953,-0.494189977645874,0.4954117238521576
1732873394535201800,5.493201904296875,-0.5613851547241211,-0.523511528968811,0.5455026626586914
1732873394545233000,5.50323291015625,-0.475253164768219,-0.43799036741256714,0.5626068711280823
1732873394555190800,5.513190673828125,-0.4288274049758911,-0.32498031854629517,0.5522221922874451
1732873394565221600,5.5232216796875,-0.394618958234787,-0.21319197118282318,0.5326744914054871
1732873394575210200,5.533210205078125,-0.3891211748123169,-0.11789698898792267,0.5149593949317932
1732873394585211400,5.54321142578125,-0.4086688458919525,-0.06780604273080826,0.5027421116828918
1732873394595197400,5.553197509765625,-0.4495968222618103,-0.08185594528913498,0.4954117238521576
1732873394605230000,5.56322998046875,-0.5119050741195679,-0.13805554807186127,0.49846604466438293
1732873394615187200,5.573187255859375,-0.5815436840057373,-0.2028072625398636,0.5125159621238708
1732873394625219000,5.583218994140625,-0.6432411074638367,-0.2828305959701538,0.5363397002220154
1732873394635207000,5.59320703125,-0.6475171446800232,-0.3066543638706207,0.5271766781806946
1732873394645206800,5.603206787109375,-0.6120869517326355,-0.28099802136421204,0.4789183437824249
1732873394655196000,5.61319580078125,-0.5534439086914062,-0.2431243658065796,0.4184426963329315
1732873394665226500,5.6232265625,-0.4948008358478546,-0.21380282938480377,0.3604104816913605
1732873394675215400,5.63321533203125,-0.45814892649650574,-0.18936823308467865,0.2981022298336029
1732873394685216000,5.643216064453125,-0.4495968222618103,-0.15515977144241333,0.2272418737411499
1732873394695205000,5.653205078125,-0.4453207552433014,-0.12828169763088226,0.13255776464939117
1732873394705236500,5.663236572265625,-0.44776421785354614,-0.1508837193250656,0.07941248267889023
1732873394715194400,5.6731943359375,-0.45631635189056396,-0.20891591906547546,0.030543262138962746
1732873394725226200,5.683226318359375,-0.4544837474822998,-0.27000242471694946,-0.01771509274840355
1732873394735213800,5.6932138671875,-0.4398229718208313,-0.3090978264808655,-0.042760565876960754
1732873394745215000,5.703215087890625,-0.4196644127368927,-0.33169981837272644,-0.0403171069920063
1732873394755202800,5.713202880859375,-0.39095374941825867,-0.34025195240974426,-0.022602014243602753
1732873394765234400,5.723234375,-0.33047810196876526,-0.29016098380088806,0.009773843921720982
1732873394775191800,5.73319189453125,-0.2889392673969269,-0.2272418737411499,0.029932396486401558
1732873394785223400,5.743223388671875,-0.26083946228027344,-0.1569923609495163,0.03787364438176155
1732873394795211300,5.753211181640625,-0.26022860407829285,-0.10018189996480942,0.03298672288656235
1732873394805212700,5.763212646484375,-0.2919935882091522,-0.0757472887635231,0.010995574295520782
1732873394815200300,5.7732001953125,-0.35613444447517395,-0.09224065393209457,-0.01771509274840355
1732873394825232100,5.783232177734375,-0.43615779280662537,-0.1368338167667389,-0.04886921867728233
1732873394835189200,5.793189208984375,-0.5112941861152649,-0.22052235901355743,-0.0757472887635231
1732873394845221000,5.80322119140625,-0.5913175344467163,-0.3335324227809906,-0.11728613078594208
1732873394855209000,5.813208984375,-0.607810914516449,-0.3677408695220947,-0.1411098688840866
1732873394865210000,5.823210205078125,-0.588263213634491,-0.384845107793808,-0.16310101747512817
1732873394875198000,5.833197998046875,-0.5259549617767334,-0.3689626157283783,-0.192422553896904
1732873394885229800,5.843229736328125,-0.4502076804637909,-0.32131510972976685,-0.2125810980796814
1732873394895187000,5.85318701171875,-0.3854559659957886,-0.26633724570274353,-0.22968533635139465
1732873394905218800,5.86321875,-0.3286454975605011,-0.21074850857257843,-0.2571742534637451
1732873394915206400,5.873206298828125,-0.2785545587539673,-0.1417207419872284,-0.3237585723400116
1732873394925238000,5.883238037109375,-0.2828305959701538,-0.13255776464939117,-0.40194934606552124
1732873394935195400,5.8931953125,-0.2926044464111328,-0.1362229436635971,-0.5112941861152649
1732873394945254000,5.90325390625,-0.303600013256073,-0.15454891324043274,-0.616973876953125
1732873394955215000,5.913215087890625,-0.3127630054950714,-0.16371189057826996,-0.6951646208763123
1732873394965216000,5.923216064453125,-0.3176499307155609,-0.15393804013729095,-0.7299839854240417
1732873394975204400,5.933204345703125,-0.323147714138031,-0.10567969083786011,-0.7165449261665344
1732873394985235700,5.943235595703125,-0.34025195240974426,0.02015855349600315,-0.6688974499702454
1732873394995193000,5.953193115234375,-0.3628539443016052,0.12400564551353455,-0.6548475623130798
1732873395005224200,5.96322412109375,-0.3781255781650543,0.2278527319431305,-0.6688974499702454
1732873395015212500,5.973212646484375,-0.3585779070854187,0.3445279896259308,-0.7073819637298584
1732873395025213000,5.983212890625,-0.3090978264808655,0.4612032473087311,-0.7373143434524536
1732873395035201500,5.993201416015625,-0.252287358045578,0.48258355259895325,-0.7293730974197388
1732873395045232400,6.003232421875,-0.19853121042251587,0.3781255781650543,-0.6939429044723511
1732873395055190500,6.0131904296875,-0.14355333149433136,0.19914206862449646,-0.6640105247497559
1732873395065222000,6.023221923828125,-0.05497787147760391,-0.1368338167667389,-0.6010913848876953
1732873395075210200,6.033210205078125,0.0012217304902151227,-0.3280346393585205,-0.5381723046302795
1732873395085211100,6.043211181640625,0.045204028487205505,-0.4386012554168701,-0.4801400899887085
1732873395095199200,6.05319921875,0.05864306539297104,-0.48747047781944275,-0.4294382631778717
1732873395105230800,6.06323095703125,0.0555887371301651,-0.46242499351501465,-0.3646865487098694
1732873395115188000,6.07318798828125,0.02932153269648552,-0.3628539443016052,-0.24617868661880493
1732873395125219800,6.0832197265625,-0.00427605677396059,-0.22602014243602753,-0.060475658625364304
1732873395135207700,6.093207763671875,-0.02382374368607998,-0.010995574295520782,0.3219259977340698
1732873395145208800,6.103208740234375,-0.009773843921720982,0.11178833991289139,0.6133087277412415
1732873395155196700,6.11319677734375,-0.006719517521560192,0.17592918872833252,0.8906415104866028
1732873395165228300,6.123228271484375,-0.027488935738801956,0.14844025671482086,1.0946705341339111
1732873395175216400,6.13321630859375,-0.05253441259264946,0.05742133408784866,1.1734721660614014
1732873395185216800,6.143216796875,-0.05742133408784866,-0.04764748737215996,1.1325441598892212
1732873395195205400,6.153205322265625,-0.04459316283464432,-0.13561208546161652,1.0012081861495972
1732873395205236200,6.163236328125,0.029932396486401558,-0.20036379992961884,0.7275404930114746
1732873395215194400,6.1731943359375,0.13561208546161652,-0.16493362188339233,0.5552765130996704
1732873395225225200,6.18322509765625,0.27061331272125244,-0.0806342139840126,0.4190535545349121
1732873395235213800,6.1932138671875,0.394008070230484,0.015882495790719986,0.3488040566444397
1732873395245214500,6.20321435546875,0.4807509481906891,0.11667526513338089,0.33658674359321594
1732873395255202800,6.213202880859375,0.5485569834709167,0.19486601650714874,0.3481931984424591
1732873395265234700,6.223234619140625,0.607200026512146,0.21991148591041565,0.33108896017074585
1732873395275191800,6.23319189453125,0.646295428276062,0.21563543379306793,0.26450464129447937
1732873395285223000,6.243222900390625,0.66584312915802,0.18509216606616974,0.10323622822761536
1732873395295211300,6.253211181640625,0.6725626587867737,0.17348572611808777,-0.01771509274840355
1732873395305212200,6.263212158203125,0.6792821288108826,0.21624629199504852,-0.11911872029304504
1732873395315200300,6.2732001953125,0.7238753437995911,0.29016098380088806,-0.1820378452539444
1732873395325231600,6.283231689453125,0.8319984674453735,0.3982841372489929,-0.18448130786418915
1732873395335189200,6.293189208984375,0.9871582388877869,0.5473352670669556,-0.13072516024112701
1732873395345221000,6.30322119140625,1.1227703094482422,0.7348709106445312,-0.05009094998240471
1732873395355209000,6.313208984375,1.1508700847625732,0.9230173826217651,0.07880161702632904
1732873395365208600,6.32320849609375,1.0512990951538086,0.9663888216018677,0.1612684279680252
1732873395375198000,6.333197998046875,0.9156870245933533,0.9175195693969727,0.2125810980796814
1732873395385228300,6.343228271484375,0.7452555894851685,0.7299839854240417,0.24434609711170197
1732873395395187000,6.35318701171875,0.5522221922874451,0.4502076804637909,0.251676470041275
1732873395405219000,6.363218994140625,0.3805690407752991,0.0757472887635231,0.2174680233001709
1732873395415206400,6.373206298828125,0.23518311977386475,-0.31581732630729675,0.09957103431224823
1732873395425238000,6.383238037109375,0.11484266817569733,-0.7043276429176331,-0.21013765037059784
1732873395435195600,6.393195556640625,0.13744467496871948,-0.8350527882575989,-0.42210787534713745
1732873395445225700,6.403225830078125,0.19547687470912933,-0.8533787727355957,-0.5772676467895508
1732873395455215000,6.413215087890625,0.24190263450145721,-0.7629706859588623,-0.6414085030555725
1732873395465216300,6.42321630859375,0.2370157092809677,-0.5962044596672058,-0.5937610268592834
1732873395475204000,6.4332041015625,0.16737708449363708,-0.39584067463874817,-0.44654250144958496
1732873395485235700,6.443235595703125,0.06291911751031876,-0.20952677726745605,-0.2541199326515198
1732873395495193300,6.453193359375,-0.039095375686883926,-0.07513642311096191,-0.08979719132184982
1732873395505224700,6.463224609375,-0.1618792861700058,-0.030543262138962746,-0.02382374368607998
1732873395515212800,6.473212890625,-0.22846360504627228,-0.10445795953273773,-0.10506882518529892
1732873395525214000,6.4832138671875,-0.27061331272125244,-0.22418753802776337,-0.26083946228027344
1732873395535201800,6.493201904296875,-0.28588494658470154,-0.3597996234893799,-0.44165557622909546
1732873395545233400,6.5032333984375,-0.294437050819397,-0.46242499351501465,-0.5827654600143433
1732873395555190800,6.513190673828125,-0.31520646810531616,-0.5222898125648499,-0.6603453159332275
1732873395565222100,6.52322216796875,-0.34697145223617554,-0.5192354321479797,-0.6664539575576782
1732873395575210200,6.533210205078125,-0.40622538328170776,-0.39217549562454224,-0.5119050741195679
1732873395585211400,6.54321142578125,-0.4300491213798523,-0.28527405858039856,-0.3194825351238251
1732873395595197400,6.553197509765625,-0.4495968222618103,-0.18509216606616974,-0.09162978827953339
1732873395605230000,6.56322998046875,-0.4489859640598297,-0.11850785464048386,0.13072516024112701
1732873395615187200,6.573187255859375,-0.4294382631778717,-0.09224065393209457,0.3023782968521118
1732873395625219000,6.583218994140625,-0.39645153284072876,-0.10018189996480942,0.403781920671463
1732873395635206700,6.59320654296875,-0.3604104816913605,-0.1362229436635971,0.4489859640598297
1732873395645208000,6.6032080078125,-0.29626965522766113,-0.20891591906547546,0.4550946056842804
1732873395655196000,6.61319580078125,-0.25961771607398987,-0.24068090319633484,0.45814892649650574
1732873395665227500,6.6232275390625,-0.2376265823841095,-0.2474004179239273,0.48747047781944275
1732873395675215400,6.63321533203125,-0.24068090319633484,-0.21624629199504852,0.5381723046302795
1732873395685216500,6.643216552734375,-0.2669481039047241,-0.1722639948129654,0.5962044596672058
1732873395695205000,6.653205078125,-0.31154128909111023,-0.13316862285137177,0.6334672570228577
1732873395705237000,6.663237060546875,-0.37140607833862305,-0.10690141469240189,0.6322455406188965
1732873395715194000,6.673194091796875,-0.4300491213798523,-0.12034045159816742,0.5968153476715088
1732873395725225700,6.683225830078125,-0.4893030524253845,-0.11972958594560623,0.513737678527832
1732873395735213800,6.6932138671875,-0.4960225820541382,-0.11850785464048386,0.4440990388393402
1732873395745215000,6.703215087890625,-0.4801400899887085,-0.11789698898792267,0.35552358627319336
1732873395755203000,6.713203125,-0.43799036741256714,-0.10812314599752426,0.23884831368923187
1732873395765233400,6.7232333984375,-0.33658674359321594,-0.09346238523721695,0.10567969083786011
1732873395775191800,6.73319189453125,-0.2217440903186798,-0.09346238523721695,-0.0006108652451075613
1732873395785223200,6.74322314453125,-0.1258382350206375,-0.10262536257505417,-0.08124507963657379
1732873395795211300,6.753211181640625,-0.08552113175392151,-0.08918632566928864,-0.15821409225463867
1732873395805212400,6.76321240234375,-0.12828169763088226,-0.07635815441608429,-0.16798794269561768
1732873395815200300,6.7732001953125,-0.20830504596233368,-0.08185594528913498,-0.15332718193531036
1732873395825232100,6.783232177734375,-0.2840523421764374,-0.08002334833145142,-0.16004669666290283
1732873395835189200,6.793189208984375,-0.3280346393585205,-0.05497787147760391,-0.2015855312347412
1732873395845221400,6.803221435546875,-0.37690386176109314,-0.005497787147760391,-0.23396138846874237
1732873395855209000,6.813208984375,-0.42638394236564636,0.060475658625364304,-0.251676470041275
1732873395865210000,6.823210205078125,-0.4495968222618103,0.20097467303276062,-0.3023782968521118
1732873395875198000,6.833197998046875,-0.44654250144958496,0.2834414839744568,-0.3585779070854187
1732873395885229800,6.843229736328125,-0.45204028487205505,0.3243694305419922,-0.4593706727027893
1732873395895187000,6.85318701171875,-0.455705463886261,0.33169981837272644,-0.598647952079773
1732873395905218600,6.863218505859375,-0.4508185386657715,0.28588494658470154,-0.7391469478607178
1732873395915206400,6.873206298828125,-0.42760565876960754,0.25045475363731384,-0.8405506014823914
1732873395925238300,6.88323828125,-0.38667771220207214,0.2015855312347412,-0.8582656979560852
1732873395935195400,6.8931953125,-0.34574973583221436,0.15393804013729095,-0.7996225953102112
1732873395945227300,6.903227294921875,-0.2816088795661926,0.15332718193531036,-0.6304129362106323
1732873395955215000,6.913215087890625,-0.22479841113090515,0.15027284622192383,-0.45265114307403564
1732873395965216000,6.923216064453125,-0.15943582355976105,0.12339477986097336,-0.24678955972194672
1732873395975204000,6.9332041015625,-0.10506882518529892,0.05925392732024193,-0.0708603709936142
1732873395985235700,6.943235595703125,-0.07208210229873657,-0.04337143152952194,0.033597588539123535
1732873395995193000,6.953193115234375,-0.04948008432984352,-0.1508837193250656,0.0806342139840126
1732873396005224200,6.96322412109375,-0.029932396486401558,-0.23518311977386475,0.07024950534105301
1732873396015212800,6.973212890625,0.0006108652451075613,-0.2687807083129883,-0.03420845419168472
1732873396025213000,6.983212890625,0.03787364438176155,-0.1973094791173935,-0.14049901068210602
1732873396035201500,6.993201416015625,0.08979719132184982,-0.06108652427792549,-0.24068090319633484
1732873396045231900,7.00323193359375,0.12278391420841217,0.0708603709936142,-0.2993239760398865
1732873396055190500,7.0131904296875,0.11911872029304504,0.1508837193250656,-0.30054569244384766
1732873396065220900,7.023220947265625,0.07452555745840073,0.1771509200334549,-0.25534167885780334
1732873396075210200,7.033210205078125,-0.00427605677396059,0.152105450630188,-0.182648703455925
1732873396085209900,7.0432099609375,-0.1716531366109848,-0.030543262138962746,-0.06780604273080826
1732873396095199200,7.05319921875,-0.26572638750076294,-0.2015855312347412,-0.01160643994808197
1732873396105231000,7.063231201171875,-0.3280346393585205,-0.3243694305419922,0.05253441259264946
1732873396115188000,7.07318798828125,-0.3439171314239502,-0.3799581825733185,0.1264491081237793
1732873396125219800,7.0832197265625,-0.32070425152778625,-0.3689626157283783,0.20402899384498596
1732873396135207700,7.093207763671875,-0.2528982162475586,-0.31459560990333557,0.2681698501110077
1732873396145208000,7.1032080078125,-0.1661553531885147,-0.25106561183929443,0.31581732630729675
1732873396155197000,7.113197021484375,-0.0806342139840126,-0.19792033731937408,0.3243694305419922
1732873396165228300,7.123228271484375,0.015882495790719986,-0.1472185254096985,0.26633724570274353
1732873396175216400,7.13321630859375,0.03298672288656235,-0.11728613078594208,0.21563543379306793
1732873396185217300,7.14321728515625,0.029932396486401558,-0.08429940044879913,0.16920967400074005
1732873396195205400,7.153205322265625,0.021380282938480377,-0.05009094998240471,0.1411098688840866
1732873396205237000,7.163237060546875,-0.0012217304902151227,0.006108652334660292,0.13316862285137177
1732873396215194000,7.173194091796875,-0.03726277872920036,0.07147123664617538,0.13805554807186127
1732873396225226000,7.18322607421875,-0.06414084881544113,0.1264491081237793,0.14538592100143433
1732873396235213800,7.1932138671875,-0.07941248267889023,0.14233160018920898,0.1661553531885147
1732873396245214700,7.203214599609375,-0.07330382615327835,0.14416420459747314,0.1814269721508026
1732873396255202800,7.213202880859375,-0.06108652427792549,0.1417207419872284,0.1814269721508026
1732873396265234400,7.223234375,-0.04642575979232788,0.13744467496871948,0.1661553531885147
1732873396275192000,7.233192138671875,-0.027488935738801956,0.11850785464048386,0.1417207419872284
1732873396285223400,7.243223388671875,0.0006108652451075613,0.1014036312699318,0.11056660860776901
1732873396295211300,7.253211181640625,0.03787364438176155,0.08002334833145142,0.07696902006864548
1732873396305212700,7.263212646484375,0.10751228034496307,0.06902777403593063,0.04703662544488907
1732873396315200300,7.2732001953125,0.1618792861700058,0.08429940044879913,0.04886921867728233
1732873396325232400,7.283232421875,0.21868975460529327,0.10384709388017654,0.07452555745840073
1732873396335189500,7.293189453125,0.26511552929878235,0.13255776464939117,0.11239920556545258
1732873396345221000,7.30322119140625,0.2993239760398865,0.17470745742321014,0.15577064454555511
1732873396355209000,7.313208984375,0.31154128909111023,0.2028072625398636,0.2070833146572113
1732873396365210000,7.323210205078125,0.3023782968521118,0.2174680233001709,0.24617868661880493
1732873396375198000,7.333197998046875,0.26450464129447937,0.2064724564552307,0.2638937830924988
1732873396385229600,7.3432294921875,0.16982053220272064,0.17043140530586243,0.23396138846874237
1732873396395187000,7.35318701171875,0.10018189996480942,0.14966198801994324,0.15454891324043274
1732873396405218800,7.36321875,0.04398229718208313,0.12095131725072861,0.027488935738801956
1732873396415206700,7.37320654296875,0.015882495790719986,0.08552113175392151,-0.13561208546161652
1732873396425238300,7.38323828125,0.02321287989616394,0.04764748737215996,-0.2919935882091522
1732873396435195600,7.393195556640625,0.03176499158143997,0.04337143152952194,-0.40622538328170776
1732873396445227300,7.403227294921875,0.02015855349600315,0.07024950534105301,-0.45265114307403564
1732873396455215000,7.413215087890625,-0.02076941914856434,0.14905111491680145,-0.46181413531303406
1732873396465216300,7.42321630859375,-0.039095375686883926,0.21502456068992615,-0.4789183437824249
1732873396475204400,7.433204345703125,-0.048258353024721146,0.26022860407829285,-0.5259549617767334
1732873396485234400,7.443234375,-0.05009094998240471,0.2993239760398865,-0.5913175344467163
1732873396495193300,7.453193359375,-0.04581489413976669,0.3017674386501312,-0.646295428276062
1732873396505223400,7.463223388671875,-0.04886921867728233,0.2431243658065796,-0.6743952035903931
1732873396515212800,7.473212890625,-0.07269296050071716,0.16859880089759827,-0.6597344875335693
1732873396525212400,7.48321240234375,-0.13927727937698364,0.06719517707824707,-0.5381723046302795
1732873396535201800,7.493201904296875,-0.16554448008537292,-0.014049900695681572,-0.4031710624694824
1732873396545232000,7.50323193359375,-0.15760323405265808,-0.11362093687057495,-0.23457226157188416
1732873396555190800,7.513190673828125,-0.12095131725072861,-0.21441370248794556,-0.027488935738801956
1732873396565222700,7.52322265625,-0.07208210229873657,-0.2675589919090271,0.192422553896904
1732873396575210200,7.533210205078125,-0.02871066704392433,-0.2669481039047241,0.3988949954509735
1732873396585211000,7.5432109375,0,-0.23029619455337524,0.5809328556060791
1732873396595197400,7.553197509765625,0.02015855349600315,-0.18631389737129211,0.7202101349830627
1732873396605229300,7.563229248046875,0.021380282938480377,-0.13927727937698364,0.8020660877227783
1732873396615187500,7.5731875,0.006719517521560192,-0.13805554807186127,0.7776314616203308
1732873396625218300,7.58321826171875,-0.014049900695681572,-0.15393804013729095,0.7147123217582703
1732873396635206700,7.59320654296875,-0.042760565876960754,-0.16737708449363708,0.6249151229858398
1732873396645207000,7.60320703125,-0.04337143152952194,-0.1716531366109848,0.5167919993400574
1732873396655195600,7.613195556640625,-0.03237585723400116,-0.17104226350784302,0.4184426963329315
1732873396665227500,7.6232275390625,-0.016493361443281174,-0.21013765037059784,0.3445279896259308
1732873396675215400,7.63321533203125,-0.03787364438176155,-0.31154128909111023,0.2871066629886627
1732873396685216500,7.643216552734375,-0.08674286305904388,-0.3781255781650543,0.2773328125476837
1732873396695205000,7.653205078125,-0.1569923609495163,-0.4184426963329315,0.2816088795661926
1732873396705237000,7.663237060546875,-0.25106561183929443,-0.4050036668777466,0.2968805134296417
1732873396715194000,7.673194091796875,-0.3628539443016052,-0.35246923565864563,0.31093040108680725
1732873396725226200,7.683226318359375,-0.4691445231437683,-0.2724458873271942,0.31520646810531616
1732873396735213800,7.6932138671875,-0.5357288122177124,-0.19486601650714874,0.3139847218990326
1732873396745215000,7.703215087890625,-0.5491678714752197,-0.10018189996480942,0.32070425152778625
1732873396755202800,7.713202880859375,-0.5222898125648499,-0.06841690838336945,0.342695415019989
1732873396765234400,7.723234375,-0.4905247986316681,-0.05864306539297104,0.3640756905078888
1732873396775191800,7.73319189453125,-0.45631635189056396,-0.06719517707824707,0.37140607833862305
1732873396785223400,7.743223388671875,-0.44776421785354614,-0.08979719132184982,0.34636059403419495
1732873396795211500,7.75321142578125,-0.45692721009254456,-0.1014036312699318,0.2785545587539673
1732873396805212700,7.763212646484375,-0.48258355259895325,-0.08674286305904388,0.18325957655906677
1732873396815200300,7.7732001953125,-0.5076290369033813,-0.05803219974040985,0.08918632566928864
1732873396825232400,7.783232421875,-0.5418374538421631,-0.07391469180583954,-0.0006108652451075613
1732873396835189200,7.793189208984375,-0.5406157374382019,-0.09651670604944229,-0.03176499158143997
1732873396845221000,7.80322119140625,-0.5241223573684692,-0.12034045159816742,-0.028099801391363144
1732873396855209000,7.813208984375,-0.5082398653030396,-0.13255776464939117,0.006108652334660292
1732873396865210000,7.823210205078125,-0.4948008358478546,-0.1111774742603302,0.0403171069920063
1732873396875198000,7.833197998046875,-0.4740314185619354,-0.02687807008624077,0.03237585723400116
1732873396885228500,7.843228515625,-0.4355469346046448,0.09712757170200348,-0.0507018156349659
1732873396895187000,7.85318701171875,-0.3084869384765625,0.19975294172763824,-0.31520646810531616
1732873396905217000,7.863217041015625,-0.21074850857257843,0.16798794269561768,-0.5076290369033813
1732873396915206400,7.873206298828125,-0.1270599663257599,0.10812314599752426,-0.6414085030555725
1732873396925238000,7.883238037109375,-0.06719517707824707,0.05192354694008827,-0.6890559792518616
1732873396935195400,7.8931953125,-0.051312681287527084,-0.003054326167330146,-0.6316346526145935
1732873396945253600,7.903253662109375,-0.07757988572120667,-0.0354301854968071,-0.4893030524253845
1732873396955215000,7.913215087890625,-0.12522737681865692,-0.04337143152952194,-0.31581732630729675
1732873396965216300,7.92321630859375,-0.19303341209888458,-0.03237585723400116,-0.10690141469240189
1732873396975204000,7.9332041015625,-0.22296582162380219,-0.029932396486401558,-0.04703662544488907
1732873396985236000,7.943236083984375,-0.22052235901355743,-0.03481931984424591,-0.0806342139840126
1732873396995193000,7.953193115234375,-0.19364428520202637,-0.05803219974040985,-0.1820378452539444
1732873397005225000,7.963224853515625,-0.1618792861700058,-0.08246681094169617,-0.2932153046131134
1732873397015212500,7.973212646484375,-0.13255776464939117,-0.08857546001672745,-0.3885102868080139
1732873397025213700,7.983213623046875,-0.1111774742603302,-0.07147123664617538,-0.43737950921058655
1732873397035201500,7.993201416015625,-0.10873401165008545,-0.05253441259264946,-0.41661009192466736
1732873397045233200,8.003233154296876,-0.1472185254096985,0.01160643994808197,-0.2834414839744568
1732873397055190800,8.013190673828126,-0.18387043476104736,0.05742133408784866,-0.16920967400074005
1732873397065222700,8.02322265625,-0.21930062770843506,0.06658431142568588,-0.05375614017248154
1732873397075210200,8.033210205078126,-0.24434609711170197,0.036041051149368286,0.051312681287527084
1732873397085211400,8.04321142578125,-0.24923302233219147,-0.010995574295520782,0.14294247329235077
1732873397095199200,8.05319921875,-0.23029619455337524,-0.060475658625364304,0.22663100063800812
1732873397105231000,8.063231201171876,-0.1918116807937622,-0.08979719132184982,0.30115658044815063
1732873397115188000,8.07318798828125,-0.09224065393209457,-0.07819075137376785,0.3536909818649292
1732873397125219600,8.083219482421875,-0.02015855349600315,-0.08002334833145142,0.35613444447517395
1732873397135207700,8.093207763671876,0.03298672288656235,-0.10262536257505417,0.33292156457901
1732873397145208800,8.103208740234376,0.06108652427792549,-0.12034045159816742,0.2981022298336029
1732873397155196700,8.11319677734375,0.06658431142568588,-0.12767083942890167,0.2687807083129883
1732873397165228300,8.123228271484376,0.06108652427792549,-0.1417207419872284,0.25595253705978394
1732873397175216400,8.13321630859375,0.051312681287527084,-0.14049901068210602,0.2577851414680481
1732873397185217300,8.14321728515625,0.05925392732024193,-0.1368338167667389,0.26450464129447937
1732873397195205000,8.153205078125,0.08796459436416626,-0.1417207419872284,0.25961771607398987
1732873397205237000,8.163237060546875,0.12950342893600464,-0.13988813757896423,0.23090706765651703
1732873397215194000,8.173194091796875,0.18509216606616974,-0.09162978827953339,0.182648703455925
1732873397225226200,8.183226318359376,0.2541199326515198,0.00366519158706069,0.1258382350206375
1732873397235213800,8.1932138671875,0.31459560990333557,0.04764748737215996,0.08429940044879913
1732873397245215000,8.203215087890625,0.3396410644054413,0.02932153269648552,0.06719517707824707
1732873397255202800,8.213202880859376,0.32559117674827576,0.001832595793530345,0.0708603709936142
1732873397265234400,8.223234375,0.25106561183929443,-0.007941247895359993,0.12889257073402405
1732873397275192000,8.233192138671875,0.19058994948863983,-0.005497787147760391,0.17531833052635193
1732873397285223700,8.2432236328125,0.1508837193250656,-0.00366519158706069,0.19914206862449646
1732873397295211300,8.253211181640625,0.13988813757896423,-0.03848451003432274,0.19058994948863983
1732873397305212700,8.263212646484375,0.17348572611808777,-0.08857546001672745,0.15332718193531036
1732873397315200300,8.2732001953125,0.25595253705978394,-0.12767083942890167,0.08796459436416626
1732873397325232000,8.283232177734375,0.3744603991508484,-0.02382374368607998,0.003054326167330146
1732873397335189200,8.293189208984375,0.6102544069290161,0.42760565876960754,-0.09224065393209457
1732873397345221000,8.30322119140625,0.7086036801338196,0.6383541822433472,-0.036041051149368286
1732873397355209000,8.313208984375,0.656680166721344,0.6542366743087769,0.07330382615327835
1732873397365210000,8.323210205078125,0.4605923891067505,0.4697553813457489,0.2168571650981903
1732873397375198200,8.3331982421875,0.21502456068992615,0.1215621829032898,0.32681289315223694
1732873397385229600,8.3432294921875,0.02871066704392433,-0.3439171314239502,0.34513887763023376
1732873397395187000,8.35318701171875,-0.09040805697441101,-0.7141014933586121,0.251676470041275
1732873397405218800,8.36321875,-0.1771509200334549,-0.8637634515762329,-0.0708603709936142
1732873397415206700,8.37320654296875,-0.0910189226269722,-0.7770205736160278,-0.294437050819397
1732873397425238300,8.38323828125,0.05314527451992035,-0.6017022728919983,-0.4306600093841553
1732873397435195400,8.3931953125,0.19853121042251587,-0.31520646810531616,-0.46303585171699524
1732873397445227300,8.403227294921875,0.3323107063770294,0.025045474991202354,-0.4440990388393402
1732873397455215000,8.413215087890626,0.40622538328170776,0.30970868468284607,-0.4251621961593628
1732873397465216300,8.42321630859375,0.394618958234787,0.4343251883983612,-0.44226643443107605
1732873397475204400,8.433204345703125,0.28038713335990906,0.44654250144958496,-0.5283984541893005
1732873397485235700,8.443235595703126,-0.03420845419168472,0.22479841113090515,-0.788016140460968
1732873397495193000,8.453193115234376,-0.24678955972194672,-0.00733038317412138,-0.9712757468223572
1732873397505225000,8.463224853515625,-0.4251621961593628,-0.20097467303276062,-1.1246029138565063
1732873397515212800,8.473212890625,-0.5516113042831421,-0.3243694305419922,-1.2064588069915771
1732873397525214000,8.4832138671875,-0.6200281977653503,-0.3634648323059082,-1.197295904159546
1732873397535201800,8.493201904296875,-0.6163630485534668,-0.36163222789764404,-1.102611780166626
1732873397545233400,8.5032333984375,-0.5369505286216736,-0.3225368559360504,-0.9627236127853394
1732873397555190800,8.513190673828126,-0.3274237811565399,-0.1869247704744339,-0.7544185519218445
1732873397565222100,8.52322216796875,-0.1667662113904953,-0.08307767659425735,-0.6524040699005127
1732873397575210500,8.53321044921875,-0.054367005825042725,0.0006108652451075613,-0.5925393104553223
1732873397585211100,8.543211181640626,-0.015271631069481373,0.039706241339445114,-0.5833762884140015
1732873397595197400,8.553197509765624,-0.036041051149368286,-0.009162978269159794,-0.6188064813613892
1732873397605228300,8.563228271484375,-0.04581489413976669,-0.08429940044879913,-0.6933320760726929
1732873397615187500,8.5731875,-0.08185594528913498,-0.09773843735456467,-0.7440338730812073
1732873397625217500,8.583217529296874,-0.11423180252313614,-0.3170390725135803,-0.6743952035903931
1732873397635207000,8.59320703125,-0.14355333149433136,-0.4709770977497101,-0.5479460954666138
1732873397645207800,8.603207763671875,-0.17776179313659668,-0.5907067060470581,-0.3842342495918274
1732873397655195600,8.613195556640624,-0.20463985204696655,-0.6860016584396362,-0.19914206862449646
1732873397665227500,8.6232275390625,-0.20525072515010834,-0.7611380815505981,-0.012828170321881771
1732873397675215400,8.63321533203125,-0.16249015927314758,-0.8063421249389648,0.15882496535778046
1732873397685216500,8.643216552734375,-0.09896016865968704,-0.8032878041267395,0.313373863697052
1732873397695205000,8.653205078125,-0.00366519158706069,-0.7336491346359253,0.44287729263305664
1732873397705237000,8.663237060546875,0.1618792861700058,-0.4905247986316681,0.6114761233329773
1732873397715194000,8.673194091796875,0.22418753802776337,-0.33108896017074585,0.7061602473258972
1732873397725224700,8.683224609375,0.24007004499435425,-0.18570303916931152,0.7574729323387146
1732873397735213800,8.6932138671875,0.20891591906547546,-0.048258353024721146,0.7568620443344116
1732873397745213700,8.703213623046874,0.11301007121801376,0.0354301854968071,0.7324274182319641
1732873397755202800,8.713202880859376,-0.027488935738801956,0.08185594528913498,0.6835582256317139
1732873397765233200,8.723233154296874,-0.17348572611808777,0.12522737681865692,0.6114761233329773
1732873397775191800,8.73319189453125,-0.3579670190811157,0.16554448008537292,0.5308418869972229
1732873397785223400,8.743223388671876,-0.4386012554168701,0.16004669666290283,0.5125159621238708
1732873397795211300,8.753211181640625,-0.48258355259895325,0.14049901068210602,0.4960225820541382
1732873397805212400,8.76321240234375,-0.5015203952789307,0.1215621829032898,0.46731191873550415
1732873397815200300,8.7732001953125,-0.5149593949317932,0.1264491081237793,0.42699480056762695
1732873397825232100,8.783232177734375,-0.5338962078094482,0.152105450630188,0.39217549562454224
1732873397835189200,8.793189208984375,-0.5510004758834839,0.19853121042251587,0.38240164518356323
1732873397845221000,8.80322119140625,-0.5338962078094482,0.3732386529445648,0.42149701714515686
1732873397855209000,8.813208984375,-0.4343251883983612,0.5900958180427551,0.45326200127601624
1732873397865209000,8.823208984375,-0.26572638750076294,0.8038986921310425,0.4764748811721802
1732873397875198000,8.833197998046876,-0.09896016865968704,0.9352346658706665,0.5064072608947754
1732873397885229600,8.8432294921875,0.010995574295520782,0.9205739498138428,0.5442809462547302
1732873397895187000,8.85318701171875,0.04764748737215996,0.788016140460968,0.5736024379730225
1732873397905218600,8.863218505859376,0.012828170321881771,0.5962044596672058,0.5705481171607971
1732873397915206400,8.873206298828125,-0.07696902006864548,0.41111230850219727,0.5302310585975647
1732873397925238300,8.88323828125,-0.27000242471694946,0.25961771607398987,0.4141666293144226
1732873397935195400,8.8931953125,-0.4056145250797272,0.23518311977386475,0.313373863697052
1732873397945227300,8.903227294921875,-0.5192354321479797,0.22663100063800812,0.20891591906547546
1732873397955215000,8.913215087890626,-0.5827654600143433,0.2718350291252136,0.10323622822761536
1732873397965206300,8.923206298828125,-0.5662720799446106,0.3640756905078888,0.015271631069481373
1732873397975195400,8.9331953125,-0.4386012554168701,0.41172316670417786,-0.03237585723400116
1732873397985225700,8.943225830078125,-0.23884831368923187,0.4105014503002167,-0.048258353024721146
1732873397995184400,8.953184326171876,-0.006719517521560192,0.3188716471195221,-0.012217304669320583
1732873398005215000,8.963215087890624,0.07147123664617538,0.1814269721508026,0.031154127791523933
1732873398015203800,8.973203857421876,0.1062905490398407,0.018325956538319588,0.03848451003432274
1732873398025205200,8.983205322265626,0.12339477986097336,-0.1918116807937622,0.015271631069481373
1732873398035192800,8.99319287109375,0.10201449692249298,-0.35735616087913513,0.0012217304902151227
1732873398045224400,9.003224365234376,0.0403171069920063,-0.3952298164367676,0.01466076634824276
1732873398055181800,9.013181884765626,-0.016493361443281174,-0.32986724376678467,0.05619960278272629
1732873398065213700,9.023213623046875,-0.00855211354792118,-0.13255776464939117,0.13316862285137177
1732873398075201500,9.033201416015626,0.048258353024721146,0.021380282938480377,0.12950342893600464
1732873398085201400,9.043201416015625,0.15271630883216858,0.11850785464048386,0.039706241339445114
1732873398094745000,9.0527451171875,0.303600013256073,0.1160643994808197,-0.1270599663257599
1732873398105222100,9.06322216796875,0.4599815309047699,0.027488935738801956,-0.33047810196876526
1732873398115179500,9.073179443359376,0.5369505286216736,-0.1007927656173706,-0.5076290369033813
1732873398125211100,9.083211181640625,0.523511528968811,-0.21991148591041565,-0.5845980644226074
1732873398135199000,9.093198974609376,0.4593706727027893,-0.27977627515792847,-0.5351179838180542
1732873398145200000,9.1032001953125,0.33597588539123535,-0.2877175211906433,-0.3995058834552765
1732873398155188000,9.11318798828125,0.24373523890972137,-0.2785545587539673,-0.20952677726745605
1732873398165219600,9.123219482421876,0.15515977144241333,-0.251676470041275,-0.02626720629632473
1732873398175207400,9.13320751953125,0.0861319974064827,-0.22540926933288574,0.1215621829032898
1732873398185208800,9.143208740234375,0.04398229718208313,-0.19608774781227112,0.2577851414680481
1732873398195196700,9.15319677734375,0.031154127791523933,-0.15760323405265808,0.37751471996307373
1732873398205228300,9.163228271484375,0.0555887371301651,-0.1368338167667389,0.4495968222618103
1732873398215185400,9.173185302734375,0.13988813757896423,-0.14233160018920898,0.4550946056842804
1732873398225217000,9.183217041015626,0.19120082259178162,-0.14844025671482086,0.4349360466003418
1732873398235205000,9.193205078125,0.2021963894367218,-0.09346238523721695,0.42149701714515686
1732873398245206000,9.2032060546875,0.1814269721508026,0.013439035043120384,0.4105014503002167
1732873398255194000,9.213194091796876,0.18509216606616974,0.08124507963657379,0.3897320330142975
1732873398265225700,9.223225830078125,0.2064724564552307,0.12217304855585098,0.3604104816913605
1732873398275183000,9.23318310546875,0.2174680233001709,0.13255776464939117,0.342695415019989
1732873398285215000,9.243215087890626,0.23151792585849762,0.12095131725072861,0.3390302062034607
1732873398295503600,9.253503662109376,0.27000242471694946,0.11239920556545258,0.33169981837272644
1732873398305234400,9.263234375,0.3072652220726013,0.1062905490398407,0.32009339332580566
1732873398315191600,9.273191650390626,0.3194825351238251,0.09162978827953339,0.30115658044815063
1732873398325223400,9.283223388671875,0.3127630054950714,0.06780604273080826,0.26450464129447937
1732873398335180800,9.293180908203125,0.2840523421764374,0.042760565876960754,0.2272418737411499
1732873398345212400,9.30321240234375,0.2474004179239273,0.04398229718208313,0.2015855312347412
1732873398355200300,9.3132001953125,0.2376265823841095,0.04398229718208313,0.1765400618314743
1732873398365201400,9.323201416015625,0.30543261766433716,0.01710422709584236,0.1716531366109848
1732873398375189500,9.333189453125,0.3384193480014801,-0.016493361443281174,0.18997909128665924
1732873398385221000,9.34322119140625,0.323147714138031,-0.05497787147760391,0.24068090319633484
1732873398395178200,9.35317822265625,0.2871066629886627,-0.07941248267889023,0.3139847218990326
1732873398405210000,9.363210205078126,0.2590068578720093,-0.10201449692249298,0.3683517575263977
1732873398415198000,9.373197998046875,0.25473082065582275,-0.08674286305904388,0.3988949954509735
1732873398425229600,9.3832294921875,0.26145032048225403,0.00855211354792118,0.42271876335144043
1732873398435186700,9.393186767578126,0.33169981837272644,0.1869247704744339,0.4031710624694824
1732873398445218600,9.403218505859375,0.4105014503002167,0.2577851414680481,0.35613444447517395
1732873398455206400,9.413206298828126,0.4758640229701996,0.30115658044815063,0.313373863697052
1732873398465207600,9.42320751953125,0.5155702829360962,0.3323107063770294,0.29626965522766113
1732873398475195400,9.4331953125,0.5320636034011841,0.3433062732219696,0.3139847218990326
1732873398485227300,9.443227294921876,0.5277875661849976,0.32131510972976685,0.34513887763023376
1732873398495184400,9.453184326171876,0.5070181488990784,0.2822197377681732,0.34086281061172485
1732873398505216300,9.46321630859375,0.5021312236785889,0.12522737681865692,0.20830504596233368
1732873398515204000,9.4732041015625,0.5149593949317932,-0.05803219974040985,0.02871066704392433
1732873398525205500,9.48320556640625,0.5253441333770752,-0.2791654169559479,-0.2168571650981903
1732873398535193000,9.493193115234375,0.5424483418464661,-0.48869219422340393,-0.46731191873550415
1732873398545224700,9.503224609375,0.5357288122177124,-0.6536257863044739,-0.6878342628479004
1732873398555182000,9.51318212890625,0.49296826124191284,-0.7287622094154358,-0.8130616545677185
1732873398565212200,9.523212158203124,0.4056145250797272,-0.7092145681381226,-0.8106181621551514
1732873398575201500,9.533201416015626,0.2968805134296417,-0.5613851547241211,-0.6126978397369385
1732873398585201200,9.543201171875,0.12522737681865692,-0.1472185254096985,-0.37751471996307373
1732873398595188700,9.553188720703124,-0.005497787147760391,0.16982053220272064,-0.11484266817569733
1732873398605221000,9.56322119140625,-0.11789698898792267,0.4050036668777466,0.08552113175392151
1732873398615178800,9.5731787109375,-0.18509216606616974,0.503963828086853,0.14294247329235077
1732873398625209900,9.5832099609375,-0.2076941877603531,0.4801400899887085,0.05314527451992035
1732873398635198200,9.5931982421875,-0.1966986060142517,0.3127630054950714,-0.14294247329235077
1732873398645198000,9.603197998046875,-0.16371189057826996,0.10445795953273773,-0.40194934606552124
1732873398655187200,9.613187255859375,-0.09712757170200348,-0.17592918872833252,-0.8197811841964722
1732873398665218800,9.62321875,-0.05864306539297104,-0.33536502718925476,-1.0580185651779175
1732873398675206700,9.63320654296875,-0.059864792972803116,-0.4508185386657715,-1.2119566202163696
1732873398685207800,9.643207763671874,-0.08552113175392151,-0.5076290369033813,-1.2760975360870361
1732873398695196400,9.653196533203126,-0.10873401165008545,-0.5320636034011841,-1.2681562900543213
1732873398705228300,9.663228271484375,-0.15393804013729095,-0.5271766781806946,-1.1759155988693237
1732873398715185400,9.673185302734375,-0.24129177629947662,-0.5125159621238708,-0.9993755221366882
1732873398725217300,9.68321728515625,-0.4092797040939331,-0.5064072608947754,-0.645684540271759
1732873398735205000,9.693205078125,-0.513126790523529,-0.4709770977497101,-0.4239404797554016
1732873398745206500,9.70320654296875,-0.5852088928222656,-0.4184426963329315,-0.2376265823841095
1732873398755194000,9.713194091796876,-0.6310238242149353,-0.3384193480014801,-0.09040805697441101
1732873398765226000,9.72322607421875,-0.6682865619659424,-0.24007004499435425,0.018936822190880775
1732873398775183000,9.73318310546875,-0.7024950385093689,-0.1459967941045761,0.11911872029304504
1732873398785215000,9.743215087890626,-0.7226535677909851,-0.06169738993048668,0.2174680233001709
1732873398795202600,9.75320263671875,-0.7195992469787598,-0.005497787147760391,0.3127630054950714
1732873398805203700,9.76320361328125,-0.6829473376274109,0.05253441259264946,0.34574973583221436
1732873398815191600,9.773191650390626,-0.655458390712738,0.08246681094169617,0.3536909818649292
1732873398825222100,9.78322216796875,-0.6334672570228577,0.1014036312699318,0.3341432809829712
1732873398835180500,9.7931806640625,-0.6053674817085266,0.09162978827953339,0.2987131178379059
1732873398845211100,9.803211181640625,-0.5791002511978149,0.08552113175392151,0.242513507604599
1732873398855200300,9.8132001953125,-0.5656611919403076,0.059864792972803116,0.17287486791610718
1732873398865201400,9.823201416015625,-0.5674937963485718,0.015882495790719986,0.10384709388017654
1732873398875189500,9.833189453125,-0.5742133259773254,-0.07941248267889023,-0.016493361443281174
1732873398885221000,9.84322119140625,-0.5943718552589417,-0.1459967941045761,-0.0861319974064827
1732873398895178200,9.85317822265625,-0.6432411074638367,-0.19608774781227112,-0.1264491081237793
1732873398905210000,9.863210205078126,-0.6994407176971436,-0.23273965716362,-0.1313360333442688
1732873398915197700,9.87319775390625,-0.7428121566772461,-0.24068090319633484,-0.09896016865968704
1732873398925229800,9.883229736328126,-0.7654141783714294,-0.2217440903186798,-0.030543262138962746
1732873398935186700,9.893186767578126,-0.7764097452163696,-0.1667662113904953,0.06841690838336945
1732873398945247200,9.903247314453125,-0.788627028465271,-0.07208210229873657,0.22663100063800812
1732873398955206400,9.913206298828126,-0.759305477142334,-0.02321287989616394,0.30115658044815063
1732873398965207600,9.92320751953125,-0.7067710757255554,0.015882495790719986,0.33658674359321594
1732873398975195400,9.9331953125,-0.636521577835083,0.04886921867728233,0.32681289315223694
1732873398985225700,9.943225830078125,-0.5369505286216736,0.05864306539297104,0.2577851414680481
1732873398995184600,9.9531845703125,-0.4306600093841553,0.031154127791523933,0.14355333149433136
1732873399005216300,9.96321630859375,-0.35124751925468445,-0.03726277872920036,-0.009162978269159794
1732873399015203800,9.973203857421876,-0.29138273000717163,-0.20341812074184418,-0.27122417092323303
1732873399025205200,9.983205322265626,-0.23884831368923187,-0.303600013256073,-0.39584067463874817
1732873399035192800,9.99319287109375,-0.23884831368923187,-0.3500257730484009,-0.42638394236564636
1732873399045224700,10.003224609375,-0.2632829248905182,-0.3176499307155609,-0.35674530267715454
1732873399055181800,10.013181884765626,-0.3182607889175415,-0.2125810980796814,-0.21441370248794556
1732873399065214000,10.0232138671875,-0.3897320330142975,-0.05253441259264946,-0.04153883829712868
1732873399075201500,10.033201416015626,-0.44837507605552673,0.09040805697441101,0.11056660860776901
1732873399085202700,10.04320263671875,-0.46731191873550415,0.17104226350784302,0.2021963894367218
1732873399095190500,10.0531904296875,-0.38606682419776917,0.1459967941045761,0.21441370248794556
1732873399105221600,10.0632216796875,-0.2822197377681732,0.07880161702632904,0.14477506279945374
1732873399115179300,10.07317919921875,-0.16065755486488342,0.0006108652451075613,0.029932396486401558
1732873399125210600,10.083210693359375,-0.05497787147760391,-0.06902777403593063,-0.10018189996480942
1732873399135199200,10.09319921875,0.00855211354792118,-0.10506882518529892,-0.2064724564552307
1732873399145198600,10.103198486328125,0.018325956538319588,-0.10873401165008545,-0.2626720666885376
1732873399155188000,10.11318798828125,-0.021380282938480377,-0.07880161702632904,-0.2834414839744568
1732873399165219600,10.123219482421876,-0.11911872029304504,-0.006108652334660292,-0.28527405858039856
1732873399175207700,10.133207763671875,-0.17531833052635193,0.042760565876960754,-0.2785545587539673
1732873399185208600,10.14320849609375,-0.20952677726745605,0.04642575979232788,-0.25473082065582275
1732873399195196700,10.15319677734375,-0.1973094791173935,0.036651913076639175,-0.20891591906547546
1732873399205228300,10.163228271484375,-0.17470745742321014,0.00855211354792118,-0.13866640627384186
1732873399215185400,10.173185302734375,-0.15760323405265808,-0.04214970022439957,-0.06475171446800232
1732873399225217500,10.183217529296876,-0.14844025671482086,-0.11301007121801376,-0.0012217304902151227
1732873399235205000,10.193205078125,-0.1313360333442688,-0.17531833052635193,0.07635815441608429
1732873399245206000,10.2032060546875,-0.09712757170200348,-0.16371189057826996,0.13377949595451355
1732873399255194000,10.213194091796876,-0.08246681094169617,-0.11423180252313614,0.2064724564552307
1732873399265225700,10.223225830078125,-0.06108652427792549,-0.021380282938480377,0.28527405858039856
1732873399275183000,10.23318310546875,-0.036651913076639175,0.10445795953273773,0.36713001132011414
1732873399285214700,10.243214599609376,-0.02626720629632473,0.22907446324825287,0.44837507605552673
1732873399295202600,10.25320263671875,-0.007941247895359993,0.32559117674827576,0.5088507533073425
1732873399305204000,10.263203857421875,0.02932153269648552,0.3830125033855438,0.5204572081565857
1732873399315191600,10.273191650390626,0.10201449692249298,0.3738495409488678,0.4447098970413208
1732873399325223200,10.28322314453125,0.13377949595451355,0.303600013256073,0.34636059403419495
1732873399335180500,10.2931806640625,0.15821409225463867,0.19058994948863983,0.2217440903186798
1732873399345212200,10.303212158203126,0.18509216606616974,0.07208210229873657,0.07635815441608429
1732873399355200300,10.3132001953125,0.2168571650981903,-0.009162978269159794,-0.03298672288656235
1732873399365201400,10.323201416015625,0.2376265823841095,-0.045204028487205505,-0.07208210229873657
1732873399375189200,10.333189208984376,0.24923302233219147,-0.033597588539123535,-0.06230825558304787
1732873399385221000,10.34322119140625,0.24678955972194672,0.02871066704392433,-0.015271631069481373
1732873399395178200,10.35317822265625,0.22052235901355743,0.07208210229873657,0.012217304669320583
1732873399405210000,10.363210205078126,0.192422553896904,0.10201449692249298,0.03237585723400116
1732873399415197700,10.37319775390625,0.17776179313659668,0.12034045159816742,0.04764748737215996
1732873399425229800,10.383229736328126,0.1918116807937622,0.13866640627384186,0.0806342139840126
1732873399435187000,10.39318701171875,0.21563543379306793,0.14782938361167908,0.15027284622192383
1732873399445218600,10.403218505859375,0.24007004499435425,0.13500121235847473,0.25473082065582275
1732873399455206400,10.413206298828126,0.2742784917354584,0.10018189996480942,0.3891211748123169
1732873399465207600,10.42320751953125,0.32986724376678467,0.06169738993048668,0.42577308416366577
1732873399475195400,10.4331953125,0.35613444447517395,0.04337143152952194,0.4239404797554016
1732873399485227300,10.443227294921876,0.3683517575263977,0.05314527451992035,0.39095374941825867
1732873399495184600,10.4531845703125,0.34697145223617554,0.07757988572120667,0.34208452701568604
1732873399505215000,10.463215087890624,0.29993483424186707,0.12889257073402405,0.26083946228027344
1732873399515204000,10.4732041015625,0.24373523890972137,0.20036379992961884,0.13927727937698364
1732873399525204500,10.48320458984375,0.19364428520202637,0.2541199326515198,-0.0012217304902151227
1732873399535193000,10.493193115234375,0.14844025671482086,0.26511552929878235,-0.2174680233001709
1732873399545224700,10.503224609375,0.11667526513338089,0.22540926933288574,-0.33108896017074585
1732873399555182000,10.51318212890625,0.07635815441608429,0.17959438264369965,-0.39217549562454224
1732873399565213700,10.523213623046875,0.05253441259264946,0.14049901068210602,-0.38179078698158264
1732873399575201800,10.533201904296876,0.04092797264456749,0.11423180252313614,-0.3017674386501312
1732873399585202700,10.54320263671875,0.03848451003432274,0.11423180252313614,-0.21013765037059784
1732873399595188700,10.553188720703124,0.031154127791523933,0.11056660860776901,-0.1466076523065567
1732873399605221000,10.56322119140625,-0.013439035043120384,0.11728613078594208,-0.1563815027475357
1732873399615178800,10.5731787109375,-0.04214970022439957,0.12522737681865692,-0.2382374405860901
1732873399625210000,10.583210205078124,-0.06841690838336945,0.10873401165008545,-0.3274237811565399
1732873399635198200,10.5931982421875,-0.0959058403968811,0.07757988572120667,-0.394008070230484
1732873399645199400,10.603199462890625,-0.1160643994808197,0.036041051149368286,-0.42577308416366577
1732873399655187200,10.613187255859375,-0.11972958594560623,-0.003054326167330146,-0.4300491213798523
1732873399665218800,10.62321875,-0.1270599663257599,-0.04886921867728233,-0.4086688458919525
1732873399675206700,10.63320654296875,-0.1313360333442688,-0.13072516024112701,-0.34697145223617554
1732873399685207800,10.643207763671874,-0.1313360333442688,-0.18387043476104736,-0.28649580478668213
1732873399695196400,10.653196533203126,-0.12339477986097336,-0.22357667982578278,-0.2070833146572113
1732873399705228000,10.66322802734375,-0.12339477986097336,-0.2431243658065796,-0.10567969083786011
1732873399715185400,10.673185302734375,-0.1411098688840866,-0.24373523890972137,0.01160643994808197
1732873399725217000,10.683217041015626,-0.16493362188339233,-0.22052235901355743,0.13072516024112701
1732873399735205000,10.693205078125,-0.18448130786418915,-0.18387043476104736,0.25106561183929443
1732873399745206300,10.703206298828125,-0.20097467303276062,-0.14233160018920898,0.38117989897727966
1732873399755194000,10.713194091796876,-0.2382374405860901,-0.05253441259264946,0.5693264007568359
1732873399765225700,10.723225830078125,-0.2638937830924988,0.006719517521560192,0.6646214127540588
1732873399775183400,10.733183349609375,-0.2871066629886627,0.0659734457731247,0.7250970602035522
1732873399785214700,10.743214599609376,-0.30970868468284607,0.10018189996480942,0.7483099102973938
1732873399795202600,10.75320263671875,-0.31459560990333557,0.09040805697441101,0.7367035150527954
1732873399805202400,10.763202392578124,-0.30482175946235657,0.022602014243602753,0.6878342628479004
1732873399815191600,10.773191650390626,-0.28588494658470154,-0.11239920556545258,0.5992587804794312
1732873399825222100,10.78322216796875,-0.2638937830924988,-0.3701843321323395,0.4105014503002167
1732873399835180800,10.793180908203125,-0.25961771607398987,-0.5180137157440186,0.2724458873271942
1732873399845211100,10.803211181640625,-0.25106561183929443,-0.6218608021736145,0.1569923609495163
1732873399855200300,10.8132001953125,-0.2382374405860901,-0.6743952035903931,0.07696902006864548
1732873399865199900,10.823199951171874,-0.21319197118282318,-0.6792821288108826,0.025656340643763542
1732873399875189200,10.833189208984376,-0.19058994948863983,-0.6499606370925903,0.00366519158706069
1732873399885220900,10.843220947265625,-0.17898350954055786,-0.5955936312675476,0.024434609338641167
1732873399895178200,10.85317822265625,-0.19058994948863983,-0.53328537940979,0.06475171446800232
1732873399905209900,10.8632099609375,-0.23579397797584534,-0.4147774875164032,0.1160643994808197
1732873399915198000,10.873197998046875,-0.2535090744495392,-0.32681289315223694,0.11545353382825851
1732873399925229600,10.8832294921875,-0.2669481039047241,-0.26083946228027344,0.07819075137376785
1732873399935186700,10.893186767578126,-0.2626720666885376,-0.2571742534637451,0.022602014243602753
1732873399945218600,10.903218505859375,-0.2620611786842346,-0.2926044464111328,-0.03787364438176155
1732873399955206400,10.913206298828126,-0.2675589919090271,-0.3494149148464203,-0.08307767659425735
1732873399965207300,10.923207275390626,-0.26450464129447937,-0.40072759985923767,-0.08307767659425735
1732873399975195400,10.9331953125,-0.2382374405860901,-0.42149701714515686,0.033597588539123535
1732873399985227000,10.94322705078125,-0.21563543379306793,-0.3695734739303589,0.1618792861700058
1732873399995184400,10.953184326171876,-0.2021963894367218,-0.2730567753314972,0.2919935882091522
1732873400005216300,10.96321630859375,-0.20952677726745605,-0.15332718193531036,0.40194934606552124
1732873400015203800,10.973203857421876,-0.22907446324825287,-0.03420845419168472,0.46670106053352356
1732873400025205200,10.983205322265626,-0.24617868661880493,0.07941248267889023,0.4789183437824249
1732873400035192800,10.99319287109375,-0.2474004179239273,0.17409659922122955,0.44654250144958496
1732873400045224700,11.003224609375,-0.2278527319431305,0.2474004179239273,0.3445279896259308
1732873400055182000,11.01318212890625,-0.192422553896904,0.2370157092809677,0.24434609711170197
1732873400065212200,11.023212158203124,-0.14966198801994324,0.18081611394882202,0.11423180252313614
1732873400075201500,11.033201416015626,-0.10873401165008545,0.10567969083786011,-0.03726277872920036
1732873400085202700,11.04320263671875,-0.06352998316287994,0.04214970022439957,-0.2028072625398636
1732873400095190800,11.053190673828125,-0.016493361443281174,0.0024434609804302454,-0.3481931984424591
1732873400105222000,11.063221923828126,0.021380282938480377,-0.02015855349600315,-0.4447098970413208
1732873400115179500,11.073179443359376,0.02687807008624077,-0.05253441259264946,-0.49846604466438293
1732873400125211100,11.083211181640625,-0.028099801391363144,-0.08735372871160507,-0.5192354321479797
1732873400135199000,11.093198974609376,-0.08124507963657379,-0.09162978827953339,-0.503963828086853
1732873400145200000,11.1032001953125,-0.1313360333442688,-0.08368854224681854,-0.4764748811721802
1732873400155188000,11.11318798828125,-0.1716531366109848,-0.06902777403593063,-0.4538728892803192
1732873400165219600,11.123219482421876,-0.1820378452539444,-0.05619960278272629,-0.4453207552433014
1732873400175207700,11.133207763671875,-0.14233160018920898,-0.054367005825042725,-0.4599815309047699
1732873400185208600,11.14320849609375,-0.06108652427792549,-0.10262536257505417,-0.48197266459465027
1732873400195196700,11.15319677734375,0.07147123664617538,-0.251676470041275,-0.4544837474822998
1732873400205228300,11.163228271484375,0.12095131725072861,-0.30543261766433716,-0.37140607833862305
1732873400215185400,11.173185302734375,0.11667526513338089,-0.3170390725135803,-0.21074850857257843
1732873400225216000,11.183216064453125,0.048258353024721146,-0.31642818450927734,0.019547687843441963
1732873400235205000,11.193205078125,-0.06536258012056351,-0.2791654169559479,0.26450464129447937
1732873400245205200,11.203205322265624,-0.20036379992961884,-0.20463985204696655,0.4813618063926697
1732873400255194000,11.213194091796876,-0.32131510972976685,-0.09162978827953339,0.6670648455619812
1732873400265224700,11.223224609375,-0.4960225820541382,0.12034045159816742,0.8747590184211731
1732873400275183000,11.23318310546875,-0.5876523852348328,0.2981022298336029,0.9584475755691528
1732873400285214500,11.24321435546875,-0.59803706407547,0.47280970215797424,0.9443976879119873
1732873400295202600,11.25320263671875,-0.494189977645874,0.5693264007568359,0.8539896011352539
1732873400305202700,11.26320263671875,-0.29016098380088806,0.5748242139816284,0.7128797173500061
1732873400315191600,11.273191650390626,-0.025656340643763542,0.48808133602142334,0.5271766781806946
1732873400325222100,11.28322216796875,0.22846360504627228,0.3072652220726013,0.31581732630729675
1732873400335180500,11.2931806640625,0.3878994286060333,0.06230825558304787,0.09957103431224823
1732873400345212400,11.30321240234375,0.4196644127368927,-0.2779437005519867,-0.15271630883216858
1732873400355200300,11.3132001953125,0.37629300355911255,-0.3995058834552765,-0.21013765037059784
1732873400365201200,11.323201171875,0.32986724376678467,-0.41233405470848083,-0.16554448008537292
1732873400375189200,11.333189208984376,0.28649580478668213,-0.33536502718925476,-0.0555887371301651
1732873400385221000,11.34322119140625,0.2535090744495392,-0.21074850857257843,0.07513642311096191
1732873400395178500,11.353178466796875,0.2535090744495392,-0.07452555745840073,0.19914206862449646
1732873400405210000,11.363210205078126,0.27000242471694946,0.03237585723400116,0.2877175211906433
1732873400415198000,11.373197998046875,0.29565876722335815,0.1417207419872284,0.33597588539123535
1732873400425229600,11.3832294921875,0.3066543638706207,0.1618792861700058,0.33108896017074585
1732873400435187000,11.39318701171875,0.3243694305419922,0.14416420459747314,0.29138273000717163
1732873400445218600,11.403218505859375,0.3384193480014801,0.1111774742603302,0.22846360504627228
1732873400455206400,11.413206298828126,0.34636059403419495,0.0757472887635231,0.16310101747512817
1732873400465207600,11.42320751953125,0.34758231043815613,0.045204028487205505,0.11178833991289139
1732873400475195400,11.4331953125,0.3384193480014801,0.036651913076639175,0.08246681094169617
1732873400485227300,11.443227294921876,0.3439171314239502,0.10384709388017654,0.09285151958465576
1732873400495184600,11.4531845703125,0.36651915311813354,0.16310101747512817,0.14782938361167908
1732873400505216300,11.46321630859375,0.3878994286060333,0.21380282938480377,0.21624629199504852
1732873400515204000,11.4732041015625,0.403781920671463,0.22846360504627228,0.27550023794174194
1732873400525205200,11.483205322265626,0.42149701714515686,0.21135938167572021,0.3090978264808655
1732873400535192800,11.49319287109375,0.4349360466003418,0.17348572611808777,0.31459560990333557
1732873400545225000,11.503224853515626,0.44593164324760437,0.12767083942890167,0.2968805134296417
1732873400555182000,11.51318212890625,0.46181413531303406,0.0861319974064827,0.24984388053417206
1732873400565214000,11.5232138671875,0.4990769028663635,0.04459316283464432,0.10751228034496307
1732873400575201500,11.533201416015626,0.5198463201522827,0.02626720629632473,-0.02932153269648552
1732873400585202700,11.54320263671875,0.5400048494338989,0.0006108652451075613,-0.18509216606616974
1732873400595188700,11.553188720703124,0.5546656250953674,-0.030543262138962746,-0.33047810196876526
1732873400605221400,11.563221435546875,0.5528330206871033,-0.07819075137376785,-0.4404338300228119
1732873400615178800,11.5731787109375,0.5247332453727722,-0.13439035415649414,-0.4966334402561188
1732873400625210400,11.58321044921875,0.45814892649650574,-0.1771509200334549,-0.4954117238521576
1732873400635198200,11.5931982421875,0.3066543638706207,-0.16737708449363708,-0.40194934606552124
1732873400645199400,11.603199462890625,0.2064724564552307,-0.09896016865968704,-0.3139847218990326
1732873400655187200,11.613187255859375,0.12950342893600464,0.02076941914856434,-0.23579397797584534
1732873400665218800,11.62321875,0.07452555745840073,0.18387043476104736,-0.18936823308467865
1732873400675206700,11.63320654296875,0.04214970022439957,0.3683517575263977,-0.19364428520202637
1732873400685208300,11.643208251953125,0.02626720629632473,0.5253441333770752,-0.2571742534637451
1732873400695196700,11.65319677734375,0.02626720629632473,0.6188064813613892,-0.3689626157283783
1732873400705227000,11.66322705078125,0.036651913076639175,0.5968153476715088,-0.5656611919403076
1732873400715185400,11.673185302734375,0.056810468435287476,0.4715879559516907,-0.6420193910598755
1732873400725216000,11.683216064453125,0.08002334833145142,0.28955012559890747,-0.6243042945861816
1732873400735205000,11.693205078125,0.10018189996480942,0.08979719132184982,-0.4917465150356293
1732873400745206000,11.7032060546875,0.10262536257505417,-0.0910189226269722,-0.25595253705978394
1732873400755194000,11.713194091796876,0.08246681094169617,-0.17592918872833252,0.036041051149368286
1732873400765225700,11.723225830078125,0.07513642311096191,-0.16065755486488342,0.32498031854629517
1732873400775183000,11.73318310546875,0.08002334833145142,-0.0806342139840126,0.5656611919403076
1732873400785214200,11.743214111328125,0.10323622822761536,0.05497787147760391,0.788016140460968
1732873400795202600,11.75320263671875,0.13927727937698364,0.10506882518529892,0.8295549750328064
1732873400805203200,11.763203125,0.182648703455925,0.11911872029304504,0.8161159753799438
1732873400815191600,11.773191650390626,0.2174680233001709,0.10018189996480942,0.7739662528038025
1732873400825223200,11.78322314453125,0.23090706765651703,0.07024950534105301,0.7232644557952881
1732873400835180500,11.7931806640625,0.22479841113090515,0.027488935738801956,0.6646214127540588
1732873400845212400,11.80321240234375,0.20341812074184418,-0.030543262138962746,0.607810914516449
1732873400855200300,11.8132001953125,0.1569923609495163,-0.13072516024112701,0.5100724697113037
1732873400865201400,11.823201416015625,0.11423180252313614,-0.18936823308467865,0.44226643443107605
1732873400875189500,11.833189453125,0.06291911751031876,-0.22602014243602753,0.38240164518356323
1732873400885220900,11.843220947265625,0.015271631069481373,-0.2382374405860901,0.3433062732219696
1732873400895178500,11.853178466796875,-0.025045474991202354,-0.22846360504627228,0.33047810196876526
1732873400905209900,11.8632099609375,-0.059864792972803116,-0.21441370248794556,0.3280346393585205
1732873400915198000,11.873197998046875,-0.09773843735456467,-0.19486601650714874,0.32559117674827576
1732873400925229600,11.8832294921875,-0.1716531366109848,-0.1667662113904953,0.2877175211906433
1732873400935186700,11.893186767578126,-0.23640485107898712,-0.16554448008537292,0.25473082065582275
1732873400945245200,11.9032451171875,-0.30970868468284607,-0.17898350954055786,0.24190263450145721
1732873400955206400,11.913206298828126,-0.3701843321323395,-0.19853121042251587,0.24678955972194672
1732873400965207600,11.92320751953125,-0.41661009192466736,-0.20952677726745605,0.2577851414680481
1732873400975195400,11.9331953125,-0.455705463886261,-0.22296582162380219,0.2785545587539673
1732873400985225700,11.943225830078125,-0.4746423065662384,-0.21563543379306793,0.31031954288482666
1732873400995184600,11.9531845703125,-0.45875978469848633,-0.20097467303276062,0.33597588539123535
1732873401005215000,11.963215087890624,-0.37262779474258423,-0.2021963894367218,0.3549126982688904
1732873401015203800,11.973203857421876,-0.3396410644054413,-0.20891591906547546,0.36713001132011414
1732873401025204000,11.983203857421875,-0.323147714138031,-0.2125810980796814,0.36102136969566345
1732873401035192800,11.99319287109375,-0.3219259977340698,-0.20586158335208893,0.3335324227809906
1732873401045224700,12.003224609375,-0.3390302062034607,-0.20952677726745605,0.29077184200286865
1732873401055182000,12.01318212890625,-0.36224308609962463,-0.23151792585849762,0.24556782841682434
1732873401065213700,12.023213623046875,-0.38179078698158264,-0.252287358045578,0.20402899384498596
1732873401075201500,12.033201416015626,-0.38667771220207214,-0.22602014243602753,0.15760323405265808
1732873401085202700,12.04320263671875,-0.3744603991508484,-0.16554448008537292,0.12522737681865692
1732873401095190500,12.0531904296875,-0.36163222789764404,-0.06719517707824707,0.08491026610136032
1732873401105222100,12.06322216796875,-0.35246923565864563,0.059864792972803116,0.039095375686883926
1732873401115179300,12.07317919921875,-0.34758231043815613,0.1814269721508026,-0.01038470957428217
1732873401125211400,12.08321142578125,-0.3738495409488678,0.28038713335990906,-0.07635815441608429
1732873401135199200,12.09319921875,-0.4092797040939331,0.34636059403419495,-0.16859880089759827
1732873401145199000,12.10319921875,-0.3878994286060333,0.45326200127601624,-0.3830125033855438
1732873401155188000,12.11318798828125,-0.29993483424186707,0.4404338300228119,-0.5681046843528748
1732873401165218300,12.12321826171875,-0.15821409225463867,0.3237585723400116,-0.7678576111793518
1732873401175207700,12.133207763671875,0.010995574295520782,0.16371189057826996,-0.93095862865448
1732873401185208600,12.14320849609375,0.1508837193250656,-0.015882495790719986,-1.0005972385406494
1732873401195196700,12.15319677734375,0.2321287989616394,-0.1667662113904953,-0.969443142414093
1732873401205228300,12.163228271484375,0.25045475363731384,-0.27122417092323303,-0.8313875794410706
1732873401215185400,12.173185302734375,0.21319197118282318,-0.3194825351238251,-0.6108652353286743
1732873401225217000,12.183217041015626,0.12400564551353455,-0.3066543638706207,-0.23945917189121246
1732873401235205000,12.193205078125,0.09468411654233932,-0.2565633952617645,-0.06169738993048668
1732873401245205800,12.203205810546875,0.11850785464048386,-0.18570303916931152,-0.00427605677396059
1732873401255194000,12.213194091796876,0.19120082259178162,-0.1411098688840866,-0.051312681287527084
1732873401265225500,12.2232255859375,0.2834414839744568,-0.14844025671482086,-0.18570303916931152
1732873401275183000,12.23318310546875,0.36590829491615295,-0.21563543379306793,-0.37079519033432007
1732873401285213700,12.243213623046875,0.4147774875164032,-0.33597588539123535,-0.5791002511978149
1732873401295202800,12.253202880859375,0.39767327904701233,-0.5302310585975647,-0.8478809595108032
1732873401305202700,12.26320263671875,0.35246923565864563,-0.6065891981124878,-0.9425650835037231
1732873401315191600,12.273191650390626,0.29077184200286865,-0.6524040699005127,-0.940121591091156
1732873401325223200,12.28322314453125,0.21868975460529327,-0.646906316280365,-0.8613200187683105
1732873401335180800,12.293180908203125,0.15821409225463867,-0.5809328556060791,-0.7250970602035522
1732873401345212200,12.303212158203126,0.11178833991289139,-0.4862487316131592,-0.5400048494338989
1732873401355200300,12.3132001953125,0.06963863968849182,-0.384845107793808,-0.34758231043815613
1732873401365201200,12.323201171875,-0.02321287989616394,-0.2480112910270691,-0.11362093687057495
1732873401375189200,12.333189208984376,-0.04581489413976669,-0.16982053220272064,-0.012828170321881771
1732873401385220400,12.343220458984375,-0.030543262138962746,-0.10201449692249298,0.031154127791523933
1732873401395178500,12.353178466796875,0.02015855349600315,-0.04214970022439957,0.01710422709584236
1732873401405209300,12.363209228515625,0.10384709388017654,-0.03237585723400116,-0.06414084881544113
1732873401415198000,12.373197998046875,0.18570303916931152,-0.0959058403968811,-0.20586158335208893
1732873401425229600,12.3832294921875,0.22968533635139465,-0.1667662113904953,-0.3634648323059082
1732873401435186700,12.393186767578126,0.23335053026676178,-0.21319197118282318,-0.46242499351501465
1732873401445218600,12.403218505859375,0.20830504596233368,-0.2125810980796814,-0.42577308416366577
1732873401455206400,12.413206298828126,0.1722639948129654,-0.1362229436635971,-0.28588494658470154
1732873401465207600,12.42320751953125,0.13439035415649414,-0.022602014243602753,-0.07330382615327835
1732873401475195600,12.433195556640625,0.11789698898792267,0.10201449692249298,0.16432274878025055
1732873401485227000,12.44322705078125,0.13500121235847473,0.20463985204696655,0.37079519033432007
1732873401495184600,12.4531845703125,0.17043140530586243,0.26022860407829285,0.5002986192703247
1732873401505216000,12.463216064453125,0.21074850857257843,0.24495697021484375,0.5302310585975647
1732873401515204000,12.4732041015625,0.24923302233219147,0.07147123664617538,0.42638394236564636
1732873401525205200,12.483205322265626,0.2382374405860901,-0.09285151958465576,0.2932153046131134
