time,seconds_elapsed,z,y,x
1732873389275524900,0.23352490234375,10.072406768798828,1.2234370708465576,-0.1388636976480484
1732873389285504300,0.243504150390625,9.971850395202637,1.3024457693099976,-0.12449848651885986
1732873389295513900,0.253513916015625,9.804255485534668,1.3742717504501343,-0.2059013396501541
1732873389305493200,0.2634931640625,9.622296333312988,1.400607943534851,-0.35673606395721436
1732873389315503000,0.273503173828125,9.591172218322754,1.455674648284912,-0.4405331015586853
1732873389325512700,0.2835126953125,9.605537414550781,1.4628572463989258,-0.4405331015586853
1732873389335491800,0.293491943359375,9.519346237182617,1.4413094520568848,-0.3926490843296051
1732873389345501700,0.303501708984375,9.452308654785156,1.4221558570861816,-0.3519476354122162
1732873389355511300,0.31351123046875,9.44752025604248,1.4173674583435059,-0.31603461503982544
1732873389365490700,0.32349072265625,9.452308654785156,1.3886369466781616,-0.28969839215278625
1732873389375500500,0.33350048828125,9.502586364746094,1.359906554222107,-0.31364041566848755
1732873389385510100,0.34351025390625,9.651026725769043,1.381454348564148,-0.2968810200691223
1732873389395489500,0.353489501953125,9.715670585632324,1.3120225667953491,-0.2537853717803955
1732873389405499400,0.36349951171875,9.84256362915039,1.256955862045288,-0.14365209639072418
1732873389415509000,0.373509033203125,9.93593692779541,1.1994950771331787,-0.05027823522686958
1732873389425518800,0.383518798828125,9.974244117736816,1.1635819673538208,-0.043095629662275314
1732873389435498000,0.393498046875,9.926360130310059,1.1851298809051514,-0.10773907601833344
1732873389445507600,0.403507568359375,9.854534149169922,1.2210428714752197,-0.22744916379451752
1732873389455517400,0.413517333984375,9.907206535339355,1.2521674633026123,-0.3208230137825012
1732873389465496800,0.423496826171875,9.964667320251465,1.3000515699386597,-0.42616790533065796
1732873389475506400,0.43350634765625,10.000580787658691,1.3024457693099976,-0.4118026793003082
1732873389485516300,0.443516357421875,10.017339706420898,1.2761094570159912,-0.31364041566848755
1732873389495495700,0.45349560546875,9.986215591430664,1.2617442607879639,-0.17717093229293823
1732873389505505500,0.463505615234375,9.832986831665039,1.2210428714752197,-0.11252748221158981
1732873389515515100,0.47351513671875,9.605537414550781,1.2689268589019775,-0.15562310814857483
1732873389525494300,0.483494384765625,9.48343276977539,1.316810965538025,-0.22505496442317963
1732873389535504100,0.493504150390625,9.457097053527832,1.2952631711959839,-0.22744916379451752
1732873389545513700,0.503513671875,9.476250648498535,1.259350061416626,-0.2849099934101105
1732873389555493000,0.5134931640625,9.646238327026367,1.2425906658172607,-0.33997663855552673
1732873389565503000,0.5235029296875,9.818621635437012,1.192312479019165,-0.2825157940387726
1732873389575512600,0.5335126953125,9.876082420349121,1.1755530834197998,-0.24899697303771973
1732873389585492000,0.543491943359375,9.940725326538086,1.1755530834197998,-0.2753331959247589
1732873389595501800,0.553501708984375,9.955090522766113,1.2425906658172607,-0.31842881441116333
1732873389605511400,0.563511474609375,9.888052940368652,1.3000515699386597,-0.3447650372982025
1732873389615490600,0.573490478515625,9.804255485534668,1.316810965538025,-0.42856210470199585
1732873389625500400,0.58350048828125,9.768342971801758,1.3431471586227417,-0.5027823448181152
1732873389635510300,0.59351025390625,9.801861763000488,1.2856862545013428,-0.35913026332855225
1732873389645489400,0.603489501953125,9.818621635437012,1.1971008777618408,-0.1867477297782898
1732873389655499300,0.613499267578125,9.801861763000488,1.158793568611145,-0.14604631066322327
1732873389665509000,0.623509033203125,9.864110946655273,1.1683704853057861,-0.17477671802043915
1732873389675518700,0.633518798828125,9.816226959228516,1.137245774269104,-0.2322375625371933
1732873389685498000,0.643498046875,9.674968719482422,1.0989385843276978,-0.24181437492370605
1732873389695508000,0.653508056640625,9.583989143371582,1.0845733880996704,-0.26096799969673157
1732873389705517600,0.663517578125,9.670180320739746,1.072602391242981,-0.1867477297782898
1732873389715497000,0.6734970703125,9.710882186889648,1.0534487962722778,-0.08379705995321274
1732873389725506600,0.683506591796875,9.6989107131958,1.072602391242981,-0.011971008032560349
1732873389735516400,0.693516357421875,9.68933391571045,1.1324573755264282,-0.023942016065120697
1732873389745495600,0.70349560546875,9.622296333312988,1.1683704853057861,-0.040701430290937424
1732873389755505400,0.71350537109375,9.727641105651855,1.1971008777618408,0.0071826050989329815
1732873389765515000,0.723514892578125,9.821015357971191,1.237802267074585,0.05027823522686958
1732873389775494400,0.733494384765625,9.84495735168457,1.192312479019165,-0.031124621629714966
1732873389785504300,0.743504150390625,9.947908401489258,1.1635819673538208,-0.12928688526153564
1732873389795513900,0.753513916015625,10.0580415725708,1.1348515748977661,-0.33279404044151306
1732873389805493200,0.7634931640625,10.189722061157227,1.1061211824417114,-0.4213795065879822
1732873389815503000,0.773503173828125,10.362105369567871,1.0821791887283325,-0.3064578175544739
1732873389825512700,0.7835126953125,10.38844108581543,1.1085153818130493,-0.12210428714752197
1732873389835491800,0.793491943359375,10.182539939880371,1.139639973640442,-0.009576806798577309
1732873389845501700,0.803501708984375,10.02452278137207,1.1851298809051514,0.021547814831137657
1732873389855511300,0.81351123046875,9.909601211547852,1.2090718746185303,0.06224924325942993
1732873389865490700,0.82349072265625,9.734824180603027,1.1540051698684692,0.09576806426048279
1732873389875500500,0.83350048828125,9.59596061706543,1.05105459690094,0.038307227194309235
1732873389885510400,0.843510498046875,9.639056205749512,1.0558429956436157,-0.1412578970193863
1732873389895489500,0.853489501953125,9.919178009033203,1.1180921792984009,-0.2777273952960968
1732873389905499400,0.86349951171875,10.072406768798828,1.1899182796478271,-0.22026655077934265
1732873389915509000,0.873509033203125,9.998186111450195,1.3120225667953491,-0.12449848651885986
1732873389925518800,0.883518798828125,9.837775230407715,1.4221558570861816,0.004788403399288654
1732873389935498000,0.893498046875,9.658209800720215,1.50355863571167,0.2322375625371933
1732873389945507800,0.9035078125,9.50498104095459,1.53707754611969,0.43095630407333374
1732873389955517400,0.913517333984375,9.342175483703613,1.525106430053711,0.6775590777397156
1732873389965496800,0.923496826171875,9.107542991638184,1.4197616577148438,0.8906430602073669
1732873389975506700,0.933506591796875,8.992621421813965,1.2976573705673218,1.1228805780410767
1732873389985516300,0.943516357421875,9.040505409240723,1.0797849893569946,1.3934253454208374
1732873389995049500,0.953049560546875,9.26795482635498,0.871489405632019,1.3934253454208374
1732873390005059300,0.963059326171875,9.617507934570312,0.6751648783683777,1.4173674583435059
1732873390015069000,0.97306884765625,10.110713958740234,0.5386953949928284,1.1803414821624756
1732873390025048300,0.98304833984375,10.56800651550293,0.4884171485900879,1.1180921792984009
1732873390035058200,0.99305810546875,10.934319496154785,0.4836287498474121,1.1300631761550903
1732873390045067800,1.00306787109375,10.953473091125488,0.6033388376235962,1.1420341730117798
1732873390055047200,1.013047119140625,10.632649421691895,0.7565677165985107,1.158793568611145
1732873390065057000,1.02305712890625,10.20648193359375,0.912190854549408,1.1085153818130493
1732873390075066600,1.033066650390625,9.873687744140625,1.1348515748977661,1.0127472877502441
1732873390085045800,1.043045654296875,9.430760383605957,1.2737152576446533,0.8762778043746948
1732873390095055600,1.0530556640625,9.260771751403809,1.3886369466781616,0.730231523513794
1732873390105065200,1.063065185546875,9.363722801208496,1.434126853942871,0.6584054827690125
1732873390115044600,1.073044677734375,9.658209800720215,1.3958195447921753,0.6823474764823914
1732873390125054500,1.083054443359375,9.928754806518555,1.316810965538025,0.7158663272857666
1732873390135064000,1.09306396484375,10.216058731079102,1.278503656387329,0.7565677165985107
1732873390145043500,1.10304345703125,10.350133895874023,1.2449848651885986,0.8188169598579407
1732873390155053300,1.11305322265625,10.287884712219238,1.2880805730819702,0.8188169598579407
1732873390165063000,1.12306298828125,10.187328338623047,1.3000515699386597,0.629675030708313
1732873390175072800,1.13307275390625,10.156203269958496,1.3742717504501343,0.4620809257030487
1732873390185052000,1.143052001953125,10.089165687561035,1.4293384552001953,0.2106897532939911
1732873390195061500,1.1530615234375,10.019734382629395,1.4460978507995605,0.0071826050989329815
1732873390205071400,1.1630712890625,10.098742485046387,1.5466543436050415,-0.1173158809542656
1732873390215050800,1.17305078125,9.904812812805176,1.5849615335464478,-0.21787235140800476
1732873390225060600,1.183060546875,9.615114212036133,1.656787633895874,-0.3471592366695404
1732873390235070200,1.1930703125,9.354146003723145,1.7286136150360107,-0.40940847992897034
1732873390245049600,1.203049560546875,9.349357604980469,1.7693150043487549,-0.38546648621559143
1732873390255059500,1.2130595703125,9.459490776062012,1.7118542194366455,-0.28730419278144836
1732873390265069000,1.223069091796875,9.591172218322754,1.6950948238372803,-0.17956513166427612
1732873390275048200,1.233048095703125,9.66299819946289,1.6663644313812256,-0.033518824726343155
1732873390285058000,1.24305810546875,9.567230224609375,1.6424223184585571,0.11013327538967133
1732873390295067600,1.253067626953125,9.394847869873047,1.6711528301239014,0.2825157940387726
1732873390305047000,1.263047119140625,9.198522567749023,1.7286136150360107,0.2944868206977844
1732873390315057000,1.273056884765625,9.02135181427002,1.8291701078414917,0.014365210197865963
1732873390325066500,1.28306640625,9.047688484191895,1.9153614044189453,-0.3016694188117981
1732873390335046000,1.2930458984375,9.339780807495117,1.941697597503662,-0.3758896589279175
1732873390345055700,1.3030556640625,9.691728591918945,1.8100165128707886,0.038307227194309235
1732873390355065300,1.3130654296875,10.041281700134277,1.5298948287963867,0.6105214357376099
1732873390365044700,1.323044677734375,10.153809547424316,1.192312479019165,1.235408067703247
1732873390375054300,1.333054443359375,10.043676376342773,0.9552865028381348,1.656787633895874
1732873390385064000,1.34306396484375,9.710882186889648,0.7398083209991455,1.9345149993896484
1732873390395043300,1.353043212890625,9.423578262329102,0.5722141861915588,1.9632453918457031
1732873390405053200,1.36305322265625,9.282320022583008,0.5195417404174805,1.6735470294952393
1732873390415062800,1.373062744140625,9.583989143371582,0.646434485912323,1.1444283723831177
1732873390425072600,1.38307275390625,10.089165687561035,0.8475474119186401,0.608127236366272
1732873390435052000,1.393052001953125,10.611102104187012,1.0869675874710083,0.40462008118629456
1732873390445061600,1.4030615234375,10.862493515014648,1.3623007535934448,0.2849099934101105
1732873390455071500,1.413071533203125,10.702081680297852,1.5825673341751099,0.42377370595932007
1732873390465050600,1.423050537109375,10.08198356628418,1.800439715385437,0.5841852426528931
1732873390475060500,1.433060546875,9.246406555175781,2.1140801906585693,0.7374141216278076
1732873390485070300,1.4430703125,8.60236644744873,2.2697031497955322,0.9911994934082031
1732873390495049500,1.453049560546875,7.9846625328063965,2.142810583114624,1.3072341680526733
1732873390505059300,1.463059326171875,7.745242595672607,1.8602946996688843,1.4724340438842773
1732873390515069000,1.47306884765625,7.977479934692383,1.37906014919281,1.3982137441635132
1732873390525048300,1.48304833984375,9.057265281677246,0.9672574996948242,1.170764684677124
1732873390535058200,1.49305810546875,10.769119262695312,0.689530074596405,0.6344634294509888
1732873390545067800,1.50306787109375,12.27267837524414,0.9217676520347595,-0.033518824726343155
1732873390555047200,1.513047119140625,13.539210319519043,1.4460978507995605,-0.7996633648872375
1732873390565057000,1.52305712890625,13.939042091369629,1.9321208000183105,-1.4077905416488647
1732873390575066600,1.533066650390625,13.206416130065918,2.2433669567108154,-1.6304513216018677
1732873390585045800,1.543045654296875,11.652579307556152,2.2625205516815186,-1.5394717454910278
1732873390595055600,1.5530556640625,10.376470565795898,2.118868589401245,-1.0079588890075684
1732873390605065200,1.563065185546875,9.318233489990234,1.8962076902389526,0.16519992053508759
1732873390615044600,1.573044677734375,8.865729331970215,1.6424223184585571,1.1683704853057861
1732873390625054500,1.583054443359375,8.827422142028809,1.3646949529647827,1.802833914756775
1732873390635064300,1.593064208984375,9.29189682006836,1.161187767982483,2.070984363555908
1732873390645043500,1.60304345703125,9.890447616577148,0.9816226959228516,1.8770540952682495
1732873390655053300,1.61305322265625,10.079588890075684,1.0247182846069336,1.2976573705673218
1732873390665063200,1.623063232421875,9.986215591430664,1.3958195447921753,0.47405192255973816
1732873390675072800,1.63307275390625,9.701305389404297,1.843535304069519,-0.6488286852836609
1732873390685052000,1.643052001953125,9.390059471130371,2.52109432220459,-1.5466543436050415
1732873390695061800,1.653061767578125,8.942343711853027,3.0190882682800293,-2.2146365642547607
1732873390705071400,1.6630712890625,8.734047889709473,3.160346269607544,-2.3774423599243164
1732873390715050800,1.67305078125,8.93037223815918,2.920926094055176,-2.0614075660705566
1732873390725060400,1.683060302734375,9.284713745117188,2.5067291259765625,-1.6136919260025024
1732873390735070200,1.6930703125,9.986215591430664,2.2361843585968018,-1.3431471586227417
1732873390745049600,1.703049560546875,10.766724586486816,2.185906171798706,-1.2114660739898682
1732873390755059500,1.7130595703125,11.461043357849121,2.1571757793426514,-1.2689268589019775
1732873390765069000,1.723069091796875,11.745953559875488,2.2146365642547607,-1.6376339197158813
1732873390775048200,1.733048095703125,11.405977249145508,2.427720546722412,-2.3511061668395996
1732873390785058000,1.74305810546875,10.500968933105469,2.7461493015289307,-3.1076738834381104
1732873390795067600,1.753067626953125,9.464279174804688,3.1196448802948,-3.5218706130981445
1732873390805047000,1.763047119140625,8.339004516601562,3.378218650817871,-3.44765043258667
1732873390815057000,1.773056884765625,7.534552574157715,3.426102638244629,-2.9544448852539062
1732873390825066500,1.78306640625,6.873753070831299,3.450044631958008,-2.2026655673980713
1732873390835046000,1.7930458984375,6.48828649520874,3.3901896476745605,-1.6855180263519287
1732873390845055700,1.8030556640625,6.320692539215088,3.272873640060425,-1.1755530834197998
1732873390855065300,1.8130654296875,6.337451934814453,3.157952070236206,-0.9409212470054626
1732873390865044500,1.82304443359375,6.5912370681762695,3.002328872680664,-0.9002198576927185
1732873390875054300,1.833054443359375,7.0341644287109375,2.8562827110290527,-0.9097966551780701
1732873390885064200,1.843064208984375,7.6566572189331055,2.693476915359497,-0.8571242094039917
1732873390895043300,1.853043212890625,8.178592681884766,2.5713725090026855,-0.8212111592292786
1732873390905053200,1.86305322265625,8.638279914855957,2.4803929328918457,-0.8379706144332886
1732873390915063000,1.87306298828125,9.062053680419922,2.4372973442077637,-0.7422025203704834
1732873390925072600,1.88307275390625,9.346963882446289,2.3032219409942627,-0.49559974670410156
1732873390935052000,1.893052001953125,9.651026725769043,2.1284453868865967,-0.004788403399288654
1732873390945062000,1.903061767578125,9.921571731567383,1.9728221893310547,0.40462008118629456
1732873390955071500,1.913071533203125,10.165780067443848,1.9153614044189453,0.689530074596405
1732873390965050600,1.923050537109375,10.292673110961914,1.9393033981323242,0.8379706144332886
1732873390975060500,1.933060546875,10.120290756225586,2.0614075660705566,0.5506663918495178
1732873390985070300,1.9430703125,10.070012092590332,2.315192937850952,0.3232172429561615
1732873390995049500,1.953049560546875,10.108319282531738,2.513911724090576,0.3687070608139038
1732873391005059300,1.963059326171875,9.888052940368652,2.609679937362671,0.3471592366695404
1732873391015069000,1.97306884765625,9.81143856048584,2.8107926845550537,0.16759411990642548
1732873391025048300,1.98304833984375,9.926360130310059,2.889801502227783,0.07422025501728058
1732873391035058200,1.99305810546875,10.144232749938965,2.8371291160583496,0.21787235140800476
1732873391045067800,2.00306787109375,10.402806282043457,2.674323320388794,0.524330198764801
1732873391055047200,2.013047119140625,10.486603736877441,2.492363929748535,0.8164227604866028
1732873391065057000,2.02305712890625,10.244789123535156,2.3271639347076416,1.0127472877502441
1732873391075066600,2.033066650390625,9.998186111450195,2.3271639347076416,0.9050082564353943
1732873391085045800,2.043045654296875,9.701305389404297,2.3942017555236816,0.7206547260284424
1732873391095055600,2.0530556640625,9.490615844726562,2.5330653190612793,0.5961562395095825
1732873391105065200,2.063065185546875,9.289502143859863,2.719813108444214,0.5099649429321289
1732873391115044600,2.073044677734375,9.064447402954102,2.851494312286377,0.22026655077934265
1732873391125054500,2.083054443359375,9.239224433898926,2.8874073028564453,0.18914192914962769
1732873391135064000,2.09306396484375,9.837775230407715,2.5498247146606445,0.4381389021873474
1732873391145043500,2.10304345703125,10.60152530670166,2.1068975925445557,0.7852981686592102
1732873391155053300,2.11305322265625,11.39161205291748,1.680729627609253,1.0031704902648926
1732873391165063000,2.12306298828125,11.999738693237305,1.4389152526855469,1.2114660739898682
1732873391175072800,2.13307275390625,12.722787857055664,1.3024457693099976,1.6496049165725708
1732873391185052000,2.143052001953125,13.00051498413086,1.278503656387329,1.7549498081207275
1732873391195061500,2.1530615234375,12.524068832397461,1.3838485479354858,1.3048399686813354
1732873391205071400,2.1630712890625,11.724405288696289,1.4724340438842773,0.5626373887062073
1732873391215050800,2.17305078125,10.706870079040527,1.3072341680526733,0.07900865375995636
1732873391225060600,2.183060546875,9.81143856048584,1.0127472877502441,0.3208230137825012
1732873391235070200,2.1930703125,8.995016098022461,0.6631938815116882,1.0845733880996704
1732873391245049600,2.203049560546875,8.135497093200684,0.26815059781074524,1.821987509727478
1732873391255059500,2.2130595703125,7.448361396789551,-0.07900865375995636,2.2816741466522217
1732873391265069000,2.223069091796875,7.2568254470825195,-0.21308395266532898,2.250549554824829
1732873391275048200,2.233048095703125,7.819462776184082,-0.11252748221158981,1.2497732639312744
1732873391285058000,2.24305810546875,8.846575736999512,0.1628057211637497,-0.608127236366272
1732873391295067600,2.253067626953125,9.981427192687988,0.5003881454467773,-2.2864625453948975
1732873391305047000,2.263047119140625,11.085153579711914,0.9481038451194763,-3.689464807510376
1732873391315057000,2.273056884765625,11.908759117126465,1.4221558570861816,-4.10366153717041
1732873391325066500,2.28306640625,12.356474876403809,1.9608511924743652,-3.397372245788574
1732873391335046000,2.2930458984375,11.975796699523926,2.434903144836426,-2.2577321529388428
1732873391345055700,2.3030556640625,11.164162635803223,2.9281086921691895,-1.647210717201233
1732873391355065300,2.3130654296875,10.160991668701172,3.3423056602478027,-1.6208745241165161
1732873391365044500,2.32304443359375,9.229647636413574,3.464409828186035,-1.7118542194366455
1732873391375054300,2.333054443359375,8.346187591552734,3.3638534545898438,-1.4389152526855469
1732873391385064200,2.343064208984375,7.948749542236328,3.141192674636841,-0.8595184087753296
1732873391395043300,2.353043212890625,7.934384346008301,2.7916390895843506,-0.016759412363171577
1732873391405053200,2.36305322265625,8.073247909545898,2.4851813316345215,0.7469909191131592
1732873391415062800,2.373062744140625,8.494627952575684,2.2577321529388428,1.2617442607879639
1732873391425072600,2.38307275390625,8.779537200927734,2.03507137298584,1.482010841369629
1732873391435052000,2.393052001953125,9.038111686706543,1.764526605606079,1.5514427423477173
1732873391445061600,2.4030615234375,9.222464561462402,1.5394717454910278,1.5179238319396973
1732873391455071500,2.413071533203125,9.394847869873047,1.3623007535934448,1.4197616577148438
1732873391465050600,2.423050537109375,9.406818389892578,1.1659762859344482,1.2976573705673218
1732873391475060500,2.433060546875,9.402029991149902,1.0989385843276978,0.9983820915222168
1732873391485070300,2.4430703125,9.332598686218262,1.2641384601593018,0.524330198764801
1732873391495049500,2.453049560546875,9.150638580322266,1.5059528350830078,0.004788403399288654
1732873391505059300,2.463059326171875,8.942343711853027,1.7836803197860718,-0.35434186458587646
1732873391515069000,2.47306884765625,8.757989883422852,1.98958158493042,-0.3734954595565796
1732873391525048300,2.48304833984375,8.489839553833008,2.123656988143921,-0.24181437492370605
1732873391535058200,2.49305810546875,8.429984092712402,2.121262788772583,0.12928688526153564
1732873391545067800,2.50306787109375,8.53532886505127,1.968033790588379,0.7445967197418213
1732873391555047200,2.513047119140625,8.746018409729004,1.7381904125213623,1.2449848651885986
1732873391565057000,2.52305712890625,9.07641887664795,1.599326729774475,1.4700398445129395
1732873391575066600,2.533066650390625,9.3828763961792,1.45806884765625,1.6735470294952393
1732873391585045800,2.543045654296875,9.57201862335205,1.3431471586227417,1.7741034030914307
1732873391595055600,2.5530556640625,9.746794700622559,1.2665326595306396,1.8507179021835327
1732873391605065200,2.563065185546875,9.888052940368652,1.2641384601593018,1.8842366933822632
1732873391615044600,2.573044677734375,10.247182846069336,1.3335703611373901,1.9321208000183105
1732873391625054500,2.583054443359375,10.714052200317383,1.4748282432556152,1.8387469053268433
1732873391635064000,2.59306396484375,11.149797439575195,1.7956513166427612,1.4460978507995605
1732873391645043500,2.60304345703125,11.389217376708984,2.0805611610412598,0.933738648891449
1732873391655053300,2.61305322265625,11.556811332702637,2.233790159225464,0.5123591423034668
1732873391665063000,2.62306298828125,11.580753326416016,2.10210919380188,0.31842881441116333
1732873391675072800,2.63307275390625,11.621455192565918,1.8507179021835327,0.3447650372982025
1732873391685052000,2.643052001953125,11.760318756103516,1.623268723487854,0.33518823981285095
1732873391695061800,2.653061767578125,11.654973983764648,1.5610195398330688,0.2322375625371933
1732873391705071400,2.6630712890625,11.094730377197266,1.5753847360610962,0.08619125932455063
1732873391715050800,2.67305078125,10.426748275756836,1.6903064250946045,0.038307227194309235
1732873391725060600,2.683060546875,9.773131370544434,1.8363527059555054,0.12689268589019775
1732873391735070200,2.6930703125,9.437943458557129,1.9536685943603516,0.1843535304069519
1732873391745049600,2.703049560546875,9.277531623840332,2.123656988143921,0
1732873391755059500,2.7130595703125,9.397241592407227,2.2146365642547607,-0.35434186458587646
1732873391765069000,2.723069091796875,9.799467086791992,2.1164743900299072,-0.7541735172271729
1732873391775048200,2.733048095703125,10.33098030090332,1.9752163887023926,-0.7972691655158997
1732873391785058000,2.74305810546875,10.656591415405273,1.7980455160140991,-0.7158663272857666
1732873391795067600,2.753067626953125,10.833763122558594,1.556231141090393,-0.3519476354122162
1732873391805047000,2.763047119140625,10.721235275268555,1.3431471586227417,-0.06224924325942993
1732873391815057000,2.773056884765625,10.371682167053223,1.3024457693099976,0.05985504388809204
1732873391825066500,2.78306640625,9.876082420349121,1.4724340438842773,-0.11252748221158981
1732873391835046000,2.7930458984375,9.17697525024414,1.8842366933822632,-0.586579442024231
1732873391845055700,2.8030556640625,8.372523307800293,2.3367409706115723,-1.278503656387329
1732873391855065300,2.8130654296875,7.374141216278076,2.8826189041137695,-2.10210919380188
1732873391865044500,2.82304443359375,6.677428722381592,3.3423056602478027,-2.6192567348480225
1732873391875054300,2.833054443359375,6.2416839599609375,3.667917013168335,-2.734178304672241
1732873391885064200,2.843064208984375,6.038176536560059,3.8067808151245117,-2.3487119674682617
1732873391895043300,2.853043212890625,6.303933143615723,3.646369218826294,-1.8171991109848022
1732873391905053200,2.86305322265625,7.445967197418213,3.157952070236206,-1.3024457693099976
1732873391915063000,2.87306298828125,8.60236644744873,2.7437551021575928,-1.0223240852355957
1732873391925072600,2.88307275390625,9.880870819091797,2.4612393379211426,-1.0103530883789062
1732873391935052000,2.893052001953125,10.81460952758789,2.252943754196167,-1.235408067703247
1732873391945061600,2.9030615234375,11.489773750305176,2.1811177730560303,-1.7310078144073486
1732873391955071500,2.913071533203125,11.863269805908203,2.298433542251587,-2.2385785579681396
1732873391965050600,2.923050537109375,11.973402976989746,2.4396915435791016,-2.715024709701538
1732873391975060500,2.933060546875,11.693281173706055,2.542642116546631,-2.8586769104003906
1732873391985070300,2.9430703125,11.14500904083252,2.655169725418091,-2.3295583724975586
1732873391995049500,2.953049560546875,10.204087257385254,2.6240451335906982,-1.5825673341751099
1732873392005059300,2.963059326171875,9.368511199951172,2.58813214302063,-0.9361328482627869
1732873392015069000,2.97306884765625,8.518569946289062,2.626439332962036,-0.4668693244457245
1732873392025048300,2.98304833984375,7.910442352294922,2.6839001178741455,-0.4141969084739685
1732873392035058200,2.99305810546875,7.331045627593994,2.7509377002716064,-0.4405331015586853
1732873392045067800,3.00306787109375,7.024587631225586,2.75812029838562,-0.507570743560791
1732873392055047200,3.013047119140625,7.043741226196289,2.626439332962036,-0.5650315880775452
1732873392065057000,3.02305712890625,7.19936466217041,2.5115175247192383,-0.7254431247711182
1732873392075066600,3.033066650390625,7.592013359069824,2.434903144836426,-0.9840168952941895
1732873392085045800,3.043045654296875,8.010998725891113,2.360682964324951,-1.1300631761550903
1732873392095055600,3.0530556640625,8.434772491455078,2.3343467712402344,-1.2401964664459229
1732873392105065200,3.063065185546875,8.78432559967041,2.434903144836426,-1.2880805730819702
1732873392115044600,3.073044677734375,8.83699893951416,2.542642116546631,-1.316810965538025
1732873392125054500,3.083054443359375,8.827422142028809,2.655169725418091,-1.2713210582733154
1732873392135064000,3.09306396484375,8.899248123168945,2.7293899059295654,-1.1851298809051514
1732873392145043500,3.10304345703125,8.992621421813965,2.784456491470337,-1.1324573755264282
1732873392155053300,3.11305322265625,9.136273384094238,2.82515811920166,-1.1563993692398071
1732873392165063000,3.12306298828125,9.41400146484375,2.8874073028564453,-1.2306196689605713
1732873392175072800,3.13307275390625,9.543288230895996,2.980781078338623,-1.3048399686813354
1732873392185052000,3.143052001953125,9.619902610778809,3.1244332790374756,-1.4413094520568848
1732873392195061800,3.153061767578125,9.524134635925293,3.315969467163086,-1.7190368175506592
1732873392205071400,3.1630712890625,9.643844604492188,3.646369218826294,-1.8794482946395874
1732873392215050800,3.17305078125,10.077195167541504,3.799597978591919,-1.5083470344543457
1732873392225060600,3.183060546875,10.311826705932617,3.536235809326172,-0.7134721279144287
1732873392235070200,3.1930703125,10.702081680297852,3.2130186557769775,0.395043283700943
1732873392245049600,3.203049560546875,10.96544361114502,2.75812029838562,1.4221558570861816
1732873392255059500,3.2130595703125,11.142614364624023,2.3032219409942627,2.4444799423217773
1732873392265069000,3.223069091796875,11.14500904083252,2.0422539710998535,2.853888511657715
1732873392275048200,3.233048095703125,11.1474027633667,1.9129672050476074,2.849100112915039
1732873392285058000,3.24305810546875,11.142614364624023,1.8531121015548706,2.4372973442077637
1732873392295067600,3.253067626953125,11.140220642089844,1.965639591217041,1.7525556087493896
1732873392305047000,3.263047119140625,11.372458457946777,2.1499931812286377,1.1276689767837524
1732873392315057000,3.273056884765625,11.611878395080566,2.3558945655822754,0.4644751250743866
1732873392325066500,3.28306640625,11.745953559875488,2.315192937850952,0.11971008777618408
1732873392335046000,3.2930458984375,12.016498565673828,2.0853497982025146,0.10534487664699554
1732873392345055700,3.3030556640625,12.291831970214844,1.6041151285171509,0.12210428714752197
1732873392355065300,3.3130654296875,12.342109680175781,1.1468225717544556,0.19632454216480255
1732873392365044500,3.32304443359375,12.172121047973633,0.6368576288223267,0.2753331959247589
1732873392375054300,3.333054443359375,11.568782806396484,0.33039984107017517,0.21308395266532898
1732873392385064200,3.343064208984375,10.431536674499512,0.1843535304069519,0.22505496442317963
1732873392395043300,3.353043212890625,9.50737476348877,0.22505496442317963,0.2346317619085312
1732873392405053200,3.36305322265625,8.547300338745117,0.4141969084739685,0.1867477297782898
1732873392415062800,3.373062744140625,7.82185697555542,0.5578489899635315,0.05506663769483566
1732873392425072600,3.38307275390625,7.105990409851074,0.7422025203704834,-0.021547814831137657
1732873392435052000,3.393052001953125,6.31829833984375,0.7422025203704834,-0.033518824726343155
1732873392445061600,3.4030615234375,6.004657745361328,0.8307880163192749,-0.28730419278144836
1732873392455071500,3.413071533203125,6.1770405769348145,0.9648633003234863,-0.6991068720817566
1732873392465050600,3.423050537109375,6.840234279632568,1.0797849893569946,-0.9888052940368652
1732873392475060500,3.433060546875,8.159439086914062,1.2713210582733154,-1.2737152576446533
1732873392485070300,3.4430703125,9.39245319366455,1.522712230682373,-1.256955862045288
1732873392495049500,3.453049560546875,10.259154319763184,1.6687586307525635,-1.2114660739898682
1732873392505059300,3.463059326171875,10.718840599060059,1.8746598958969116,-1.139639973640442
1732873392515069000,3.47306884765625,11.17852783203125,1.9991583824157715,-0.9026140570640564
1732873392525048300,3.48304833984375,11.348516464233398,2.051830768585205,-0.6009446382522583
1732873392535058200,3.49305810546875,11.23598861694336,2.0398597717285156,-0.24420857429504395
1732873392545067800,3.50306787109375,10.927136421203613,2.006340980529785,-0.019153613597154617
1732873392555047200,3.513047119140625,10.687716484069824,1.9632453918457031,0.07422025501728058
1732873392565057000,3.52305712890625,10.400412559509277,1.9776105880737305,0.10055647045373917
1732873392575066600,3.533066650390625,9.99339771270752,1.9081788063049316,0.17238251864910126
1732873392585045800,3.543045654296875,9.581595420837402,1.8076223134994507,0.40462008118629456
1732873392595055600,3.5530556640625,9.346963882446289,1.6927006244659424,0.5434837937355042
1732873392605065200,3.563065185546875,9.294290542602539,1.6304513216018677,0.6919242739677429
1732873392615044600,3.573044677734375,9.457097053527832,1.6089035272598267,0.7733271718025208
1732873392625054500,3.583054443359375,9.552865028381348,1.5969325304031372,0.8259995579719543
1732873392635064000,3.59306396484375,9.497797966003418,1.6328455209732056,0.871489405632019
1732873392645043500,3.60304345703125,9.478644371032715,1.6950948238372803,0.9217676520347595
1732873392655053300,3.61305322265625,9.342175483703613,1.6831238269805908,1.1085153818130493
1732873392665063000,3.62306298828125,9.074024200439453,1.7860745191574097,1.1324573755264282
1732873392675072800,3.63307275390625,8.628703117370605,1.9153614044189453,0.8906430602073669
1732873392685052000,3.643052001953125,8.212111473083496,2.0183119773864746,0.5650315880775452
1732873392695061800,3.653061767578125,8.092401504516602,2.03507137298584,0.26815059781074524
1732873392705071400,3.6630712890625,8.24084186553955,1.941697597503662,0.31364041566848755
1732873392715050800,3.67305078125,8.468291282653809,1.7477672100067139,0.524330198764801
1732873392725060400,3.683060302734375,8.877699851989746,1.558625340461731,0.7134721279144287
1732873392735070200,3.6930703125,9.246406555175781,1.2617442607879639,0.7637503147125244
1732873392745049600,3.703049560546875,9.32541561126709,1.1803414821624756,0.9265560507774353
1732873392755059500,3.7130595703125,9.461885452270508,0.9888052940368652,0.9720458984375
1732873392765069000,3.723069091796875,9.461885452270508,0.9193734526634216,0.8690952062606812
1732873392775048200,3.733048095703125,9.516951560974121,1.0247182846069336,0.7134721279144287
1732873392785058000,3.74305810546875,9.62947940826416,1.1563993692398071,0.5937620401382446
1732873392795067600,3.753067626953125,9.660603523254395,1.2282254695892334,0.3974374830722809
1732873392805047000,3.763047119140625,9.696516990661621,1.3120225667953491,0.0933738648891449
1732873392815057000,3.773056884765625,9.718064308166504,1.3120225667953491,0.004788403399288654
1732873392825066500,3.78306640625,9.916783332824707,1.2234370708465576,0.2561795711517334
1732873392835046000,3.7930458984375,10.065223693847656,1.1276689767837524,0.7134721279144287
1732873392845055700,3.8030556640625,10.266336441040039,0.8523358106613159,1.0845733880996704
1732873392855065300,3.8130654296875,10.556035041809082,0.6416460275650024,1.482010841369629
1732873392865044500,3.82304443359375,10.953473091125488,0.7206547260284424,1.7094600200653076
1732873392875054300,3.833054443359375,10.972626686096191,1.4628572463989258,1.2473790645599365
1732873392885064200,3.843064208984375,10.38604736328125,2.123656988143921,0.3447650372982025
1732873392895043300,3.853043212890625,9.17697525024414,2.5665841102600098,-1.0127472877502441
1732873392905053200,3.86305322265625,8.020575523376465,2.829946517944336,-2.6431987285614014
1732873392915063000,3.87306298828125,7.163451671600342,3.1100680828094482,-4.220977783203125
1732873392925072600,3.88307275390625,7.407660007476807,3.0119056701660156,-4.817133903503418
1732873392935052000,3.893052001953125,9.105149269104004,2.252943754196167,-4.266467571258545
1732873392945061600,3.9030615234375,11.322179794311523,1.3646949529647827,-2.7485435009002686
1732873392955071500,3.913071533203125,13.366827964782715,0.6991068720817566,-0.6823474764823914
1732873392965051000,3.92305078125,14.360422134399414,0.4165911078453064,1.0199298858642578
1732873392975060500,3.933060546875,14.4226713180542,0.4668693244457245,2.3582887649536133
1732873392985070300,3.9430703125,13.170503616333008,0.7996633648872375,2.229001760482788
1732873392995049500,3.953049560546875,11.985373497009277,1.3024457693099976,0.849941611289978
1732873393005059300,3.963059326171875,11.104307174682617,2.190694570541382,-1.161187767982483
1732873393015069000,3.97306884765625,10.66137981414795,2.9903578758239746,-2.432508945465088
1732873393025048300,3.98304833984375,10.295066833496094,3.4763808250427246,-3.1507694721221924
1732873393035058200,3.99305810546875,10.244789123535156,3.7014358043670654,-3.2321722507476807
1732873393045067800,4.00306787109375,10.182539939880371,3.6750996112823486,-3.0310592651367188
1732873393055047200,4.013047119140625,9.835380554199219,3.4763808250427246,-2.7700912952423096
1732873393065057000,4.02305712890625,9.107542991638184,3.0789434909820557,-2.3918075561523438
1732873393075066600,4.033066650390625,8.463502883911133,2.612074136734009,-1.845929503440857
1732873393085045800,4.043045654296875,8.022970199584961,2.013523578643799,-1.1516109704971313
1732873393095055600,4.0530556640625,8.101978302001953,1.4197616577148438,-0.3232172429561615
1732873393105065200,4.063065185546875,8.537723541259766,1.0414776802062988,0.09816227108240128
1732873393115044600,4.073044677734375,9.21288776397705,0.7876923680305481,0.14844051003456116
1732873393125054500,4.083054443359375,9.677363395690918,0.6847416758537292,-0.021547814831137657
1732873393135064000,4.09306396484375,10.000580787658691,0.768538773059845,-0.19393034279346466
1732873393145043500,4.10304345703125,9.852140426635742,0.8762778043746948,-0.3687070608139038
1732873393155053300,4.11305322265625,9.114726066589355,1.0247182846069336,-0.6392518281936646
1732873393165063000,4.12306298828125,8.552088737487793,1.2282254695892334,-0.912190854549408
1732873393175072800,4.13307275390625,7.987056732177734,1.5155296325683594,-1.015141487121582
1732873393185052000,4.143052001953125,7.553706169128418,1.5753847360610962,-1.0438719987869263
1732873393195061500,4.1530615234375,7.489062786102295,1.6400281190872192,-0.8475474119186401
1732873393205071400,4.1630712890625,7.879317760467529,1.580173134803772,-0.4620809257030487
1732873393215050800,4.17305078125,8.212111473083496,1.37906014919281,-0.1843535304069519
1732873393225060600,4.183060546875,8.678980827331543,1.1204863786697388,-0.05985504388809204
1732873393235070200,4.1930703125,9.265560150146484,0.9026140570640564,-0.05746084079146385
1732873393245049600,4.203049560546875,9.832986831665039,0.6631938815116882,-0.06464344263076782
1732873393255059500,4.2130595703125,10.156203269958496,0.5793967843055725,-0.4141969084739685
1732873393265069000,4.223069091796875,10.14902114868164,0.5817909836769104,-0.950498104095459
1732873393275048200,4.233048095703125,10.017339706420898,0.47405192255973816,-1.4269442558288574
1732873393285058000,4.24305810546875,9.916783332824707,0.3758896589279175,-1.8339585065841675
1732873393295067600,4.253067626953125,9.983820915222168,0.3998316824436188,-1.8483237028121948
1732873393305047000,4.263047119140625,10.070012092590332,0.4165911078453064,-1.6711528301239014
1732873393315057000,4.273056884765625,10.113107681274414,0.4118026793003082,-1.4293384552001953
1732873393325066500,4.28306640625,9.952696800231934,0.4884171485900879,-1.2832920551300049
1732873393335046000,4.2930458984375,9.418789863586426,0.5793967843055725,-1.1348515748977661
1732873393345055700,4.3030556640625,9.030928611755371,0.6847416758537292,-0.9457096457481384
1732873393355065300,4.3130654296875,8.743624687194824,0.6943184733390808,-0.7445967197418213
1732873393365044500,4.32304443359375,8.427590370178223,0.5937620401382446,-0.6536170840263367
1732873393375054300,4.333054443359375,8.068459510803223,0.47165772318840027,-0.9145850539207458
1732873393385064200,4.343064208984375,8.003816604614258,0.4644751250743866,-1.5394717454910278
1732873393395043300,4.353043212890625,8.394071578979492,0.4405331015586853,-2.118868589401245
1732873393405053200,4.36305322265625,8.980650901794434,0.38546648621559143,-2.2409727573394775
1732873393415063000,4.37306298828125,9.737217903137207,0.2825157940387726,-2.011129379272461
1732873393425072600,4.38307275390625,10.498574256896973,0.1604115068912506,-1.434126853942871
1732873393435052000,4.393052001953125,10.884040832519531,0.06464344263076782,-0.7924807667732239
1732873393445061600,4.4030615234375,11.042057991027832,0.011971008032560349,-0.28969839215278625
1732873393455071500,4.413071533203125,11.125855445861816,0.07182604819536209,-0.08858546614646912
1732873393465051000,4.42305078125,11.05402946472168,0.16519992053508759,-0.20111294090747833
1732873393475060500,4.433060546875,10.994174003601074,0.18914192914962769,-0.5722141861915588
1732873393485070300,4.4430703125,11.113883972167969,0.19153612852096558,-1.091755986213684
1732873393495049500,4.453049560546875,11.377246856689453,0.2825157940387726,-1.3239935636520386
1732873393505059300,4.463059326171875,11.599906921386719,0.3471592366695404,-1.2330138683319092
1732873393515069000,4.47306884765625,11.779472351074219,0.38546648621559143,-0.9672574996948242
1732873393525048300,4.48304833984375,11.853693008422852,0.40701428055763245,-0.7015010714530945
1732873393535058200,4.49305810546875,11.63103199005127,0.40701428055763245,-0.45489832758903503
1732873393545067800,4.50306787109375,11.283872604370117,0.4429273009300232,-0.43095630407333374
1732873393555047200,4.513047119140625,10.771512985229492,0.44771572947502136,-0.4620809257030487
1732873393565057000,4.52305712890625,10.295066833496094,0.35434186458587646,-0.4884171485900879
1732873393575066600,4.533066650390625,9.825803756713867,0.26336219906806946,-0.6392518281936646
1732873393585045800,4.543045654296875,9.591172218322754,0.28730419278144836,-0.6943184733390808
1732873393595055600,4.5530556640625,9.528923034667969,0.22505496442317963,-0.629675030708313
1732873393605065200,4.563065185546875,9.555258750915527,0.16519992053508759,-0.524330198764801
1732873393615044600,4.573044677734375,9.919178009033203,0.023942016065120697,-0.4165911078453064
1732873393625054500,4.583054443359375,10.417171478271484,-0.12689268589019775,-0.31603461503982544
1732873393635064000,4.59306396484375,10.8720703125,-0.4189853072166443,-0.12928688526153564
1732873393645043500,4.60304345703125,11.14500904083252,-0.6416460275650024,-0.1843535304069519
1732873393655053300,4.61305322265625,11.267112731933594,-0.6919242739677429,-0.2585737705230713
1732873393665063000,4.62306298828125,11.1474027633667,-0.608127236366272,-0.4836287498474121
1732873393675072800,4.63307275390625,10.83855152130127,-0.395043283700943,-0.7948749661445618
1732873393685052000,4.643052001953125,10.27591323852539,-0.05985504388809204,-1.2952631711959839
1732873393695061500,4.6530615234375,9.885659217834473,0.2585737705230713,-1.7286136150360107
1732873393705071400,4.6630712890625,9.550470352172852,0.5339069962501526,-2.0638017654418945
1732873393715050800,4.67305078125,9.277531623840332,0.7350199222564697,-2.3319525718688965
1732873393725060600,4.683060546875,9.126696586608887,0.9169792532920837,-2.609679937362671
1732873393735070200,4.6930703125,9.078812599182129,1.0295066833496094,-2.513911724090576
1732873393745049600,4.703049560546875,9.090784072875977,1.0534487962722778,-1.900996208190918
1732873393755059500,4.7130595703125,8.78193187713623,1.1085153818130493,-1.278503656387329
1732873393765069000,4.723069091796875,8.250418663024902,1.3024457693099976,-1.3120225667953491
1732873393775048200,4.733048095703125,7.441178798675537,1.3694833517074585,-1.2425906658172607
1732873393785058000,4.74305810546875,6.720524311065674,1.2521674633026123,-0.8403648138046265
1732873393795067600,4.753067626953125,6.14831018447876,1.1468225717544556,-0.4405331015586853
1732873393805047000,4.763047119140625,6.1770405769348145,1.2186486721038818,-0.4381389021873474
1732873393815057000,4.773056884765625,7.103596210479736,1.3623007535934448,-0.23702596127986908
1732873393825066500,4.78306640625,7.359776020050049,1.2066776752471924,0.18914192914962769
1732873393835046000,4.7930458984375,7.905653953552246,0.8164227604866028,0.5770025849342346
1732873393845055500,4.803055419921875,8.501810073852539,0.7038952708244324,0.8595184087753296
1732873393855065300,4.8130654296875,9.50737476348877,0.6799532771110535,1.1468225717544556
1732873393865044500,4.82304443359375,10.38844108581543,0.6799532771110535,1.3215993642807007
1732873393875054300,4.833054443359375,11.080365180969238,0.8331822156906128,1.2976573705673218
1732873393885064200,4.843064208984375,11.458649635314941,1.1348515748977661,1.3742717504501343
1732873393895043300,4.853043212890625,11.21204662322998,1.3407529592514038,1.338358759880066
1732873393905053200,4.86305322265625,10.802638053894043,1.4939818382263184,1.314416766166687
1732873393915062800,4.873062744140625,10.431536674499512,1.580173134803772,1.3287819623947144
1732873393925072600,4.88307275390625,9.99339771270752,1.5753847360610962,1.2856862545013428
1732873393935052000,4.893052001953125,9.835380554199219,1.3934253454208374,1.158793568611145
1732873393945061600,4.9030615234375,10.323798179626465,1.113303780555725,0.8379706144332886
1732873393955071500,4.913071533203125,11.197681427001953,0.8643068075180054,0.47644615173339844
1732873393965051000,4.92305078125,12.385205268859863,0.6847416758537292,0.16998831927776337
1732873393975060500,4.933060546875,13.46020221710205,0.6344634294509888,-0.031124621629714966
1732873393985070300,4.9430703125,13.82172679901123,0.667982280254364,-0.1173158809542656
1732873393995049500,4.953049560546875,13.227964401245117,0.828393816947937,-0.26575639843940735
1732873394005059300,4.963059326171875,12.09311294555664,1.0127472877502441,-0.40222588181495667
1732873394015069000,4.97306884765625,10.673351287841797,1.237802267074585,-0.35673606395721436
1732873394025048300,4.98304833984375,9.63187313079834,1.338358759880066,-0.15562310814857483
1732873394035058200,4.99305810546875,8.808267593383789,1.4508862495422363,-0.0933738648891449
1732873394045067800,5.00306787109375,8.463502883911133,1.5825673341751099,-0.181959331035614
1732873394055047200,5.013047119140625,8.580819129943848,1.7094600200653076,-0.33039984107017517
1732873394065057000,5.02305712890625,8.834604263305664,1.7764976024627686,-0.4213795065879822
1732873394075066600,5.033066650390625,9.023746490478516,1.766920804977417,-0.42377370595932007
1732873394085045800,5.043045654296875,8.956708908081055,1.7190368175506592,-0.37828385829925537
1732873394095055600,5.0530556640625,8.9064302444458,1.6280571222305298,-0.2561795711517334
1732873394105065200,5.063065185546875,8.595184326171875,1.4891934394836426,-0.12928688526153564
1732873394115044600,5.073044677734375,8.360552787780762,1.3623007535934448,-0.06224924325942993
1732873394125054500,5.083054443359375,8.279149055480957,1.256955862045288,0.10295066982507706
1732873394135064000,5.09306396484375,8.346187591552734,1.091755986213684,0.31124621629714966
1732873394145043500,5.10304345703125,8.556877136230469,0.8092401623725891,0.6536170840263367
1732873394155053300,5.11305322265625,8.827422142028809,0.5961562395095825,1.1109095811843872
1732873394165063000,5.12306298828125,9.222464561462402,0.35434186458587646,1.6160861253738403
1732873394175072800,5.13307275390625,9.095572471618652,0.19153612852096558,1.843535304069519
1732873394185052000,5.143052001953125,8.89445972442627,0.16519992053508759,1.9033904075622559
1732873394195061800,5.153061767578125,8.880094528198242,0.30885201692581177,1.4724340438842773
1732873394205071400,5.1630712890625,9.078812599182129,0.545877993106842,0.8834604024887085
1732873394215050800,5.17305078125,9.330204010009766,0.9097966551780701,0.17956513166427612
1732873394225060400,5.183060302734375,9.27034854888916,1.314416766166687,-0.5770025849342346
1732873394235070200,5.1930703125,9.294290542602539,1.644816517829895,-1.113303780555725
1732873394245049600,5.203049560546875,9.433155059814453,1.723825216293335,-1.2617442607879639
1732873394255059500,5.2130595703125,9.459490776062012,1.7286136150360107,-1.216254472732544
1732873394265069000,5.223069091796875,9.545681953430176,1.6184803247451782,-1.0606313943862915
1732873394275048200,5.233048095703125,9.792284965515137,1.4867992401123047,-0.49559974670410156
1732873394285057800,5.243057861328125,9.818621635437012,1.316810965538025,0.2968810200691223
1732873394295067600,5.253067626953125,9.615114212036133,1.0893617868423462,0.9888052940368652
1732873394305047000,5.263047119140625,9.373299598693848,0.9145850539207458,1.5873557329177856
1732873394315057000,5.273056884765625,9.157821655273438,0.6823474764823914,2.0159177780151367
1732873394325066500,5.28306640625,9.01895809173584,0.29209262132644653,2.535459518432617
1732873394335046000,5.2930458984375,9.914389610290527,0.14844051003456116,2.542642116546631
1732873394345055700,5.3030556640625,11.774683952331543,0.31603461503982544,1.9081788063049316
1732873394355065300,5.3130654296875,13.230358123779297,0.569819986820221,1.0103530883789062
1732873394365044500,5.32304443359375,14.216769218444824,0.8667010068893433,0.15083470940589905
1732873394375054300,5.333054443359375,14.300566673278809,1.1994950771331787,-0.5315127968788147
1732873394385064200,5.343064208984375,13.397953033447266,1.6041151285171509,-1.0965443849563599
1732873394395043300,5.353043212890625,12.157755851745605,1.889025092124939,-1.1803414821624756
1732873394405053200,5.36305322265625,10.989385604858398,2.0207061767578125,-0.9672574996948242
1732873394415062800,5.373062744140625,9.998186111450195,2.0398597717285156,-0.871489405632019
1732873394425072600,5.38307275390625,9.497797966003418,1.9967641830444336,-0.9624691009521484
1732873394435052000,5.393052001953125,9.734824180603027,1.778891921043396,-0.8619126081466675
1732873394445061600,5.4030615234375,10.556035041809082,1.4532804489135742,-0.395043283700943
1732873394455071500,5.413071533203125,11.994950294494629,0.9792284965515137,0.14844051003456116
1732873394465051000,5.42305078125,13.388376235961914,0.646434485912323,0.45489832758903503
1732873394475060500,5.433060546875,14.271836280822754,0.4668693244457245,0.49799394607543945
1732873394485070300,5.4430703125,14.389152526855469,0.49320554733276367,0.17477671802043915
1732873394495049500,5.453049560546875,13.632584571838379,0.7445967197418213,-0.3064578175544739
1732873394505059300,5.463059326171875,12.607866287231445,1.0606313943862915,-0.7829039692878723
1732873394515069000,5.47306884765625,11.401188850402832,1.436521053314209,-1.2330138683319092
1732873394525048300,5.48304833984375,10.333374977111816,1.7525556087493896,-1.3287819623947144
1732873394535058200,5.49305810546875,9.402029991149902,1.9177556037902832,-1.1994950771331787
1732873394545067800,5.50306787109375,8.607154846191406,1.9823989868164062,-0.9074024558067322
1732873394555047200,5.513047119140625,8.202534675598145,1.8770540952682495,-0.6248866319656372
1732873394565057000,5.52305712890625,7.994239330291748,1.6376339197158813,-0.3495534360408783
1732873394575066600,5.533066650390625,8.08282470703125,1.4197616577148438,-0.1843535304069519
1732873394585045800,5.543045654296875,8.274360656738281,1.1851298809051514,-0.033518824726343155
1732873394595055600,5.5530556640625,8.434772491455078,0.9864110946655273,0.06224924325942993
1732873394605065200,5.563065185546875,8.49941635131836,0.9241618514060974,-0.026336219161748886
1732873394615044600,5.573044677734375,8.334216117858887,0.9911994934082031,-0.33997663855552673
1732873394625054500,5.583054443359375,7.987056732177734,1.1468225717544556,-0.7326257228851318
1732873394635064000,5.59306396484375,7.273584842681885,1.338358759880066,-1.2737152576446533
1732873394645043500,5.60304345703125,6.97430944442749,1.50355863571167,-1.6304513216018677
1732873394655053300,5.61305322265625,6.947973251342773,1.6496049165725708,-1.659181833267212
1732873394665063000,5.62306298828125,6.919242858886719,1.7094600200653076,-1.45806884765625
1732873394675072800,5.63307275390625,6.88332986831665,1.6903064250946045,-1.2258312702178955
1732873394685052000,5.643052001953125,7.110779285430908,1.6879122257232666,-1.2425906658172607
1732873394695061500,5.6530615234375,7.575253963470459,1.6328455209732056,-1.3623007535934448
1732873394705071400,5.6630712890625,7.9846625328063965,1.4915876388549805,-1.3407529592514038
1732873394715050800,5.67305078125,8.293514251708984,1.3503297567367554,-1.41257905960083
1732873394725060600,5.683060546875,8.561665534973145,1.237802267074585,-1.479616641998291
1732873394735070200,5.6930703125,8.937555313110352,1.1348515748977661,-1.5298948287963867
1732873394745049600,5.703049560546875,9.066842079162598,1.0199298858642578,-1.5466543436050415
1732873394755059500,5.7130595703125,9.030928611755371,0.9959878921508789,-1.4652514457702637
1732873394765069000,5.723069091796875,8.968679428100586,0.9959878921508789,-1.357512354850769
1732873394775048200,5.733048095703125,8.858546257019043,0.8738836050033569,-1.1899182796478271
1732873394785058000,5.74305810546875,8.860940933227539,0.6224924325942993,-0.8379706144332886
1732873394795067600,5.753067626953125,8.932766914367676,0.42377370595932007,-0.5099649429321289
1732873394805047000,5.763047119140625,8.99740982055664,0.27054479718208313,-0.15083470940589905
1732873394815056600,5.773056640625,9.090784072875977,0.12689268589019775,-0.11252748221158981
1732873394825066500,5.78306640625,9.193734169006348,0.047884032130241394,-0.3016694188117981
1732873394835046000,5.7930458984375,9.129091262817383,0.002394201699644327,-0.5267243981361389
1732873394845055700,5.8030556640625,9.093177795410156,-0.031124621629714966,-0.8523358106613159
1732873394855065300,5.8130654296875,9.181763648986816,-0.023942016065120697,-1.170764684677124
1732873394865044500,5.82304443359375,9.102754592895508,0.05985504388809204,-1.5394717454910278
1732873394875054300,5.833054443359375,9.239224433898926,0.05985504388809204,-1.623268723487854
1732873394885064200,5.843064208984375,9.311050415039062,0.038307227194309235,-1.482010841369629
1732873394895043300,5.853043212890625,9.167398452758789,-0.07422025501728058,-1.4269442558288574
1732873394905053200,5.86305322265625,9.150638580322266,-0.13407529890537262,-1.1875240802764893
1732873394915063000,5.87306298828125,9.071630477905273,-0.14844051003456116,-0.8379706144332886
1732873394925072600,5.88307275390625,8.904036521911621,-0.2106897532939911,-0.7589619159698486
1732873394935052000,5.893052001953125,9.057265281677246,-0.14844051003456116,-0.7230489253997803
1732873394945061600,5.9030615234375,9.440337181091309,-0.10055647045373917,-0.6416460275650024
1732873394955071500,5.913071533203125,9.979032516479492,0.07422025501728058,-0.4357447028160095
1732873394965051000,5.92305078125,10.488997459411621,0.26336219906806946,-0.035913024097681046
1732873394975060500,5.933060546875,10.584765434265137,0.5770025849342346,0.45250412821769714
1732873394985070300,5.9430703125,10.378864288330078,1.0414776802062988,0.993593692779541
1732873394995049500,5.953049560546875,10.113107681274414,1.4676456451416016,1.1468225717544556
1732873395005059300,5.963059326171875,9.883264541625977,1.9967641830444336,0.7852981686592102
1732873395015069000,5.97306884765625,10.228029251098633,2.3989901542663574,0.21308395266532898
1732873395025048300,5.98304833984375,11.379640579223633,2.4851813316345215,-0.33758243918418884
1732873395035058200,5.99305810546875,12.382811546325684,2.5234885215759277,-0.5650315880775452
1732873395045067800,6.00306787109375,12.844892501831055,2.58813214302063,-0.6009446382522583
1732873395055047200,6.013047119140625,13.165715217590332,2.604891538619995,-0.6272808313369751
1732873395065057000,6.02305712890625,13.249512672424316,2.5258827209472656,-0.43095630407333374
1732873395075066600,6.033066650390625,12.830527305603027,2.2840683460235596,-0.14365209639072418
1732873395085045800,6.043045654296875,12.358869552612305,2.0614075660705566,0.45010992884635925
1732873395095055600,6.0530556640625,11.982979774475098,1.7334020137786865,0.8307880163192749
1732873395105065200,6.063065185546875,12.052411079406738,1.5083470344543457,1.237802267074585
1732873395115044600,6.073044677734375,12.401965141296387,1.3239935636520386,1.4772224426269531
1732873395125054500,6.083054443359375,12.588712692260742,1.2186486721038818,1.2090718746185303
1732873395135064000,6.09306396484375,12.588712692260742,1.2114660739898682,0.7398083209991455
1732873395145043500,6.10304345703125,12.303802490234375,1.216254472732544,0.629675030708313
1732873395155053300,6.11305322265625,11.382035255432129,1.194706678390503,0.667982280254364
1732873395165063000,6.12306298828125,9.90241813659668,1.1851298809051514,0.5482721924781799
1732873395175072800,6.13307275390625,8.099584579467773,1.3120225667953491,0.22744916379451752
1732873395185052000,6.143052001953125,6.6127848625183105,1.479616641998291,-0.1173158809542656
1732873395195061800,6.153061767578125,5.894524574279785,1.6376339197158813,-0.40940847992897034
1732873395205071400,6.1630712890625,5.674258232116699,1.8626888990402222,-0.8906430602073669
1732873395215050800,6.17305078125,5.91128396987915,1.9991583824157715,-1.2210428714752197
1732873395225060400,6.183060302734375,6.7492547035217285,1.9081788063049316,-1.173158884048462
1732873395235070200,6.1930703125,7.627926826477051,1.6831238269805908,-0.8738836050033569
1732873395245049600,6.203049560546875,8.276755332946777,1.5442601442337036,-0.7565677165985107
1732873395255059500,6.2130595703125,8.422801971435547,1.4508862495422363,-0.7254431247711182
1732873395265069000,6.223069091796875,8.250418663024902,1.455674648284912,-0.3663128614425659
1732873395275048200,6.233048095703125,8.13789176940918,1.6041151285171509,0.009576806798577309
1732873395285058000,6.24305810546875,8.142680168151855,1.7836803197860718,0.3471592366695404
1732873395295067600,6.253067626953125,8.300697326660156,1.9273324012756348,0.6392518281936646
1732873395305047000,6.263047119140625,8.71728801727295,1.965639591217041,0.395043283700943
1732873395315057000,6.273056884765625,9.361329078674316,2.0374655723571777,-0.5219359993934631
1732873395325066500,6.28306640625,9.816226959228516,2.0590133666992188,-1.0582371950149536
1732873395335046000,6.2930458984375,10.010157585144043,1.5969325304031372,-0.8858546018600464
1732873395345055700,6.3030556640625,10.20887565612793,0.9983820915222168,0.07661445438861847
1732873395355065300,6.3130654296875,10.472238540649414,0.5817909836769104,1.3503297567367554
1732873395365044500,6.32304443359375,10.469843864440918,0.524330198764801,1.946485996246338
1732873395375054300,6.333054443359375,10.704475402832031,0.3711012601852417,2.3511061668395996
1732873395385064200,6.343064208984375,10.771512985229492,0.2825157940387726,2.3774423599243164
1732873395395043300,6.353043212890625,10.606313705444336,0.24660277366638184,1.8411411046981812
1732873395405053200,6.36305322265625,9.639056205749512,0.14844051003456116,1.2401964664459229
1732873395415063000,6.37306298828125,8.518569946289062,0.031124621629714966,0.16759411990642548
1732873395425072600,6.38307275390625,7.999027729034424,0.23702596127986908,-1.2090718746185303
1732873395435052000,6.393052001953125,8.183381080627441,0.4572925269603729,-1.7549498081207275
1732873395445061600,6.4030615234375,8.96389102935791,0.5363011956214905,-1.599326729774475
1732873395455071500,6.413071533203125,10.012551307678223,0.5841852426528931,-0.8523358106613159
1732873395465051000,6.42305078125,11.250353813171387,0.5578489899635315,0.1604115068912506
1732873395475060500,6.433060546875,11.884817123413086,0.6177040338516235,0.811634361743927
1732873395485070300,6.4430703125,11.777078628540039,0.7805097699165344,0.9481038451194763
1732873395495049500,6.453049560546875,11.080365180969238,0.8379706144332886,0.7709329724311829
1732873395505059300,6.463059326171875,10.201693534851074,0.8451532125473022,0.5530605912208557
1732873395515069000,6.47306884765625,9.524134635925293,0.811634361743927,0.11013327538967133
1732873395525048300,6.48304833984375,9.38048267364502,0.8547300100326538,-0.27054479718208313
1732873395535058200,6.49305810546875,9.852140426635742,0.871489405632019,-0.44771572947502136
1732873395545067800,6.50306787109375,10.5344877243042,0.7876923680305481,-0.38546648621559143
1732873395555047200,6.513047119140625,11.405977249145508,0.8068459630012512,-0.14844051003456116
1732873395565057000,6.52305712890625,12.277466773986816,0.9265560507774353,-0.07900865375995636
1732873395575066600,6.533066650390625,13.117831230163574,1.1252747774124146,-0.17477671802043915
1732873395585045800,6.543045654296875,13.558363914489746,1.3120225667953491,-0.2777273952960968
1732873395595055600,6.5530556640625,13.582305908203125,1.4963760375976562,-0.4620809257030487
1732873395605065200,6.563065185546875,13.113042831420898,1.6089035272598267,-0.7493851184844971
1732873395615044600,6.573044677734375,12.253523826599121,1.6112977266311646,-0.9361328482627869
1732873395625054500,6.583054443359375,11.420342445373535,1.4269442558288574,-1.0797849893569946
1732873395635064000,6.59306396484375,10.76193618774414,1.2090718746185303,-1.1228805780410767
1732873395645043500,6.60304345703125,10.247182846069336,0.9696516990661621,-1.0319008827209473
1732873395655053300,6.61305322265625,10.053253173828125,0.6129156351089478,-0.7469909191131592
1732873395665063000,6.62306298828125,9.794678688049316,0.14365209639072418,-0.38067805767059326
1732873395675072800,6.63307275390625,9.44991397857666,-0.15562310814857483,-0.019153613597154617
1732873395685052000,6.643052001953125,8.884882926940918,-0.3711012601852417,0.26096799969673157
1732873395695061800,6.653061767578125,8.339004516601562,-0.49799394607543945,0.3711012601852417
1732873395705071400,6.6630712890625,7.948749542236328,-0.395043283700943,0.22026655077934265
1732873395715050800,6.67305078125,7.735665798187256,-0.19871874153614044,0.002394201699644327
1732873395725060400,6.683060302734375,7.587224960327148,0.15322890877723694,-0.4189853072166443
1732873395735070200,6.6930703125,7.424419403076172,0.5386953949928284,-0.8427590131759644
1732873395745049600,6.703049560546875,7.187393665313721,0.8547300100326538,-1.2306196689605713
1732873395755059500,6.7130595703125,6.988674640655518,1.3000515699386597,-2.1811177730560303
1732873395765069000,6.723069091796875,7.309497833251953,1.5825673341751099,-2.4803929328918457
1732873395775048200,6.733048095703125,7.735665798187256,1.6160861253738403,-2.1715409755706787
1732873395785058000,6.74305810546875,8.13789176940918,1.455674648284912,-1.3886369466781616
1732873395795067600,6.753067626953125,8.710105895996094,1.2832920551300049,-0.363918662071228
1732873395805047000,6.763047119140625,9.301473617553711,1.139639973640442,0.38307225704193115
1732873395815057000,6.773056884765625,9.35654067993164,1.0103530883789062,0.7134721279144287
1732873395825066500,6.78306640625,9.136273384094238,0.9481038451194763,0.5793967843055725
1732873395835046000,6.7930458984375,9.23682975769043,0.8068459630012512,0.6943184733390808
1732873395845055700,6.8030556640625,9.409213066101074,0.5315127968788147,0.608127236366272
1732873395855065300,6.8130654296875,9.32302188873291,0.4620809257030487,0.15801730751991272
1732873395865044500,6.82304443359375,9.224859237670898,0.33758243918418884,-0.2825157940387726
1732873395875054300,6.833054443359375,9.035717010498047,0.2059013396501541,-0.3208230137825012
1732873395885064200,6.843064208984375,8.803479194641113,0.2106897532939911,-0.35673606395721436
1732873395895043300,6.853043212890625,9.136273384094238,0.31603461503982544,-0.45489832758903503
1732873395905053200,6.86305322265625,9.96945571899414,0.5291185975074768,-0.5793967843055725
1732873395915063000,6.87306298828125,11.15697956085205,0.6057330369949341,-0.730231523513794
1732873395925072600,6.88307275390625,12.337321281433105,0.6584054827690125,-0.646434485912323
1732873395935052000,6.893052001953125,12.90953540802002,0.7182605266571045,-0.5841852426528931
1732873395945061600,6.9030615234375,13.539210319519043,0.8930372595787048,-0.5937620401382446
1732873395955071500,6.913071533203125,13.833697319030762,1.139639973640442,-0.6129156351089478
1732873395965051000,6.92305078125,13.39555835723877,1.381454348564148,-0.3902548849582672
1732873395975060500,6.933060546875,12.181697845458984,1.5610195398330688,0.1867477297782898
1732873395985070300,6.9430703125,11.200075149536133,1.7597382068634033,0.5961562395095825
1732873395995049500,6.953049560546875,10.012551307678223,1.968033790588379,0.9864110946655273
1732873396005059300,6.963059326171875,9.129091262817383,2.070984363555908,1.3000515699386597
1732873396015069000,6.97306884765625,8.257601737976074,2.0254945755004883,1.479616641998291
1732873396025048300,6.98304833984375,8.001421928405762,1.8722656965255737,1.3886369466781616
1732873396035058200,6.99305810546875,8.56645393371582,1.4915876388549805,1.5969325304031372
1732873396045067800,7.00306787109375,9.526528358459473,0.9600749015808105,1.86508309841156
1732873396055047200,7.013047119140625,10.512939453125,0.42377370595932007,2.1547815799713135
1732873396065057000,7.02305712890625,11.197681427001953,0.08858546614646912,2.410961151123047
1732873396075066600,7.033066650390625,11.556811332702637,0.004788403399288654,2.561795711517334
1732873396085045800,7.043045654296875,11.377246856689453,0.043095629662275314,2.2242133617401123
1732873396095055600,7.0530556640625,11.111490249633789,0.2106897532939911,1.8124107122421265
1732873396105065200,7.063065185546875,10.690110206604004,0.5219359993934631,1.1899182796478271
1732873396115044600,7.073044677734375,10.170568466186523,0.8403648138046265,0.6943184733390808
1732873396125054500,7.083054443359375,9.560047149658203,1.1659762859344482,0.009576806798577309
1732873396135064000,7.09306396484375,9.100360870361328,1.4532804489135742,-0.19393034279346466
1732873396145043500,7.10304345703125,8.588001251220703,1.5753847360610962,-0.15322890877723694
1732873396155053300,7.11305322265625,8.224082946777344,1.525106430053711,0.043095629662275314
1732873396165063000,7.12306298828125,8.152256965637207,1.3263877630233765,0.6416460275650024
1732873396175072800,7.13307275390625,8.291120529174805,0.9792284965515137,0.8619126081466675
1732873396185052000,7.143052001953125,8.578424453735352,0.6631938815116882,0.8140285611152649
1732873396195061800,7.153061767578125,8.889671325683594,0.31124621629714966,0.933738648891449
1732873396205071400,7.1630712890625,9.081207275390625,-0.040701430290937424,0.9193734526634216
1732873396215050800,7.17305078125,9.306262016296387,-0.27054479718208313,0.6392518281936646
1732873396225060600,7.183060546875,9.62947940826416,-0.3471592366695404,0.26336219906806946
1732873396235070200,7.1930703125,9.727641105651855,-0.30885201692581177,-0.07661445438861847
1732873396245049600,7.203049560546875,9.672574996948242,-0.18914192914962769,-0.28969839215278625
1732873396255059200,7.21305908203125,9.481039047241211,0.021547814831137657,-0.37828385829925537
1732873396265069000,7.223069091796875,9.366117477416992,0.2537853717803955,-0.4357447028160095
1732873396275048200,7.233048095703125,9.241618156433105,0.5195417404174805,-0.5386953949928284
1732873396285058000,7.24305810546875,9.174580574035645,0.7206547260284424,-0.524330198764801
1732873396295067600,7.253067626953125,9.184157371520996,0.768538773059845,-0.524330198764801
1732873396305047000,7.263047119140625,9.35893440246582,0.7254431247711182,-0.42616790533065796
1732873396315056600,7.273056640625,9.63187313079834,0.7015010714530945,-0.2849099934101105
1732873396325066500,7.28306640625,9.770736694335938,0.48602294921875,0.009576806798577309
1732873396335046000,7.2930458984375,9.880870819091797,0.2106897532939911,0.2944868206977844
1732873396345055700,7.3030556640625,9.99339771270752,-0.0454898327589035,0.6967126727104187
1732873396355065300,7.3130654296875,9.907206535339355,-0.21547815203666687,1.015141487121582
1732873396365044500,7.32304443359375,9.751583099365234,-0.181959331035614,1.434126853942871
1732873396375054300,7.333054443359375,9.361329078674316,-0.16759411990642548,1.5538369417190552
1732873396385064200,7.343064208984375,8.769960403442383,-0.22266076505184174,1.3551181554794312
1732873396395043300,7.353043212890625,8.180987358093262,-0.23942017555236816,0.7709329724311829
1732873396405053200,7.36305322265625,7.864952564239502,-0.10295066982507706,-0.002394201699644327
1732873396415063000,7.37306298828125,8.022970199584961,0.33758243918418884,-0.6775590777397156
1732873396425072600,7.38307275390625,8.62391471862793,0.7110779285430908,-0.8738836050033569
1732873396435052000,7.393052001953125,9.569623947143555,0.9768342971801758,-0.7445967197418213
1732873396445062000,7.403061767578125,10.132261276245117,1.0630255937576294,-0.8379706144332886
1732873396455071500,7.413071533203125,10.445901870727539,0.9792284965515137,-1.2330138683319092
1732873396465051000,7.42305078125,10.560823440551758,0.8906430602073669,-1.7046716213226318
1732873396475060500,7.433060546875,10.78348445892334,0.7972691655158997,-2.2433669567108154
1732873396485070300,7.4430703125,11.36048698425293,0.7254431247711182,-2.691082715988159
1732873396495049500,7.453049560546875,12.320562362670898,0.6919242739677429,-2.892195701599121
1732873396505059300,7.463059326171875,13.196839332580566,0.545877993106842,-2.8778305053710938
1732873396515069000,7.47306884765625,13.876792907714844,0.4165911078453064,-2.832340717315674
1732873396525048300,7.48304833984375,14.408306121826172,0.5602431893348694,-2.892195701599121
1732873396535058200,7.49305810546875,14.63814926147461,0.9097966551780701,-3.0142998695373535
1732873396545067800,7.50306787109375,14.714763641357422,1.4173674583435059,-2.9305028915405273
1732873396555047200,7.513047119140625,14.233529090881348,1.7525556087493896,-2.456450939178467
1732873396565057000,7.52305712890625,13.15853214263916,2.049436569213867,-1.7286136150360107
1732873396575066600,7.533066650390625,12.131420135498047,2.2002713680267334,-1.0199298858642578
1732873396585045800,7.543045654296875,10.857705116271973,2.3511061668395996,-0.33758243918418884
1732873396595055600,7.5530556640625,9.651026725769043,2.3104045391082764,0.2059013396501541
1732873396605065200,7.563065185546875,8.508993148803711,2.166752576828003,0.6488286852836609
1732873396615044600,7.573044677734375,7.781155586242676,1.946485996246338,0.871489405632019
1732873396625054500,7.583054443359375,7.338228225708008,1.7956513166427612,0.9289502501487732
1732873396635064000,7.59306396484375,7.050923824310303,1.6136919260025024,0.5027823448181152
1732873396645043500,7.60304345703125,7.177816867828369,1.434126853942871,0.1604115068912506
1732873396655053300,7.61305322265625,7.6997528076171875,1.0845733880996704,-0.10534487664699554
1732873396665063000,7.62306298828125,8.226476669311523,0.629675030708313,0.07900865375995636
1732873396675072800,7.63307275390625,8.671798706054688,0.2106897532939911,0.3663128614425659
1732873396685052000,7.643052001953125,8.822632789611816,-0.05506663769483566,0.6775590777397156
1732873396695061500,7.6530615234375,8.832210540771484,-0.19393034279346466,1.0247182846069336
1732873396705071400,7.6630712890625,8.712499618530273,-0.15562310814857483,1.2737152576446533
1732873396715050800,7.67305078125,8.51138687133789,-0.05985504388809204,1.0534487962722778
1732873396725060400,7.683060302734375,8.489839553833008,0.304063618183136,0.2537853717803955
1732873396735070200,7.6930703125,8.595184326171875,0.6057330369949341,-0.5506663918495178
1732873396745049600,7.703049560546875,8.825027465820312,0.8355764150619507,-1.173158884048462
1732873396755059500,7.7130595703125,8.892065048217773,1.0055646896362305,-1.3838485479354858
1732873396765069000,7.723069091796875,8.767566680908203,1.070208191871643,-1.3670891523361206
1732873396775048200,7.733048095703125,8.547300338745117,1.0462661981582642,-1.0342950820922852
1732873396785058000,7.74305810546875,7.960720539093018,0.9241618514060974,-0.6129156351089478
1732873396795067600,7.753067626953125,7.687781810760498,0.7805097699165344,-0.2777273952960968
1732873396805047000,7.763047119140625,7.85537576675415,0.6248866319656372,-0.23942017555236816
1732873396815057000,7.773056884765625,8.398859977722168,0.5171475410461426,-0.28969839215278625
1732873396825066500,7.78306640625,8.959102630615234,0.5267243981361389,-0.6105214357376099
1732873396835046000,7.7930458984375,9.583989143371582,0.7110779285430908,-0.8188169598579407
1732873396845055700,7.8030556640625,9.916783332824707,0.8906430602073669,-0.8236053586006165
1732873396855065300,7.8130654296875,9.909601211547852,1.113303780555725,-0.7445967197418213
1732873396865044700,7.823044677734375,9.272743225097656,1.1468225717544556,-0.8140285611152649
1732873396875054300,7.833054443359375,8.422801971435547,1.1779472827911377,-1.1540051698684692
1732873396885064200,7.843064208984375,7.905653953552246,1.173158884048462,-1.702277421951294
1732873396895043300,7.853043212890625,8.255207061767578,1.0079588890075684,-1.9800047874450684
1732873396905053200,7.86305322265625,9.081207275390625,0.768538773059845,-1.7334020137786865
1732873396915062800,7.873062744140625,10.268731117248535,0.5291185975074768,-1.2282254695892334
1732873396925072600,7.88307275390625,11.480196952819824,0.3423708379268646,-0.4836287498474121
1732873396935052000,7.893052001953125,12.385205268859863,0.2059013396501541,0.3663128614425659
1732873396945061600,7.9030615234375,12.521675109863281,0.1604115068912506,0.7876923680305481
1732873396955071500,7.913071533203125,12.014103889465332,0.2849099934101105,0.8643068075180054
1732873396965051000,7.92305078125,11.197681427001953,0.5961562395095825,0.7972691655158997
1732873396975060500,7.933060546875,10.110713958740234,0.8427590131759644,0.5195417404174805
1732873396985070300,7.9430703125,9.289502143859863,1.094150185585022,0.2298433631658554
1732873396995049500,7.953049560546875,9.196128845214844,1.1827356815338135,0.21547815203666687
1732873397005059300,7.963059326171875,9.469067573547363,1.0630255937576294,0.272938996553421
1732873397015069000,7.97306884765625,10.132261276245117,0.912190854549408,0.3447650372982025
1732873397025048300,7.98304833984375,11.137825965881348,0.7230489253997803,0.5410895943641663
1732873397035058200,7.99305810546875,11.772290229797363,0.5626373887062073,0.7637503147125244
1732873397045067800,8.00306787109375,12.138602256774902,0.4357447028160095,0.7972691655158997
1732873397055047200,8.013047119140625,12.263101577758789,0.47884035110473633,0.5937620401382446
1732873397065057000,8.02305712890625,12.246341705322266,0.5722141861915588,0.33279404044151306
1732873397075066600,8.033066650390625,12.02607536315918,0.7015010714530945,-0.026336219161748886
1732873397085045800,8.043045654296876,11.815385818481445,0.8355764150619507,-0.2992752194404602
1732873397095055600,8.0530556640625,11.314997673034668,0.9888052940368652,-0.4836287498474121
1732873397105065200,8.063065185546876,10.577583312988281,1.1516109704971313,-0.7038952708244324
1732873397115044600,8.073044677734375,9.93354320526123,1.2856862545013428,-0.727837324142456
1732873397125054500,8.083054443359375,9.459490776062012,1.3000515699386597,-0.5195417404174805
1732873397135064300,8.093064208984375,8.937555313110352,1.259350061416626,-0.11971008777618408
1732873397145043500,8.10304345703125,8.741230010986328,1.235408067703247,0.1604115068912506
1732873397155053300,8.11305322265625,8.829815864562988,1.1492167711257935,0.40940847992897034
1732873397165063200,8.123063232421876,8.791508674621582,1.0965443849563599,0.49799394607543945
1732873397175072800,8.13307275390625,8.899248123168945,1.0678139925003052,0.3878606855869293
1732873397185052000,8.143052001953125,8.884882926940918,1.0127472877502441,0.17238251864910126
1732873397195061500,8.1530615234375,8.702922821044922,0.9002198576927185,0.004788403399288654
1732873397205071400,8.1630712890625,8.487444877624512,0.8092401623725891,0.019153613597154617
1732873397215050800,8.17305078125,8.202534675598145,0.7613561153411865,-0.0694318488240242
1732873397225060600,8.183060546875,8.56645393371582,0.608127236366272,0.06703764945268631
1732873397235070200,8.1930703125,8.96389102935791,0.40701428055763245,0.3878606855869293
1732873397245049600,8.203049560546875,9.320627212524414,0.090979665517807,0.8092401623725891
1732873397255059200,8.21305908203125,9.50498104095459,-0.06703764945268631,1.161187767982483
1732873397265069000,8.223069091796875,9.502586364746094,-0.12449848651885986,1.3024457693099976
1732873397275048200,8.233048095703126,9.251194953918457,-0.11252748221158981,1.094150185585022
1732873397285058000,8.24305810546875,9.081207275390625,0.05027823522686958,0.7469909191131592
1732873397295067600,8.253067626953126,8.923190116882324,0.3232172429561615,0.35913026332855225
1732873397305047000,8.263047119140625,8.789113998413086,0.507570743560791,0.2106897532939911
1732873397315056600,8.273056640625,8.252813339233398,0.6655880808830261,0.21547815203666687
1732873397325066500,8.28306640625,7.876923561096191,0.6631938815116882,0.07422025501728058
1732873397335046000,8.2930458984375,8.844181060791016,0.4189853072166443,0.21547815203666687
1732873397345055700,8.3030556640625,9.636661529541016,-0.07661445438861847,0.6727706789970398
1732873397355065300,8.3130654296875,10.299856185913086,-0.8786720037460327,1.4053963422775269
1732873397365044700,8.323044677734375,10.448296546936035,-1.173158884048462,1.4293384552001953
1732873397375054300,8.333054443359375,10.002974510192871,-1.1468225717544556,0.8236053586006165
1732873397385064200,8.343064208984375,9.028534889221191,-0.4836287498474121,0.1867477297782898
1732873397395043300,8.353043212890626,7.90086555480957,0.033518824726343155,-0.06464344263076782
1732873397405053200,8.36305322265625,7.041347026824951,0.2944868206977844,-0.933738648891449
1732873397415063000,8.37306298828125,7.436390399932861,0.7996633648872375,-1.455674648284912
1732873397425072600,8.38307275390625,8.066065788269043,1.1755530834197998,-1.1420341730117798
1732873397435052000,8.393052001953125,8.202534675598145,1.278503656387329,-0.9576807022094727
1732873397445062000,8.403061767578125,8.47786808013916,1.0606313943862915,-0.6320692300796509
1732873397455071500,8.413071533203125,8.621520042419434,0.6488286852836609,-0.304063618183136
1732873397465051000,8.42305078125,8.635885238647461,0.05746084079146385,0.08379705995321274
1732873397475060700,8.433060791015626,8.753201484680176,-0.3711012601852417,0.27054479718208313
1732873397485070300,8.4430703125,9.627084732055664,-0.2346317619085312,0.08858546614646912
1732873397495049500,8.453049560546875,10.04846477508545,-0.17238251864910126,-0.2585737705230713
1732873397505059300,8.463059326171875,10.706870079040527,0.014365210197865963,-0.5746083855628967
1732873397515069000,8.47306884765625,11.314997673034668,0.5386953949928284,-0.8020575642585754
1732873397525048300,8.48304833984375,11.690886497497559,1.0079588890075684,-1.036689281463623
1732873397535058200,8.49305810546875,11.690886497497559,1.4628572463989258,-1.3431471586227417
1732873397545067800,8.50306787109375,11.549629211425781,1.7860745191574097,-1.4676456451416016
1732873397555047200,8.513047119140625,11.281478881835938,1.7334020137786865,-1.534683346748352
1732873397565057000,8.52305712890625,10.970232009887695,1.2856862545013428,-1.335964560508728
1732873397575066600,8.533066650390625,10.84094524383545,0.6129156351089478,-0.9241618514060974
1732873397585045800,8.543045654296876,10.924742698669434,0.05985504388809204,-0.8236053586006165
1732873397595055600,8.5530556640625,11.037269592285156,-0.040701430290937424,-1.8052281141281128
1732873397605065200,8.563065185546876,11.456254959106445,-0.16998831927776337,-2.2361843585968018
1732873397615044600,8.573044677734375,12.665327072143555,-0.1388636976480484,-2.4205379486083984
1732873397625054500,8.583054443359375,13.5870943069458,-0.12689268589019775,-2.5737667083740234
1732873397635064000,8.59306396484375,13.783419609069824,-0.06224924325942993,-2.3965959548950195
1732873397645043500,8.60304345703125,13.654131889343262,0.22744916379451752,-2.1499931812286377
1732873397655053300,8.61305322265625,13.218387603759766,0.5123591423034668,-1.867477297782898
1732873397665063000,8.62306298828125,12.447454452514648,0.849941611289978,-1.5418659448623657
1732873397675072800,8.63307275390625,11.863269805908203,1.0103530883789062,-0.8906430602073669
1732873397685052000,8.643052001953125,10.939107894897461,0.8762778043746948,-0.5291185975074768
1732873397695061500,8.6530615234375,10.079588890075684,0.7493851184844971,0.0071826050989329815
1732873397705071400,8.6630712890625,9.739612579345703,0.33518823981285095,0.7398083209991455
1732873397715050800,8.67305078125,9.038111686706543,-0.2298433631658554,1.6615760326385498
1732873397725060400,8.683060302734376,8.324639320373535,-0.646434485912323,1.9177556037902832
1732873397735070200,8.6930703125,8.04691219329834,-1.0342950820922852,2.406172752380371
1732873397745049600,8.703049560546875,7.8098859786987305,-1.4460978507995605,2.432508945465088
1732873397755059500,8.7130595703125,7.771578788757324,-1.5275006294250488,2.1164743900299072
1732873397765069000,8.723069091796875,8.032546997070312,-1.4437036514282227,1.7477672100067139
1732873397775048200,8.733048095703126,8.312667846679688,-1.2258312702178955,1.0558429956436157
1732873397785058000,8.74305810546875,8.53532886505127,-0.9409212470054626,0.49320554733276367
1732873397795067600,8.753067626953126,8.537723541259766,-0.646434485912323,0.011971008032560349
1732873397805047000,8.763047119140625,8.51138687133789,-0.44771572947502136,-0.1628057211637497
1732873397815057000,8.773056884765625,8.571242332458496,-0.26336219906806946,-0.2513911724090576
1732873397825066500,8.78306640625,8.860940933227539,-0.07182604819536209,-0.33279404044151306
1732873397835046000,8.7930458984375,9.01895809173584,0.1628057211637497,-0.5770025849342346
1732873397845055700,8.8030556640625,8.597578048706055,0.6991068720817566,-1.2832920551300049
1732873397855065300,8.8130654296875,8.463502883911133,1.0797849893569946,-2.2242133617401123
1732873397865044700,8.823044677734375,8.798690795898438,1.1827356815338135,-2.7030537128448486
1732873397875054300,8.833054443359375,9.387664794921875,0.9672574996948242,-2.4205379486083984
1732873397885064200,8.843064208984375,9.780313491821289,0.45010992884635925,-1.721431016921997
1732873397895043300,8.853043212890626,9.679757118225098,-0.12449848651885986,-0.9911994934082031
1732873397905053200,8.86305322265625,9.186552047729492,-0.6224924325942993,-0.2561795711517334
1732873397915062800,8.873062744140626,8.755595207214355,-0.9600749015808105,0.26336219906806946
1732873397925072600,8.88307275390625,8.255207061767578,-1.0821791887283325,0.4189853072166443
1732873397935052000,8.893052001953125,8.130708694458008,-1.0247182846069336,0.3447650372982025
1732873397945061600,8.9030615234375,8.061277389526367,-0.9026140570640564,-0.2059013396501541
1732873397955071500,8.913071533203125,8.339004516601562,-0.4908113479614258,-1.278503656387329
1732873397965042200,8.923042236328126,9.10993766784668,0.18914192914962769,-2.9161376953125
1732873397975051800,8.9330517578125,9.84256362915039,0.6871358752250671,-3.936067581176758
1732873397985061600,8.9430615234375,10.613495826721191,0.6631938815116882,-3.794809579849243
1732873397995040800,8.953040771484375,11.396400451660156,0.5482721924781799,-3.313575267791748
1732873398005050600,8.963050537109375,11.295844078063965,0.608127236366272,-2.8395233154296875
1732873398015060200,8.973060302734375,11.061211585998535,0.790086567401886,-2.5737667083740234
1732873398025039600,8.98303955078125,10.884040832519531,0.7589619159698486,-1.8818424940109253
1732873398035049500,8.993049560546876,10.606313705444336,0.6655880808830261,-0.7422025203704834
1732873398045059000,9.00305908203125,10.60391902923584,0.8786720037460327,0.047884032130241394
1732873398055038500,9.01303857421875,10.472238540649414,1.2641384601593018,0.24899697303771973
1732873398065048300,9.02304833984375,10.0580415725708,1.5538369417190552,-0.07900865375995636
1732873398075058000,9.033057861328125,9.560047149658203,1.8555063009262085,-0.8140285611152649
1732873398085037000,9.043037109375,9.064447402954102,2.1356279850006104,-1.721431016921997
1732873398094617900,9.052617919921875,9.193734169006348,2.099714994430542,-2.0901381969451904
1732873398105056500,9.063056396484376,9.765948295593262,1.5873557329177856,-1.2042834758758545
1732873398115036000,9.073035888671875,10.781089782714844,0.9481038451194763,-0.10534487664699554
1732873398125045800,9.083045654296875,11.765107154846191,0.4405331015586853,0.8379706144332886
1732873398135055600,9.0930556640625,12.557587623596191,0.16759411990642548,1.4245500564575195
1732873398145034800,9.10303466796875,13.376404762268066,0.014365210197865963,1.721431016921997
1732873398155044600,9.113044677734376,13.199234008789062,-0.05746084079146385,1.7357962131500244
1732873398165054500,9.123054443359376,12.629413604736328,-0.05985504388809204,1.4915876388549805
1732873398175064000,9.13306396484375,11.942277908325195,0.10295066982507706,1.1180921792984009
1732873398185043200,9.143043212890625,11.195286750793457,0.28969839215278625,0.6584054827690125
1732873398195053000,9.153052978515625,10.108319282531738,0.4812345504760742,0.038307227194309235
1732873398205062700,9.163062744140625,9.172186851501465,0.7757213711738586,-0.3232172429561615
1732873398215042000,9.1730419921875,8.542511940002441,0.9720458984375,-0.3663128614425659
1732873398225052000,9.183052001953126,8.176198959350586,0.8475474119186401,0.1149216815829277
1732873398235061500,9.1930615234375,7.884106159210205,0.6057330369949341,0.9552865028381348
1732873398245041000,9.203041015625,8.003816604614258,0.608127236366272,0.9864110946655273
1732873398255050800,9.21305078125,8.339004516601562,0.6607996821403503,0.7661445140838623
1732873398265060400,9.223060302734375,8.743624687194824,0.6607996821403503,0.6105214357376099
1732873398275039500,9.23303955078125,8.990227699279785,0.7110779285430908,0.3471592366695404
1732873398285049300,9.24304931640625,8.89445972442627,1.0295066833496094,-0.18914192914962769
1732873398295376600,9.253376708984375,8.753201484680176,1.2952631711959839,-0.2513911724090576
1732873398305068800,9.26306884765625,8.681375503540039,1.3958195447921753,0.09816227108240128
1732873398315048200,9.273048095703125,8.473079681396484,1.3623007535934448,0.35913026332855225
1732873398325057800,9.283057861328125,8.56884765625,1.280897855758667,0.5937620401382446
1732873398335037200,9.293037109375,8.798690795898438,1.1444283723831177,0.629675030708313
1732873398345047000,9.303047119140626,9.131484985351562,1.158793568611145,0.19393034279346466
1732873398355056600,9.313056640625,9.516951560974121,1.0893617868423462,-0.40940847992897034
1732873398365035800,9.323035888671875,10.220847129821777,0.7948749661445618,-0.3064578175544739
1732873398375045600,9.333045654296875,10.94150161743164,0.3926490843296051,0.3902548849582672
1732873398385055500,9.343055419921875,11.257535934448242,0.1628057211637497,0.7781155705451965
1732873398395034600,9.35303466796875,10.979808807373047,0.22026655077934265,0.7230489253997803
1732873398405044500,9.36304443359375,10.409989356994629,0.22505496442317963,0.49799394607543945
1732873398415054300,9.373054443359376,9.832986831665039,0.19871874153614044,0.40222588181495667
1732873398425064000,9.38306396484375,9.512163162231445,0.4884171485900879,0.13168109953403473
1732873398435043300,9.393043212890625,9.435548782348633,0.569819986820221,-0.31364041566848755
1732873398445053200,9.40305322265625,9.548076629638672,0.4405331015586853,-0.4165911078453064
1732873398455062800,9.413062744140625,9.787496566772461,0.20350714027881622,-0.4405331015586853
1732873398465042200,9.423042236328126,10.156203269958496,0.1412578970193863,-0.3974374830722809
1732873398475051800,9.4330517578125,10.326191902160645,0.17956513166427612,-0.33279404044151306
1732873398485061600,9.4430615234375,9.823410034179688,0.21547815203666687,-0.4381389021873474
1732873398495040800,9.453040771484375,9.059659004211426,0.4620809257030487,-0.8738836050033569
1732873398505050600,9.463050537109375,8.147468566894531,0.6799532771110535,-1.292868971824646
1732873398515060200,9.473060302734375,7.438784599304199,0.8164227604866028,-1.2330138683319092
1732873398525039600,9.48303955078125,7.053318023681641,0.7158663272857666,-1.039083480834961
1732873398535049500,9.493049560546876,7.314286231994629,0.6033388376235962,-0.2106897532939911
1732873398545059000,9.50305908203125,8.279149055480957,0.2585737705230713,0.7206547260284424
1732873398555038500,9.51303857421875,9.552865028381348,-0.10773907601833344,1.522712230682373
1732873398565048300,9.52304833984375,10.63504409790039,-0.24899697303771973,2.0590133666992188
1732873398575058000,9.533057861328125,11.238382339477539,-0.17477671802043915,2.231395959854126
1732873398585037000,9.543037109375,11.365275382995605,0.090979665517807,2.276885747909546
1732873398595047000,9.553046875,10.584765434265137,0.5410895943641663,1.778891921043396
1732873398605056500,9.563056396484376,9.277531623840332,1.0821791887283325,0.9433154463768005
1732873398615036000,9.573035888671875,7.7428483963012695,1.6519991159439087,-0.1628057211637497
1732873398625045800,9.583045654296875,7.017405033111572,1.9632453918457031,-0.9528923034667969
1732873398635055400,9.593055419921875,6.6127848625183105,2.1595699787139893,-1.3311761617660522
1732873398645034800,9.60303466796875,6.672640323638916,2.164358377456665,-1.4077905416488647
1732873398655044600,9.613044677734376,7.436390399932861,1.778891921043396,-1.4101848602294922
1732873398665054200,9.62305419921875,8.645462036132812,1.3024457693099976,-1.137245774269104
1732873398675064000,9.63306396484375,10.144232749938965,0.8451532125473022,-0.9959878921508789
1732873398685043200,9.643043212890625,11.314997673034668,0.6248866319656372,-1.072602391242981
1732873398695052800,9.653052734375,12.686874389648438,0.5027823448181152,-0.7613561153411865
1732873398705062700,9.663062744140625,13.989320755004883,0.35913026332855225,-0.19153612852096558
1732873398715042000,9.6730419921875,14.659696578979492,0.35434186458587646,0.19871874153614044
1732873398725051600,9.6830517578125,14.372392654418945,0.5147533416748047,0.4429273009300232
1732873398735061500,9.6930615234375,13.582305908203125,0.706289529800415,0.4381389021873474
1732873398745041000,9.703041015625,12.45463752746582,0.6943184733390808,0.42616790533065796
1732873398755050800,9.71305078125,11.444284439086914,0.6919242739677429,0.45489832758903503
1732873398765060400,9.723060302734375,10.699687004089355,0.5315127968788147,0.3998316824436188
1732873398775039500,9.73303955078125,10.230423927307129,0.40462008118629456,0.1628057211637497
1732873398785049300,9.74304931640625,9.684545516967773,0.35913026332855225,-0.31603461503982544
1732873398795059000,9.753058837890626,9.222464561462402,0.3687070608139038,-0.7445967197418213
1732873398805038300,9.763038330078125,8.808267593383789,0.395043283700943,-1.0534487962722778
1732873398815048200,9.773048095703125,8.504204750061035,0.22266076505184174,-1.436521053314209
1732873398825057800,9.783057861328125,8.288725852966309,0.05506663769483566,-1.6711528301239014
1732873398835037200,9.793037109375,8.037335395812988,-0.0694318488240242,-1.7477672100067139
1732873398845047000,9.803047119140626,8.068459510803223,-0.0933738648891449,-1.6184803247451782
1732873398855056600,9.813056640625,8.317456245422363,-0.031124621629714966,-1.3263877630233765
1732873398865036000,9.8230361328125,8.425195693969727,-0.05746084079146385,-1.091755986213684
1732873398875045600,9.833045654296875,8.83939266204834,-0.21787235140800476,-0.6392518281936646
1732873398885055500,9.843055419921875,9.476250648498535,-0.3998316824436188,-0.09816227108240128
1732873398895034600,9.85303466796875,10.232817649841309,-0.6775590777397156,0.3256114423274994
1732873398905044500,9.86304443359375,10.812214851379395,-0.7948749661445618,0.3256114423274994
1732873398915054000,9.87305419921875,11.305420875549316,-0.8307880163192749,0.23702596127986908
1732873398925064000,9.88306396484375,11.561599731445312,-0.8643068075180054,0.2106897532939911
1732873398935043300,9.893043212890625,11.513715744018555,-0.9528923034667969,0.17717093229293823
1732873398945053000,9.903052978515625,11.125855445861816,-0.7469909191131592,-0.40462008118629456
1732873398955062800,9.913062744140625,10.627861022949219,-0.42856210470199585,-0.7805097699165344
1732873398965042200,9.923042236328126,9.945513725280762,-0.15562310814857483,-1.1348515748977661
1732873398975051800,9.9330517578125,9.32541561126709,0.047884032130241394,-1.5753847360610962
1732873398985061600,9.9430615234375,8.980650901794434,0.1412578970193863,-1.6496049165725708
1732873398995040800,9.953040771484375,8.954314231872559,-0.0694318488240242,-1.338358759880066
1732873399005050600,9.963050537109375,9.23682975769043,-0.4118026793003082,-1.1683704853057861
1732873399015060200,9.973060302734375,9.888052940368652,-0.6775590777397156,-0.9648633003234863
1732873399025039600,9.98303955078125,10.953473091125488,-0.9026140570640564,-0.5913678407669067
1732873399035049500,9.993049560546876,11.927912712097168,-1.0606313943862915,-0.17956513166427612
1732873399045059000,10.00305908203125,12.373234748840332,-1.01753568649292,0.21547815203666687
1732873399055038500,10.01303857421875,12.196063041687012,-0.7589619159698486,0.545877993106842
1732873399065048300,10.02304833984375,11.525687217712402,-0.17956513166427612,0.5123591423034668
1732873399075058000,10.033057861328125,10.608707427978516,0.6129156351089478,-0.06464344263076782
1732873399085037000,10.043037109375,9.682151794433594,1.3958195447921753,-0.6847416758537292
1732873399095047000,10.053046875,8.743624687194824,2.123656988143921,-0.9696516990661621
1732873399105056500,10.063056396484376,8.14028549194336,2.451662540435791,-0.9792284965515137
1732873399115036000,10.073035888671875,8.001421928405762,2.4420857429504395,-0.47644615173339844
1732873399125045800,10.083045654296875,8.269572257995605,2.118868589401245,0.18914192914962769
1732873399135055600,10.0930556640625,8.916007041931152,1.5179238319396973,1.0582371950149536
1732873399145034800,10.10303466796875,9.289502143859863,1.0055646896362305,1.680729627609253
1732873399155044600,10.113044677734376,9.423578262329102,0.5889736413955688,1.8602946996688843
1732873399165054500,10.123054443359376,9.493009567260742,0.3998316824436188,1.6639702320098877
1732873399175064000,10.13306396484375,9.703699111938477,0.4357447028160095,1.1420341730117798
1732873399185043200,10.143043212890625,10.002974510192871,0.706289529800415,0.4405331015586853
1732873399195053000,10.153052978515625,10.304644584655762,0.9050082564353943,0.1628057211637497
1732873399205062700,10.163062744140625,10.436325073242188,0.8140285611152649,0.19632454216480255
1732873399215042000,10.1730419921875,10.462661743164062,0.7182605266571045,0.29209262132644653
1732873399225052000,10.183052001953126,10.412383079528809,0.6488286852836609,0.2537853717803955
1732873399235061500,10.1930615234375,10.307038307189941,0.48602294921875,0.2513911724090576
1732873399245041000,10.203041015625,10.189722061157227,0.2777273952960968,0.3926490843296051
1732873399255050800,10.21305078125,9.981427192687988,0.17238251864910126,0.45489832758903503
1732873399265060400,10.223060302734375,9.768342971801758,0.09576806426048279,0.4668693244457245
1732873399275039500,10.23303955078125,9.548076629638672,0.06224924325942993,0.5674257874488831
1732873399285049000,10.243049072265626,9.21288776397705,0.20350714027881622,0.3016694188117981
1732873399295059000,10.253058837890626,8.631096839904785,0.42377370595932007,-0.20111294090747833
1732873399305038300,10.263038330078125,8.176198959350586,0.4812345504760742,-0.6033388376235962
1732873399315048200,10.273048095703125,7.90086555480957,0.5410895943641663,-0.7230489253997803
1732873399325057800,10.283057861328125,7.843404769897461,0.5315127968788147,-0.706289529800415
1732873399335037200,10.293037109375,7.826645374298096,0.5171475410461426,-0.7398083209991455
1732873399345046800,10.303046875,8.212111473083496,0.4596867263317108,-0.7015010714530945
1732873399355056600,10.313056640625,9.119514465332031,0.3208230137825012,-0.4141969084739685
1732873399365036000,10.3230361328125,9.847352027893066,0.11252748221158981,-0.07422025501728058
1732873399375045600,10.333045654296875,10.235212326049805,0.004788403399288654,0.12449848651885986
1732873399385055500,10.343055419921875,10.515334129333496,-0.22505496442317963,0.33997663855552673
1732873399395034600,10.35303466796875,10.656591415405273,-0.3471592366695404,0.3256114423274994
1732873399405044500,10.36304443359375,10.759542465209961,-0.3471592366695404,0.023942016065120697
1732873399415054300,10.373054443359376,10.967838287353516,-0.27054479718208313,-0.38307225704193115
1732873399425064000,10.38306396484375,11.319786071777344,-0.2777273952960968,-0.545877993106842
1732873399435043300,10.393043212890625,11.592724800109863,-0.2298433631658554,-0.507570743560791
1732873399445053200,10.40305322265625,11.281478881835938,-0.10055647045373917,-0.3495534360408783
1732873399455062800,10.413062744140625,10.620678901672363,-0.06703764945268631,-0.11013327538967133
1732873399465042200,10.423042236328126,9.856928825378418,-0.06224924325942993,0.33039984107017517
1732873399475052000,10.433052001953126,9.035717010498047,-0.10534487664699554,0.768538773059845
1732873399485061600,10.4430615234375,8.621520042419434,-0.17477671802043915,1.3263877630233765
1732873399495040800,10.453040771484375,8.051700592041016,-0.2537853717803955,1.6328455209732056
1732873399505050600,10.463050537109375,7.613561630249023,-0.2753331959247589,1.5131354331970215
1732873399515060200,10.473060302734375,7.553706169128418,-0.13168109953403473,0.8451532125473022
1732873399525039600,10.48303955078125,7.812280178070068,0.10773907601833344,0
1732873399535049500,10.493049560546876,8.528146743774414,0.2346317619085312,-0.6847416758537292
1732873399545059000,10.50305908203125,9.306262016296387,0.1628057211637497,-1.0414776802062988
1732873399555038500,10.51303857421875,10.405200958251953,0.19871874153614044,-1.580173134803772
1732873399565048300,10.52304833984375,11.243170738220215,0.395043283700943,-1.889025092124939
1732873399575058000,10.533057861328125,11.439496040344238,0.6248866319656372,-2.073378562927246
1732873399585037000,10.543037109375,11.23598861694336,0.8451532125473022,-1.8267759084701538
1732873399595047000,10.553046875,10.690110206604004,0.8571242094039917,-1.41257905960083
1732873399605056500,10.563056396484376,9.95748519897461,0.8978256583213806,-1.237802267074585
1732873399615036000,10.573035888671875,9.861717224121094,0.9983820915222168,-1.173158884048462
1732873399625045800,10.583045654296875,10.223240852355957,1.015141487121582,-1.1635819673538208
1732873399635055400,10.593055419921875,10.690110206604004,1.072602391242981,-1.2306196689605713
1732873399645034800,10.60303466796875,11.113883972167969,1.1899182796478271,-1.4101848602294922
1732873399655044600,10.613044677734376,11.446678161621094,1.094150185585022,-1.37906014919281
1732873399665054200,10.62305419921875,11.834539413452148,0.9888052940368652,-1.4269442558288574
1732873399675064000,10.63306396484375,12.069170951843262,0.8619126081466675,-1.4221558570861816
1732873399685043200,10.643043212890625,12.224793434143066,0.6727706789970398,-1.5179238319396973
1732873399695052800,10.653052734375,12.344504356384277,0.4812345504760742,-1.381454348564148
1732873399705062700,10.663062744140625,12.2990140914917,0.30885201692581177,-1.115697979927063
1732873399715042000,10.6730419921875,11.908759117126465,0.17717093229293823,-0.9169792532920837
1732873399725051600,10.6830517578125,11.525687217712402,0.14365209639072418,-0.811634361743927
1732873399735061500,10.6930615234375,11.111490249633789,0.090979665517807,-0.6368576288223267
1732873399745041000,10.703041015625,10.496180534362793,-0.004788403399288654,-0.3926490843296051
1732873399755050800,10.71305078125,9.708487510681152,-0.040701430290937424,-0.27054479718208313
1732873399765060400,10.723060302734375,9.002198219299316,-0.047884032130241394,-0.3064578175544739
1732873399775039500,10.73303955078125,8.281543731689453,-0.05267243832349777,-0.4572925269603729
1732873399785049300,10.74304931640625,7.862558364868164,0.035913024097681046,-0.9026140570640564
1732873399795059000,10.753058837890626,7.601590633392334,0.13407529890537262,-1.5298948287963867
1732873399805038300,10.763038330078125,7.38132381439209,0.1628057211637497,-1.9991583824157715
1732873399815048200,10.773048095703125,7.261613845825195,0.16998831927776337,-2.1715409755706787
1732873399825057800,10.783057861328125,7.218518257141113,0.1843535304069519,-2.27209734916687
1732873399835037200,10.793037109375,7.3238630294799805,0.363918662071228,-2.2697031497955322
1732873399845047000,10.803047119140626,7.740454196929932,0.5219359993934631,-2.1499931812286377
1732873399855056600,10.813056640625,8.08043098449707,0.5363011956214905,-2.0254945755004883
1732873399865036000,10.8230361328125,8.616731643676758,0.47884035110473633,-1.7693150043487549
1732873399875045600,10.833045654296875,9.188945770263672,0.3687070608139038,-1.280897855758667
1732873399885055500,10.843055419921875,9.581595420837402,0.12689268589019775,-0.6536170840263367
1732873399895035000,10.853034912109376,9.703699111938477,0.023942016065120697,-0.3256114423274994
1732873399905044500,10.86304443359375,9.473855972290039,-0.014365210197865963,-0.3423708379268646
1732873399915054000,10.87305419921875,9.294290542602539,-0.08858546614646912,-0.5913678407669067
1732873399925064000,10.88306396484375,9.440337181091309,-0.1843535304069519,-1.0223240852355957
1732873399935043300,10.893043212890625,9.66299819946289,-0.3016694188117981,-1.2880805730819702
1732873399945053000,10.903052978515625,10.02691650390625,-0.5123591423034668,-1.3910311460494995
1732873399955062800,10.913062744140625,10.678139686584473,-0.629675030708313,-1.5442601442337036
1732873399965042200,10.923042236328126,11.231200218200684,-0.5770025849342346,-1.6065093278884888
1732873399975051800,10.9330517578125,11.530475616455078,-0.5482721924781799,-1.434126853942871
1732873399985061600,10.9430615234375,11.365275382995605,-0.5937620401382446,-1.2042834758758545
1732873399995040800,10.953040771484375,10.857705116271973,-0.608127236366272,-0.871489405632019
1732873400005050600,10.963050537109375,10.24239444732666,-0.5147533416748047,-0.6703764796257019
1732873400015060200,10.973060302734375,9.363722801208496,-0.2944868206977844,-0.7110779285430908
1732873400025039600,10.98303955078125,8.738836288452148,-0.038307227194309235,-0.9217676520347595
1732873400035049500,10.993049560546876,8.434772491455078,0.28730419278144836,-1.113303780555725
1732873400045059000,11.00305908203125,8.233659744262695,0.6512228846549988,-1.4197616577148438
1732873400055038500,11.01303857421875,8.08043098449707,0.7948749661445618,-1.5490485429763794
1732873400065048300,11.02304833984375,8.010998725891113,0.8523358106613159,-1.4413094520568848
1732873400075058000,11.033057861328125,7.982268333435059,0.7876923680305481,-1.3694833517074585
1732873400085037000,11.043037109375,8.271966934204102,0.646434485912323,-1.1204863786697388
1732873400095047000,11.053046875,8.932766914367676,0.545877993106842,-0.8451532125473022
1732873400105056500,11.063056396484376,9.710882186889648,0.3447650372982025,-0.2059013396501541
1732873400115036000,11.073035888671875,10.201693534851074,0.2992752194404602,0.42616790533065796
1732873400125045800,11.083045654296875,10.668562889099121,0.5195417404174805,0.8595184087753296
1732873400135055600,11.0930556640625,11.0300874710083,0.933738648891449,1.0055646896362305
1732873400145034800,11.10303466796875,11.219228744506836,1.2713210582733154,1.0223240852355957
1732873400155044600,11.113044677734376,11.33654499053955,1.623268723487854,0.7086837291717529
1732873400165054500,11.123054443359376,11.35809326171875,1.9057846069335938,0.2346317619085312
1732873400175064000,11.13306396484375,11.724405288696289,1.9488801956176758,-0.11971008777618408
1732873400185043200,11.143043212890625,12.504915237426758,1.8052281141281128,0.07182604819536209
1732873400195053000,11.153052978515625,13.160926818847656,1.3431471586227417,0.849941611289978
1732873400205062700,11.163062744140625,13.630189895629883,0.8786720037460327,1.580173134803772
1732873400215042000,11.1730419921875,14.051569938659668,0.5889736413955688,2.4660277366638184
1732873400225052000,11.183052001953126,13.761871337890625,0.5123591423034668,2.9448680877685547
1732873400235061500,11.1930615234375,12.655750274658203,0.6703764796257019,2.9735984802246094
1732873400245041000,11.203041015625,11.288661003112793,0.9050082564353943,2.477998733520508
1732873400255050500,11.213050537109375,10.019734382629395,0.9792284965515137,2.1715409755706787
1732873400265060400,11.223060302734375,8.760383605957031,1.1803414821624756,1.7621324062347412
1732873400275039500,11.23303955078125,7.319074630737305,1.4939818382263184,0.7254431247711182
1732873400285049300,11.24304931640625,6.210559368133545,2.166752576828003,-1.1013327836990356
1732873400295059000,11.253058837890626,5.928043365478516,2.7940332889556885,-2.6024973392486572
1732873400305038300,11.263038330078125,5.959167957305908,3.2776620388031006,-3.778050184249878
1732873400315048200,11.273048095703125,6.342240333557129,3.2321722507476807,-3.7493197917938232
1732873400325057800,11.283057861328125,6.914454460144043,2.5450363159179688,-2.365471363067627
1732873400335037200,11.293037109375,7.642292022705078,1.580173134803772,-0.7829039692878723
1732873400345047000,11.303047119140626,8.671798706054688,0.7781155705451965,0.6272808313369751
1732873400355056600,11.313056640625,9.782708168029785,0.304063618183136,1.3120225667953491
1732873400365036000,11.3230361328125,10.400412559509277,-0.009576806798577309,1.534683346748352
1732873400375045600,11.333045654296875,10.623072624206543,-0.11252748221158981,1.4389152526855469
1732873400385055500,11.343055419921875,10.457873344421387,0.10773907601833344,0.8834604024887085
1732873400395034600,11.35303466796875,10.053253173828125,0.3663128614425659,0.24181437492370605
1732873400405044500,11.36304443359375,9.557653427124023,0.507570743560791,-0.08140286058187485
1732873400415054300,11.373054443359376,9.239224433898926,0.7469909191131592,-0.33279404044151306
1732873400425064000,11.38306396484375,8.9064302444458,0.9911994934082031,-0.6344634294509888
1732873400435043300,11.393043212890625,8.69095230102539,1.0893617868423462,-0.689530074596405
1732873400445053000,11.403052978515625,8.762778282165527,1.1252747774124146,-0.586579442024231
1732873400455062800,11.413062744140625,8.999804496765137,1.0007762908935547,-0.3926490843296051
1732873400465042200,11.423042236328126,9.258378028869629,0.7565677165985107,-0.040701430290937424
1732873400475051800,11.4330517578125,9.466673851013184,0.6344634294509888,0.031124621629714966
1732873400485061600,11.4430615234375,9.830592155456543,0.5793967843055725,0.0071826050989329815
1732873400495040800,11.453040771484375,10.012551307678223,0.5291185975074768,0.0071826050989329815
1732873400505050600,11.463050537109375,9.981427192687988,0.5674257874488831,0.0933738648891449
1732873400515060200,11.473060302734375,9.75637149810791,0.5961562395095825,0.043095629662275314
1732873400525039600,11.48303955078125,9.428366661071777,0.689530074596405,0.07182604819536209
1732873400535049200,11.49304931640625,9.167398452758789,0.790086567401886,0.1412578970193863
1732873400545059000,11.50305908203125,8.87291145324707,0.9600749015808105,0.10295066982507706
1732873400555038500,11.51303857421875,8.571242332458496,1.091755986213684,0.026336219161748886
1732873400565048300,11.52304833984375,8.293514251708984,1.0797849893569946,-0.07900865375995636
1732873400575058000,11.533057861328125,8.259995460510254,0.9265560507774353,-0.28730419278144836
1732873400585037000,11.543037109375,8.470685958862305,0.7134721279144287,-0.4620809257030487
1732873400595047000,11.553046875,9.07641887664795,0.4596867263317108,-0.5386953949928284
1732873400605056500,11.563056396484376,9.818621635437012,0.20111294090747833,-0.3758896589279175
1732873400615036000,11.573035888671875,10.6709566116333,-0.090979665517807,-0.038307227194309235
1732873400625045800,11.583045654296875,11.293449401855469,-0.1412578970193863,0.2513911724090576
1732873400635055400,11.593055419921875,11.659762382507324,0.14365209639072418,0.3064578175544739
1732873400645034800,11.60303466796875,11.583148002624512,0.5386953949928284,0.15562310814857483
1732873400655044600,11.613044677734376,11.190498352050781,0.9624691009521484,-0.1412578970193863
1732873400665054200,11.62305419921875,10.623072624206543,1.3215993642807007,-0.45489832758903503
1732873400675064000,11.63306396484375,10.08437728881836,1.6136919260025024,-0.9481038451194763
1732873400685043200,11.643043212890625,9.99100399017334,1.6879122257232666,-1.5658079385757446
1732873400695052800,11.653052734375,10.261548042297363,1.599326729774475,-2.0446481704711914
1732873400705062700,11.663062744140625,11.233593940734863,1.436521053314209,-2.5498247146606445
1732873400715042000,11.6730419921875,12.536040306091309,1.290474772453308,-2.7054479122161865
1732873400725051600,11.6830517578125,14.051569938659668,1.1252747774124146,-2.63362193107605
1732873400735061500,11.6930615234375,15.13614273071289,0.9840168952941895,-2.1045033931732178
1732873400745041000,11.703041015625,15.27979564666748,0.8882488012313843,-1.338358759880066
1732873400755050800,11.71305078125,14.437036514282227,1.072602391242981,-0.9959878921508789
1732873400765060400,11.723060302734375,12.895170211791992,1.4101848602294922,-0.7134721279144287
1732873400775039500,11.73303955078125,11.44907283782959,1.6376339197158813,-0.6392518281936646
1732873400785049300,11.74304931640625,9.895236015319824,1.867477297782898,-0.7733271718025208
1732873400795059000,11.753058837890626,8.652645111083984,1.9057846069335938,-0.8834604024887085
1732873400805038300,11.763038330078125,7.9846625328063965,1.821987509727478,-0.8331822156906128
1732873400815048200,11.773048095703125,7.580042362213135,1.5682021379470825,-0.7398083209991455
1732873400825057800,11.783057861328125,7.400477409362793,1.2186486721038818,-0.6607996821403503
1732873400835037200,11.793037109375,7.354987621307373,0.849941611289978,-0.6177040338516235
1732873400845047000,11.803047119140626,7.307103633880615,0.545877993106842,-0.6943184733390808
1732873400855056600,11.813056640625,7.254431247711182,0.2082955539226532,-0.7206547260284424
1732873400865036000,11.8230361328125,7.275979042053223,-0.002394201699644327,-0.6847416758537292
1732873400875045600,11.833045654296875,7.46033239364624,-0.09576806426048279,-0.727837324142456
1732873400885055500,11.843055419921875,7.668628215789795,-0.05746084079146385,-0.7565677165985107
1732873400895035000,11.853034912109376,7.881711959838867,-0.0071826050989329815,-0.7565677165985107
1732873400905044500,11.86304443359375,7.960720539093018,0.043095629662275314,-0.5937620401382446
1732873400915054000,11.87305419921875,7.8745293617248535,-0.0071826050989329815,-0.40462008118629456
1732873400925064000,11.88306396484375,8.054094314575195,-0.1173158809542656,-0.2106897532939911
1732873400935043300,11.893043212890625,8.592789649963379,-0.08619125932455063,-0.07900865375995636
1732873400945053000,11.903052978515625,9.157821655273438,-0.043095629662275314,-0.26336219906806946
1732873400955062800,11.913062744140625,9.394847869873047,-0.033518824726343155,-0.5530605912208557
1732873400965042200,11.923042236328126,9.701305389404297,-0.040701430290937424,-0.7852981686592102
1732873400975051800,11.9330517578125,9.885659217834473,0.12210428714752197,-1.1109095811843872
1732873400985061600,11.9430615234375,9.787496566772461,0.38546648621559143,-1.7836803197860718
1732873400995040800,11.953040771484375,9.57201862335205,0.6823474764823914,-2.300827741622925
1732873401005050600,11.963050537109375,9.48343276977539,0.8140285611152649,-2.3104045391082764
1732873401015060200,11.973060302734375,9.160215377807617,0.8619126081466675,-2.1332337856292725
1732873401025039600,11.98303955078125,8.796297073364258,0.8571242094039917,-1.9345149993896484
1732873401035049500,11.993049560546876,8.573636054992676,0.790086567401886,-1.7357962131500244
1732873401045059000,12.00305908203125,8.616731643676758,0.7158663272857666,-1.5179238319396973
1732873401055038500,12.01303857421875,8.671798706054688,0.6631938815116882,-1.357512354850769
1732873401065048300,12.02304833984375,8.640673637390137,0.7015010714530945,-1.2449848651885986
1732873401075058000,12.033057861328125,8.485051155090332,0.7924807667732239,-1.0606313943862915
1732873401085037000,12.043037109375,8.20732307434082,0.8858546018600464,-0.8307880163192749
1732873401095047000,12.053046875,8.073247909545898,0.993593692779541,-0.5650315880775452
1732873401105056500,12.063056396484376,8.042123794555664,1.0797849893569946,-0.507570743560791
1732873401115036000,12.073035888671875,8.020575523376465,1.115697979927063,-0.16519992053508759
1732873401125045800,12.083045654296875,7.857769966125488,1.2066776752471924,-0.24420857429504395
1732873401135055600,12.0930556640625,7.608773231506348,1.403002142906189,-0.8595184087753296
1732873401145034800,12.10303466796875,7.785943984985352,1.6687586307525635,-1.802833914756775
1732873401155044600,12.113044677734376,8.544905662536621,1.6304513216018677,-2.784456491470337
1732873401165054200,12.12305419921875,9.943120002746582,1.5275006294250488,-3.268085241317749
1732873401175064000,12.13306396484375,11.51611042022705,1.2617442607879639,-2.9089550971984863
1732873401185043200,12.143043212890625,12.837709426879883,0.7852981686592102,-2.0446481704711914
1732873401195053000,12.153052978515625,13.670891761779785,0.5722141861915588,-1.0773907899856567
1732873401205062700,12.163062744140625,13.862427711486816,0.6560112833976746,-0.05027823522686958
1732873401215042000,12.1730419921875,13.362039566040039,1.1300631761550903,0.7086837291717529
1732873401225052000,12.183052001953126,11.932701110839844,1.7573440074920654,1.0630255937576294
1732873401235061500,12.1930615234375,9.763554573059082,2.341529369354248,0.9145850539207458
1732873401245041000,12.203041015625,8.236053466796875,2.784456491470337,0.6392518281936646
1732873401255050500,12.213050537109375,7.146692276000977,3.112462282180786,0.49320554733276367
1732873401265060400,12.223060302734375,6.830657482147217,3.1459810733795166,0.5961562395095825
1732873401275039500,12.23303955078125,7.06528902053833,2.913743495941162,1.1540051698684692
1732873401285049300,12.24304931640625,7.718906402587891,2.499546527862549,1.647210717201233
1732873401295059000,12.253058837890626,8.822632789611816,1.9967641830444336,1.8698714971542358
1732873401305038300,12.263038330078125,10.144232749938965,1.534683346748352,1.9057846069335938
1732873401315048000,12.2730478515625,11.329362869262695,1.1348515748977661,1.941697597503662
1732873401325057800,12.283057861328125,11.923124313354492,1.0199298858642578,1.7334020137786865
1732873401335037200,12.293037109375,12.229581832885742,1.0295066833496094,1.3479355573654175
1732873401345047000,12.303047119140626,11.939884185791016,1.1061211824417114,0.9911994934082031
1732873401355056600,12.313056640625,11.487380027770996,1.0558429956436157,0.993593692779541
1732873401365036000,12.3230361328125,10.639832496643066,1.5107412338256836,0.4620809257030487
1732873401375045600,12.333045654296875,9.830592155456543,1.7741034030914307,-0.1604115068912506
1732873401385055500,12.343055419921875,9.074024200439453,2.161964178085327,-0.7805097699165344
1732873401395034600,12.35303466796875,8.638279914855957,2.387019157409668,-1.2282254695892334
1732873401405044500,12.36304443359375,8.655038833618164,2.1164743900299072,-1.2425906658172607
1732873401415054300,12.373054443359376,9.097966194152832,1.6543933153152466,-0.5578489899635315
1732873401425064000,12.38306396484375,10.146626472473145,1.1348515748977661,0.21547815203666687
1732873401435043300,12.393043212890625,11.168951034545898,0.5602431893348694,0.6488286852836609
1732873401445053200,12.40305322265625,12.198457717895508,0.11252748221158981,1.137245774269104
1732873401455062800,12.413062744140625,12.725181579589844,-0.13168109953403473,1.2665326595306396
1732873401465042200,12.423042236328126,12.713211059570312,-0.12449848651885986,1.01753568649292
1732873401475052000,12.433052001953126,11.966219902038574,-0.031124621629714966,0.4596867263317108
1732873401485061600,12.4430615234375,11.099518775939941,0.004788403399288654,0.10055647045373917
1732873401495040800,12.453040771484375,10.0580415725708,0.22266076505184174,-0.1388636976480484
1732873401505050600,12.463050537109375,9.409213066101074,0.3280056416988373,-0.0454898327589035
1732873401515060200,12.473060302734375,8.882488250732422,0.395043283700943,0.5027823448181152
1732873401525039600,12.48303955078125,8.516175270080566,0.18914192914962769,1.2521674633026123
1732873401535049500,12.493049560546876,8.47547435760498,-0.05746084079146385,1.8962076902389526
1732873401545059300,12.503059326171876,8.738836288452148,-0.14604631066322327,2.049436569213867
1732873401555038500,12.51303857421875,9.246406555175781,-0.2513911724090576,1.4844050407409668
1732873401565048300,12.52304833984375,9.95748519897461,-0.15322890877723694,0.7230489253997803
1732873401575058000,12.533057861328125,10.558429718017578,0.08140286058187485,0.13407529890537262
1732873401585037000,12.543037109375,10.63504409790039,0.3687070608139038,-0.4812345504760742
1732873401595047000,12.553046875,10.3549222946167,0.7469909191131592,-0.9385270476341248
1732873401605056500,12.563056396484376,10.132261276245117,1.0893617868423462,-1.1827356815338135
1732873401615036000,12.573035888671875,9.670180320739746,0.9864110946655273,-1.1803414821624756
1732873401625045800,12.583045654296875,8.844181060791016,0.7852981686592102,-0.9959878921508789
1732873401635055400,12.593055419921875,8.26478385925293,0.5746083855628967,-0.9313444495201111
1732873401645034800,12.60303466796875,8.197746276855469,0.42616790533065796,-0.5147533416748047
1732873401655044600,12.613044677734376,8.446743965148926,0.44532153010368347,-0.26336219906806946
1732873401665054200,12.62305419921875,9.253589630126953,0.4357447028160095,0.22266076505184174
1732873401675064000,12.63306396484375,10.524910926818848,0.33758243918418884,0.6775590777397156
1732873401685043200,12.643043212890625,11.456254959106445,0.29209262132644653,1.113303780555725
1732873401695052800,12.653052734375,12.318167686462402,0.26336219906806946,1.3694833517074585
1732873401705062700,12.663062744140625,12.715604782104492,0.272938996553421,1.3694833517074585
1732873401715042000,12.6730419921875,12.966996192932129,0.4572925269603729,1.0199298858642578
1732873401725051600,12.6830517578125,12.835315704345703,0.5793967843055725,0.8068459630012512
1732873401735061500,12.6930615234375,12.318167686462402,0.6488286852836609,0.545877993106842
1732873401745041000,12.703041015625,11.887211799621582,0.6919242739677429,0.37828385829925537
1732873401755050800,12.71305078125,11.710040092468262,0.6105214357376099,0.38067805767059326
1732873401765060400,12.723060302734375,11.923124313354492,0.6584054827690125,0.30885201692581177
1732873401775039500,12.73303955078125,12.210428237915039,0.6775590777397156,-0.11013327538967133
1732873401785049300,12.74304931640625,12.401965141296387,0.790086567401886,-0.7230489253997803
1732873401795059000,12.753058837890626,12.294225692749023,0.9864110946655273,-1.1468225717544556
1732873401805038300,12.763038330078125,12.064382553100586,1.158793568611145,-1.2425906658172607
1732873401815048200,12.773048095703125,11.611878395080566,1.316810965538025,-0.912190854549408
1732873401825057800,12.783057861328125,10.917559623718262,1.4772224426269531,-0.7469909191131592
1732873401835037200,12.793037109375,10.290278434753418,1.6735470294952393,-0.7541735172271729
1732873401845047000,12.803047119140626,9.519346237182617,1.8076223134994507,-0.8068459630012512
1732873401855056600,12.813056640625,8.829815864562988,1.843535304069519,-0.8978256583213806
1732873401865036000,12.8230361328125,8.219294548034668,1.7262194156646729,-0.9720458984375
1732873401875045600,12.833045654296875,7.848193168640137,1.4724340438842773,-0.9576807022094727
1732873401885055500,12.843055419921875,7.627926826477051,1.1324573755264282,-0.7445967197418213
1732873401895035000,12.853034912109376,7.68538761138916,0.9217676520347595,-0.7158663272857666
1732873401905044500,12.86304443359375,7.7428483963012695,0.8164227604866028,-0.9217676520347595
1732873401915054000,12.87305419921875,7.833827972412109,0.7350199222564697,-1.1300631761550903
1732873401925064000,12.88306396484375,8.073247909545898,0.6153098344802856,-1.1659762859344482
1732873401935043300,12.893043212890625,8.456320762634277,0.4165911078453064,-0.9864110946655273
1732873401945053000,12.903052978515625,8.753201484680176,0.22744916379451752,-0.5793967843055725
1732873401955062800,12.913062744140625,8.98543930053711,0.047884032130241394,-0.2513911724090576
1732873401965042200,12.923042236328126,9.327810287475586,0.15322890877723694,-0.24181437492370605
1732873401975051800,12.9330517578125,9.603142738342285,0.22505496442317963,-0.05267243832349777
1732873401985061600,12.9430615234375,9.581595420837402,0.28969839215278625,-0.07900865375995636
1732873401995040800,12.953040771484375,9.603142738342285,0.3687070608139038,-0.08858546614646912
