time,seconds_elapsed,z,y,x
1733461393043478000,0.21147802734375,1.6445846557617188,0.2217787504196167,-0.032989561557769775
1733461393054220300,0.22222021484375,1.5929183959960938,0.24865400791168213,-0.15952518582344055
1733461393063790300,0.231790283203125,1.0736808776855469,0.3580399751663208,-0.21434026956558228
1733461393073769700,0.241769775390625,0.5281972885131836,0.3857264518737793,-0.16209405660629272
1733461393083779600,0.251779541015625,-0.07253551483154297,0.3719743490219116,-0.14115288853645325
1733461393093789200,0.2617890625,-0.5802040100097656,0.4256250858306885,-0.3214584290981293
1733461393103768300,0.271768310546875,-0.9077634811401367,0.35574960708618164,0.1495252549648285
1733461393113778000,0.28177783203125,-0.8458719253540039,0.22444212436676025,0.0954904556274414
1733461393123787800,0.291787841796875,-0.574885368347168,0.14732742309570312,0.018785715103149414
1733461393133767200,0.30176708984375,-0.29494667053222656,0.031614065170288086,0.09429053962230682
1733461393143776800,0.31177685546875,-0.06481742858886719,-0.0644369125366211,0.0839339941740036
1733461393153786600,0.32178662109375,0.19547653198242188,-0.06579327583312988,-0.018664687871932983
1733461393163766000,0.33176611328125,0.2589082717895508,-0.019983410835266113,-0.17967188358306885
1733461393173775600,0.341775634765625,0.17122459411621094,0.07113432884216309,-0.3178778886795044
1733461393183785500,0.351785400390625,0.05878448486328125,0.11910355091094971,-0.20629838109016418
1733461393193764600,0.3617646484375,-0.4447669982910156,0.0706484317779541,-0.17499715089797974
1733461393203774500,0.3717744140625,-0.8402547836303711,0.05209469795227051,0.05417746305465698
1733461393213784300,0.381784423828125,-1.1652250289916992,-0.010278582572937012,0.2563326358795166
1733461393223763500,0.391763427734375,-1.1729774475097656,-0.06442475318908691,0.24198785424232483
1733461393233773300,0.401773193359375,-0.8324184417724609,-0.10406184196472168,0.244941845536232
1733461393243783000,0.411782958984375,-0.4837465286254883,-0.1590273380279541,0.16464805603027344
1733461393253762300,0.42176220703125,-0.22762680053710938,-0.19973969459533691,0.09014096856117249
1733461393263772200,0.431772216796875,0.13286590576171875,-0.23784542083740234,0.0284862220287323
1733461393273781800,0.44178173828125,0.362701416015625,-0.21391427516937256,0.008397072553634644
1733461393283761200,0.45176123046875,0.38232898712158203,-0.15755820274353027,-0.12710392475128174
1733461393293771000,0.46177099609375,0.4408740997314453,-0.1296147108078003,-0.0688629150390625
1733461393303780600,0.471780517578125,0.4280052185058594,-0.10443353652954102,0.03714892268180847
1733461393313760000,0.481760009765625,0.40367603302001953,-0.0898972749710083,0.06774920225143433
1733461393323769600,0.49176953125,0.17456531524658203,-0.02753007411956787,-0.021676480770111084
1733461393333779200,0.501779296875,0.024684906005859375,0.0048340559005737305,0.05674886703491211
1733461393343789000,0.5117890625,0.08324432373046875,-0.051920175552368164,0.11064755916595459
1733461393353768400,0.5217685546875,0.25939273834228516,-0.10454773902893066,0.17271029949188232
1733461393363778000,0.531778076171875,0.3448143005371094,-0.09805524349212646,0.08598120510578156
1733461393373788000,0.541787841796875,0.29174137115478516,-0.08633148670196533,0.03678491711616516
1733461393383767300,0.551767333984375,0.18631649017333984,-0.08405756950378418,0.10334347188472748
1733461393393777200,0.561777099609375,0.009264945983886719,-0.026113271713256836,0.02812632918357849
1733461393403786800,0.571786865234375,-0.05513954162597656,0.008685588836669922,0.018134862184524536
1733461393413766000,0.581765869140625,-0.043033599853515625,0.04138374328613281,0.02309936285018921
1733461393423775700,0.591775634765625,-0.09810543060302734,0.05805766582489014,0.02733057737350464
1733461393433785300,0.601785400390625,-0.17962169647216797,0.07035350799560547,-0.020116329193115234
1733461393443764700,0.6117646484375,-0.09121417999267578,0.07558870315551758,-0.06663393974304199
1733461393453774600,0.621774658203125,0.05935192108154297,0.0335923433303833,-0.06488087773323059
1733461393463784200,0.6317841796875,0.12359905242919922,-0.036302804946899414,0.013546735048294067
1733461393473763600,0.641763671875,0.13249683380126953,-0.030535101890563965,0.003881692886352539
1733461393483773400,0.6517734375,0.17003154754638672,-0.06734609603881836,-0.039850473403930664
1733461393493783000,0.661782958984375,0.24590015411376953,-0.05388534069061279,-0.020599722862243652
1733461393503762200,0.67176220703125,0.2429342269897461,-0.024512767791748047,-0.11497971415519714
1733461393513772000,0.68177197265625,0.17803573608398438,-0.0040988922119140625,-0.14811062812805176
1733461393523781600,0.69178173828125,-0.02302265167236328,0.02880275249481201,-0.10889241099357605
1733461393533761000,0.701760986328125,-0.1951456069946289,0.03869223594665527,-0.027356266975402832
1733461393543771000,0.71177099609375,-0.2714881896972656,0.036322832107543945,0.03617854416370392
1733461393553780500,0.721780517578125,-0.2500295639038086,-0.006938576698303223,0.034460678696632385
1733461393563759900,0.731759765625,-0.12839794158935547,-0.016643881797790527,-0.05852741003036499
1733461393573769700,0.741769775390625,0.1222677230834961,-0.000500798225402832,-0.11162719130516052
1733461393583779600,0.751779541015625,0.25793933868408203,0.0117875337600708,-0.16204771399497986
1733461393593789200,0.7617890625,0.2980175018310547,0.04726743698120117,-0.1865464448928833
1733461393603768300,0.771768310546875,0.22118568420410156,0.013278365135192871,-0.188398540019989
1733461393613778000,0.78177783203125,0.013224601745605469,0.10018718242645264,-0.18800169229507446
1733461393623787800,0.791787841796875,-0.11035823822021484,0.10924303531646729,-0.1894282102584839
1733461393633767200,0.80176708984375,-0.1451892852783203,0.0864419937133789,-0.17234817147254944
1733461393643776800,0.81177685546875,-0.14422321319580078,0.04531097412109375,-0.10476359724998474
1733461393653786600,0.82178662109375,-0.24884700775146484,0.015103936195373535,-0.18225544691085815
1733461393663766000,0.83176611328125,-0.32986927032470703,0.03710198402404785,-0.3472517728805542
1733461393673775600,0.841775634765625,-0.3082847595214844,0.04464685916900635,-0.40878748893737793
1733461393683785500,0.851785400390625,-0.2129230499267578,-0.04777371883392334,-0.29952728748321533
1733461393693764600,0.8617646484375,-0.1588754653930664,-0.14606857299804688,-0.18192782998085022
1733461393703774500,0.8717744140625,-0.17208385467529297,-0.1762080192565918,-0.1450256109237671
1733461393713784300,0.881784423828125,-0.1925487518310547,-0.160835862159729,-0.06274092197418213
1733461393723763500,0.891763427734375,-0.14362812042236328,-0.13861703872680664,0.09511356055736542
1733461393733773300,0.901773193359375,-0.13534164428710938,-0.06706154346466064,0.2643851041793823
1733461393743783000,0.911782958984375,-0.20352935791015625,0.010672450065612793,0.39692777395248413
1733461393753762300,0.92176220703125,-0.3265066146850586,0.09614384174346924,0.5337456464767456
1733461393763772200,0.931772216796875,-0.5473575592041016,0.18198728561401367,0.5235354900360107
1733461393773781800,0.94178173828125,-0.8829278945922852,0.1899029016494751,0.4460025727748871
1733461393783761200,0.95176123046875,-1.115732192993164,0.17246997356414795,0.5269019603729248
1733461393793771000,0.96177099609375,-1.4543876647949219,0.17749309539794922,0.4175223112106323
1733461393803780600,0.971780517578125,-1.6646881103515625,0.2438427209854126,0.26423168182373047
1733461393813760000,0.981760009765625,-1.6679420471191406,0.1849074363708496,0.20013687014579773
1733461393823769600,0.99176953125,-1.2580595016479492,0.0861961841583252,0.4906691312789917
1733461393833779200,1.001779296875,-0.695704460144043,-0.015159845352172852,0.8791100978851318
1733461393843789000,1.0117890625,-0.1837615966796875,0.11957943439483643,0.9202955961227417
1733461393853768400,1.0217685546875,0.1922311782836914,0.49950504302978516,0.449846088886261
1733461393863778300,1.0317783203125,0.523529052734375,0.9595588445663452,-0.11971493065357208
1733461393873788000,1.041787841796875,0.9969778060913086,1.254903793334961,-0.43609294295310974
1733461393883767300,1.051767333984375,1.3371858596801758,1.4192153215408325,-0.4964776635169983
1733461393893777200,1.061777099609375,1.536569595336914,1.5023167133331299,-0.44035804271698
1733461393903786800,1.071786865234375,1.6330995559692383,1.629660725593567,-0.33779892325401306
1733461393913766000,1.081765869140625,1.798583984375,1.716959834098816,-0.2729148864746094
1733461393923775700,1.091775634765625,1.9973821640014648,1.7183246612548828,-0.24310287833213806
1733461393933785300,1.101785400390625,2.1556615829467773,1.7910898923873901,-0.08415952324867249
1733461393943764700,1.1117646484375,2.247312545776367,1.73665452003479,0.022013574838638306
1733461393953774600,1.121774658203125,2.1721811294555664,1.681604266166687,0.13382545113563538
1733461393963784200,1.1317841796875,1.791616439819336,1.5213005542755127,0.19254937767982483
1733461393973763600,1.141763671875,1.3571910858154297,1.4318127632141113,0.38386261463165283
1733461393983773400,1.1517734375,0.6700382232666016,1.3255014419555664,0.5740036964416504
1733461393993783000,1.161782958984375,-0.08550834655761719,1.2226214408874512,0.7133021354675293
1733461394003762200,1.17176220703125,-0.6492233276367188,1.06631600856781,0.875302255153656
1733461394013772000,1.18177197265625,-1.2224349975585938,0.8952267169952393,1.0113797187805176
1733461394023781600,1.19178173828125,-1.6712064743041992,1.0778480768203735,0.5864083170890808
1733461394033761000,1.201760986328125,-2.0254874229431152,0.8387519121170044,0.9637725949287415
1733461394043771000,1.21177099609375,-2.193568229675293,0.757396936416626,1.1288199424743652
1733461394053780500,1.221780517578125,-2.32797908782959,0.5283888578414917,1.0402963161468506
1733461394063760000,1.231759765625,-2.340789318084717,0.4515247344970703,1.1157200336456299
1733461394073769700,1.241769775390625,-2.163680076599121,0.37322092056274414,1.176581621170044
1733461394083779600,1.251779541015625,-1.8174681663513184,0.36022651195526123,1.2789621353149414
1733461394093789200,1.2617890625,-1.4002819061279297,0.40515685081481934,1.319289207458496
1733461394103768300,1.271768310546875,-1.0028858184814453,0.49239087104797363,1.2154368162155151
1733461394113778000,1.28177783203125,-0.7328872680664062,0.6522417068481445,1.0216091871261597
1733461394123787800,1.291787841796875,-0.527735710144043,0.7822726964950562,0.7471711039543152
1733461394133767200,1.30176708984375,-0.36347389221191406,0.9085674285888672,0.5175801515579224
1733461394143776800,1.31177685546875,-0.20875930786132812,0.998796820640564,0.4229274094104767
1733461394153786600,1.32178662109375,0.006272315979003906,0.816393256187439,0.19554302096366882
1733461394163766000,1.33176611328125,0.2893238067626953,0.6341311931610107,0.006389334797859192
1733461394173775600,1.341775634765625,0.47205352783203125,0.5316562652587891,-0.21740689873695374
1733461394183785500,1.351785400390625,0.6969060897827148,0.43015098571777344,-0.37914741039276123
1733461394193764900,1.361764892578125,0.8859758377075195,0.318286657333374,-0.3833024501800537
1733461394203774500,1.3717744140625,1.087418556213379,0.1916811466217041,-0.44553202390670776
1733461394213784300,1.381784423828125,1.2515449523925781,0.10603785514831543,-0.5842455625534058
1733461394223763500,1.391763427734375,1.4104108810424805,0.1294081211090088,-0.7777038812637329
1733461394233773300,1.401773193359375,1.5387353897094727,0.25859832763671875,-0.9799106121063232
1733461394243783000,1.411782958984375,1.525503158569336,0.3508274555206299,-0.9529681205749512
1733461394253762300,1.42176220703125,1.1857938766479492,0.4829857349395752,-0.7969810366630554
1733461394263772200,1.431772216796875,0.584284782409668,0.6310920715332031,-0.6992714405059814
1733461394273781800,1.44178173828125,-0.039656639099121094,0.7546501159667969,-0.5806446671485901
1733461394283761200,1.45176123046875,-0.5262584686279297,0.8202261924743652,-0.5674366354942322
1733461394293771000,1.46177099609375,-0.8165655136108398,0.8550770282745361,-0.5942803025245667
1733461394303780600,1.471780517578125,-0.8265447616577148,0.8151645660400391,-0.4817081391811371
1733461394313760000,1.481760009765625,-0.5218734741210938,0.5429153442382812,-0.11835944652557373
1733461394323769600,1.49176953125,-0.09552955627441406,0.4059329032897949,0.02970859408378601
1733461394333779200,1.501779296875,0.2672853469848633,0.38734912872314453,0.03594663739204407
1733461394343789000,1.5117890625,0.6127424240112305,0.4339406490325928,0.02152445912361145
1733461394353768400,1.5217685546875,0.8897075653076172,0.46630430221557617,-0.01080477237701416
1733461394363778000,1.531778076171875,1.1287765502929688,0.4855215549468994,0.08020871877670288
1733461394373788000,1.541787841796875,1.2665300369262695,0.45644402503967285,0.27951639890670776
1733461394383767300,1.551767333984375,1.3489971160888672,0.45631980895996094,0.45767587423324585
1733461394393777200,1.561777099609375,1.4696531295776367,0.49985694885253906,0.5316157341003418
1733461394403786800,1.571786865234375,1.5207099914550781,0.6787111759185791,0.36658698320388794
1733461394413766000,1.581765869140625,1.5904932022094727,0.6885457038879395,0.04985404014587402
1733461394423775700,1.591775634765625,1.8223190307617188,0.35324764251708984,0.41044557094573975
1733461394433785300,1.601785400390625,2.040501594543457,0.21177458763122559,0.6791689395904541
1733461394443764700,1.6117646484375,2.230940818786621,-0.028768539428710938,0.8059757351875305
1733461394453774600,1.621774658203125,2.5968284606933594,-0.3962137699127197,0.9387016296386719
1733461394463784200,1.6317841796875,3.0398311614990234,-0.774867057800293,0.8705437183380127
1733461394473763600,1.641763671875,3.653628349304199,-1.201135277748108,0.5107349753379822
1733461394483773400,1.6517734375,4.235383033752441,-1.444571852684021,0.030716925859451294
1733461394493783000,1.661782958984375,4.708961486816406,-1.9135743379592896,-0.5428249835968018
1733461394503762200,1.67176220703125,5.113268852233887,-2.4738869667053223,-0.8676174879074097
1733461394513772000,1.68177197265625,5.429717063903809,-2.936373233795166,-0.7562175989151001
1733461394523781600,1.69178173828125,5.496760368347168,-3.6715316772460938,-0.2617582380771637
1733461394533761500,1.701761474609375,4.963766098022461,-4.157904624938965,0.3452203571796417
1733461394543771000,1.71177099609375,3.3670902252197266,-4.059237480163574,-0.14308986067771912
1733461394553780500,1.721780517578125,1.6986274719238281,-3.3957700729370117,-1.5722203254699707
1733461394563759900,1.731759765625,0.4926939010620117,-2.8577158451080322,-2.3392574787139893
1733461394573769700,1.741769775390625,-0.13387775421142578,-2.6617977619171143,-2.6453938484191895
1733461394583779600,1.751779541015625,-0.8036575317382812,-2.574662923812866,-2.58750057220459
1733461394593789200,1.7617890625,-1.4342055320739746,-2.616055965423584,-2.42686128616333
1733461394603768300,1.771768310546875,-1.9488129615783691,-2.788670063018799,-2.28056001663208
1733461394613778000,1.78177783203125,-2.4353575706481934,-2.953655958175659,-2.190788984298706
1733461394623787800,1.791787841796875,-2.806356430053711,-2.9862465858459473,-2.042646884918213
1733461394633767200,1.80176708984375,-3.179464817047119,-3.0010671615600586,-1.7260348796844482
1733461394643776800,1.81177685546875,-3.6334633827209473,-2.9036238193511963,-1.3586006164550781
1733461394653786600,1.82178662109375,-4.006940841674805,-2.6532580852508545,-0.8305898308753967
1733461394663766000,1.83176611328125,-4.263690948486328,-2.421603202819824,-0.6102823615074158
1733461394673775600,1.841775634765625,-4.306441783905029,-2.147540807723999,-0.5201811790466309
1733461394683785500,1.851785400390625,-3.9640936851501465,-1.9605209827423096,-0.662352442741394
1733461394693764900,1.861764892578125,-2.854076862335205,-1.8862441778182983,-0.9098461270332336
1733461394703774500,1.8717744140625,-1.6753106117248535,-1.8365193605422974,-0.9441474676132202
1733461394713784300,1.881784423828125,-0.7061748504638672,-1.9197566509246826,-0.8110593557357788
1733461394723763500,1.891763427734375,-0.37088680267333984,-1.6625444889068604,-0.9855042695999146
1733461394733773300,1.901773193359375,-0.25054073333740234,-1.6591534614562988,-0.7341582775115967
1733461394743783000,1.911782958984375,-0.3517179489135742,-1.6527860164642334,-0.33675217628479004
1733461394753762300,1.92176220703125,-0.4229288101196289,-1.646470546722412,-0.0801653116941452
1733461394763772200,1.931772216796875,-0.6222095489501953,-1.6334166526794434,0.08084061741828918
1733461394773781800,1.94178173828125,-0.9613170623779297,-1.405961275100708,-0.28419268131256104
1733461394783761200,1.95176123046875,-1.1219758987426758,-0.975672721862793,-0.9078571796417236
1733461394793771000,1.96177099609375,-1.0239086151123047,-0.7660443782806396,-1.2104268074035645
1733461394803780600,1.971780517578125,-0.8690061569213867,-0.7078845500946045,-1.4645404815673828
1733461394813760000,1.981760009765625,-0.6043987274169922,-0.6123814582824707,-1.3422346115112305
1733461394823769600,1.99176953125,-0.3711261749267578,-0.8801529407501221,-1.0844069719314575
1733461394833779200,2.001779296875,-0.4318056106567383,-0.9239413738250732,-0.9477413892745972
1733461394843789000,2.0117890625,-0.6903238296508789,-0.9263186454772949,-1.0219395160675049
1733461394853768400,2.0217685546875,-0.725799560546875,-0.9364109039306641,-1.0409187078475952
1733461394863778000,2.031778076171875,-0.7351589202880859,-1.010561227798462,-0.9773062467575073
1733461394873788000,2.041787841796875,-0.7258634567260742,-1.0980913639068604,-0.9545985460281372
1733461394883767300,2.051767333984375,-0.5469207763671875,-1.1205003261566162,-1.046562910079956
1733461394893777200,2.061777099609375,-0.1903848648071289,-1.1037311553955078,-1.1170456409454346
1733461394903786800,2.071786865234375,0.16483211517333984,-1.064457893371582,-1.186706304550171
1733461394913766000,2.081765869140625,0.5245113372802734,-1.0546469688415527,-1.1063225269317627
1733461394923775700,2.091775634765625,0.7600078582763672,-0.9119791984558105,-1.055205225944519
1733461394933785300,2.101785400390625,0.9724893569946289,-0.5444490909576416,-1.2511311769485474
1733461394943764700,2.1117646484375,1.158646583557129,-0.4274778366088867,-0.9995109438896179
1733461394953774600,2.121774658203125,1.057638168334961,-0.2115306854248047,-0.9547054171562195
1733461394963784200,2.1317841796875,0.7413873672485352,0.1750807762145996,-1.0581222772598267
1733461394973763600,2.141763671875,0.3834257125854492,0.37874817848205566,-0.9853777289390564
1733461394983773400,2.1517734375,0.28589439392089844,0.2511723041534424,-0.6739354133605957
1733461394993783000,2.161782958984375,0.5021247863769531,0.06500601768493652,-0.3073156177997589
1733461395003762200,2.17176220703125,0.7846488952636719,-0.1223134994506836,-0.08893793076276779
1733461395013772000,2.18177197265625,1.207540512084961,-0.4093191623687744,-0.26618126034736633
1733461395023781600,2.19178173828125,2.019047737121582,-0.6086671352386475,-0.5876128077507019
1733461395033761000,2.201760986328125,2.9686832427978516,-0.5213241577148438,-0.9191882610321045
1733461395043771000,2.21177099609375,4.144072532653809,-0.325408935546875,-0.9056640267372131
1733461395053780500,2.221780517578125,5.111167907714844,-0.22382473945617676,-0.48701217770576477
1733461395063760000,2.231759765625,5.852577209472656,-0.2167823314666748,0.08447664976119995
1733461395073769700,2.241769775390625,6.012499809265137,-0.2336280345916748,0.640198290348053
1733461395083779600,2.251779541015625,5.435825347900391,-0.28204941749572754,1.1389360427856445
1733461395093789200,2.2617890625,4.3205366134643555,-0.48830151557922363,1.5451481342315674
1733461395103768300,2.271768310546875,3.3804140090942383,-0.8614749908447266,1.664497971534729
1733461395113778000,2.28177783203125,2.9639177322387695,-1.5672125816345215,1.377493977546692
1733461395123787800,2.291787841796875,3.1989078521728516,-2.2921674251556396,0.6642472743988037
1733461395133767200,2.30176708984375,4.180085182189941,-2.9424209594726562,-0.0054939985275268555
1733461395143777000,2.311777099609375,5.047799110412598,-3.288017988204956,-0.4667009115219116
1733461395153786600,2.32178662109375,5.483049392700195,-3.607342004776001,-0.2544638514518738
1733461395163766000,2.33176611328125,4.82331657409668,-3.6551222801208496,-0.8261649012565613
1733461395173776000,2.34177587890625,3.284627914428711,-3.535111665725708,-1.008541226387024
1733461395183785500,2.351785400390625,1.6233797073364258,-3.3892524242401123,-0.4069195091724396
1733461395193764900,2.361764892578125,-0.39550113677978516,-3.360872983932495,0.20745807886123657
1733461395203774500,2.3717744140625,-1.9836478233337402,-3.26245379447937,0.5684888362884521
1733461395213784300,2.381784423828125,-2.9343152046203613,-3.1951427459716797,0.8675980567932129
1733461395223763500,2.391763427734375,-4.293521404266357,-2.6558008193969727,-0.03429265320301056
1733461395233773300,2.401773193359375,-5.059879779815674,-2.5882034301757812,-0.31598973274230957
1733461395243783000,2.411782958984375,-5.079397201538086,-2.6415047645568848,-0.1607438027858734
1733461395253762300,2.42176220703125,-4.1598310470581055,-3.092662811279297,0.44627225399017334
1733461395263772200,2.431772216796875,-3.0108437538146973,-3.6210339069366455,1.4114927053451538
1733461395273781800,2.44178173828125,-2.41009521484375,-3.7679474353790283,1.981347918510437
1733461395283761200,2.45176123046875,-2.0670042037963867,-4.0480828285217285,2.3495571613311768
1733461395293771000,2.46177099609375,-1.6634907722473145,-3.8580687046051025,2.1883485317230225
1733461395303780600,2.471780517578125,-1.3866052627563477,-3.0164852142333984,0.859950065612793
1733461395313759700,2.481759765625,-0.7798004150390625,-2.232860565185547,-0.01647540181875229
1733461395323769600,2.49176953125,-0.5055370330810547,-1.7623445987701416,-0.3727477788925171
1733461395333779500,2.501779541015625,-0.5644102096557617,-1.404904842376709,-0.40588271617889404
1733461395343789000,2.5117890625,-1.102020263671875,-1.0917816162109375,-0.35208502411842346
1733461395353768400,2.5217685546875,-2.007434368133545,-0.8432478904724121,-0.2867059111595154
1733461395363778000,2.531778076171875,-2.7142739295959473,-0.7426824569702148,-0.27202725410461426
1733461395373788000,2.541787841796875,-3.2434005737304688,-0.6899726390838623,-0.3742581307888031
1733461395383767300,2.551767333984375,-3.0868215560913086,-0.6799397468566895,-0.33632951974868774
1733461395393777000,2.56177685546875,-2.422482967376709,-0.857109785079956,-0.33829009532928467
1733461395403786800,2.571786865234375,-1.6588120460510254,-0.9384686946868896,-0.47222813963890076
1733461395413766000,2.581765869140625,-0.6885480880737305,-1.0551552772521973,-0.5451047420501709
1733461395423775500,2.591775390625,0.30855655670166016,-1.1907470226287842,-0.32109081745147705
1733461395433785300,2.601785400390625,0.9317054748535156,-1.2168207168579102,0.1682024598121643
1733461395443764700,2.6117646484375,1.1753902435302734,-1.2672975063323975,-0.10841932892799377
1733461395453774600,2.621774658203125,1.1616134643554688,-1.1359896659851074,0.04723078012466431
1733461395463784200,2.6317841796875,1.053537368774414,-1.1645581722259521,0.30463242530822754
1733461395473763600,2.641763671875,1.005192756652832,-1.1127417087554932,0.4682309031486511
1733461395483773400,2.6517734375,0.9757566452026367,-1.006410837173462,0.49968504905700684
1733461395493783000,2.661782958984375,0.9792270660400391,-0.9334101676940918,0.5392934083938599
1733461395503762200,2.67176220703125,1.1376829147338867,-0.8843603134155273,0.6554200649261475
1733461395513772000,2.68177197265625,1.214400291442871,-0.7784676551818848,0.6279469132423401
1733461395523781600,2.69178173828125,1.3541746139526367,-0.6186637878417969,0.5940954685211182
1733461395533761000,2.701760986328125,1.5230436325073242,-0.5018901824951172,0.5203033685684204
1733461395543771000,2.71177099609375,1.541886329650879,-0.3526449203491211,0.4791090786457062
1733461395553780500,2.721780517578125,1.344034194946289,-0.14809536933898926,0.43055832386016846
1733461395563759900,2.731759765625,1.0534696578979492,-0.0043408870697021484,0.3832895755767822
1733461395573769700,2.741769775390625,0.6809310913085938,-0.035329580307006836,0.49578768014907837
1733461395583779300,2.751779296875,0.5334405899047852,-0.13522696495056152,0.8312056660652161
1733461395593789200,2.7617890625,0.9465694427490234,-0.2670300006866455,1.2727863788604736
1733461395603768300,2.771768310546875,1.6105527877807617,-0.5303704738616943,1.3037641048431396
1733461395613778000,2.78177783203125,3.041767120361328,-0.6878373622894287,0.9937646389007568
1733461395623787800,2.791787841796875,4.5633955001831055,-0.6139490604400635,0.6509236097335815
1733461395633767200,2.80176708984375,6.015588760375977,-0.44545698165893555,0.1705266833305359
1733461395643776800,2.81177685546875,6.572176933288574,-0.1702582836151123,-0.6314767599105835
1733461395653786600,2.82178662109375,6.156001091003418,-0.06707119941711426,-1.3791292905807495
1733461395663766000,2.83176611328125,5.008716583251953,-0.4096643924713135,-1.932969093322754
1733461395673775600,2.841775634765625,4.178586959838867,-1.1271913051605225,-2.049471855163574
1733461395683785500,2.851785400390625,4.109137535095215,-1.8942692279815674,-2.2780160903930664
1733461395693764900,2.861764892578125,4.647587776184082,-2.535980701446533,-2.570784091949463
1733461395703774500,2.8717744140625,5.5077667236328125,-3.189481735229492,-2.3206214904785156
1733461395713784300,2.881784423828125,5.605988502502441,-3.5012242794036865,-2.038726806640625
1733461395723763500,2.891763427734375,4.588017463684082,-3.731916666030884,-1.713209867477417
1733461395733773300,2.901773193359375,2.837759017944336,-3.599827766418457,-1.7800607681274414
1733461395743783000,2.911782958984375,0.4484901428222656,-3.444793701171875,-2.4096341133117676
1733461395753762300,2.92176220703125,-1.8155517578125,-3.4986720085144043,-2.176311731338501
1733461395763772200,2.931772216796875,-3.1649699211120605,-3.23808217048645,-3.2572524547576904
1733461395773781800,2.94178173828125,-4.0643181800842285,-3.024148464202881,-3.6587865352630615
1733461395783761200,2.95176123046875,-4.779620170593262,-3.1528983116149902,-3.246006488800049
1733461395793771000,2.96177099609375,-5.277729034423828,-3.3904922008514404,-2.5333445072174072
1733461395803780600,2.971780517578125,-5.14310359954834,-3.6229779720306396,-1.8201360702514648
1733461395813760000,2.981760009765625,-4.56762170791626,-3.3205792903900146,-1.7675325870513916
1733461395823769600,2.99176953125,-3.0310587882995605,-3.345613956451416,-0.47151076793670654
1733461395833779200,3.001779296875,-2.2879538536071777,-3.3846535682678223,0.039602041244506836
1733461395843789000,3.0117890625,-1.893810749053955,-2.9479057788848877,-0.43697845935821533
1733461395853768400,3.0217685546875,-1.7138452529907227,-2.2482051849365234,-1.4240421056747437
1733461395863778000,3.031778076171875,-1.4603443145751953,-1.7377610206604004,-1.9048901796340942
1733461395873788000,3.041787841796875,-1.375279426574707,-1.6076209545135498,-1.8363661766052246
1733461395883767300,3.051767333984375,-1.2822518348693848,-1.4211864471435547,-1.6125574111938477
1733461395893777200,3.061777099609375,-1.1077384948730469,-1.2396104335784912,-1.5165684223175049
1733461395903786800,3.071786865234375,-0.8304853439331055,-1.1891937255859375,-1.0530779361724854
1733461395913766000,3.081765869140625,-0.7962779998779297,-1.1269915103912354,-0.46500980854034424
1733461395923775700,3.091775634765625,-1.2737126350402832,-0.9857361316680908,-0.1635180115699768
1733461395933785300,3.101785400390625,-1.7103509902954102,-0.8961141109466553,0.2815500497817993
1733461395943764700,3.1117646484375,-2.0401735305786133,-0.8769538402557373,0.5770843029022217
1733461395953774600,3.121774658203125,-2.1036038398742676,-0.8490307331085205,0.38787949085235596
1733461395963784200,3.1317841796875,-1.825819492340088,-0.2017991542816162,-0.13887184858322144
1733461395973763600,3.141763671875,-1.1572623252868652,-0.4468204975128174,-0.2874714434146881
1733461395983773400,3.1517734375,-0.7311677932739258,-0.5699403285980225,-0.16276700794696808
1733461395993783000,3.161782958984375,-0.1501178741455078,-0.5092871189117432,-0.3536532521247864
1733461396003762200,3.17176220703125,0.3899650573730469,-0.5024871826171875,-0.4847179353237152
1733461396013772000,3.18177197265625,0.6695671081542969,-0.6137354373931885,-0.5391058325767517
1733461396023781600,3.19178173828125,0.8473787307739258,-0.545647382736206,-0.657852053642273
1733461396033761000,3.201760986328125,1.096034049987793,-0.5144202709197998,-0.6778677105903625
1733461396043771000,3.21177099609375,1.1292552947998047,-0.48914313316345215,-0.618072509765625
1733461396053780500,3.221780517578125,1.0204448699951172,-0.40326833724975586,-0.6013298630714417
1733461396063760000,3.231759765625,0.839472770690918,-0.27483415603637695,-0.5674471259117126
1733461396073769700,3.241769775390625,0.578761100769043,-0.14356589317321777,-0.5912747979164124
1733461396083779600,3.251779541015625,0.4721660614013672,0.014211177825927734,-0.7835081815719604
1733461396093789200,3.2617890625,0.602259635925293,-0.08796167373657227,-0.7509228587150574
1733461396103768300,3.271768310546875,1.0060358047485352,-0.5088984966278076,-0.3786294460296631
1733461396113778200,3.281778076171875,1.4584894180297852,-0.7359309196472168,-0.1591050922870636
1733461396123787800,3.291787841796875,2.481703758239746,-1.050241470336914,-0.057371705770492554
1733461396133767200,3.30176708984375,3.3210105895996094,-1.2194523811340332,0.04785832762718201
1733461396143777000,3.311777099609375,4.103297233581543,-1.065424919128418,-0.01604098081588745
1733461396153786600,3.32178662109375,4.53341007232666,-0.7605776786804199,-0.003230869770050049
1733461396163766000,3.33176611328125,4.679266929626465,-0.439647912979126,0.036121875047683716
1733461396173776000,3.34177587890625,4.593459129333496,-0.31139469146728516,0.23882964253425598
1733461396183785500,3.351785400390625,4.058361053466797,-0.40883898735046387,0.284379780292511
1733461396193764900,3.361764892578125,3.4238805770874023,-0.855492115020752,0.5757949948310852
1733461396203774500,3.3717744140625,3.1913747787475586,-1.2734615802764893,0.6537108421325684
1733461396213784300,3.381784423828125,3.4625511169433594,-1.9077171087265015,0.7873278856277466
1733461396223763500,3.391763427734375,3.928360939025879,-2.419947624206543,1.0593750476837158
1733461396233773300,3.401773193359375,4.3263044357299805,-2.8610434532165527,1.2438981533050537
1733461396243783000,3.411782958984375,4.174715042114258,-3.100224018096924,1.3902337551116943
1733461396253762300,3.42176220703125,3.194822311401367,-3.0246496200561523,1.264326810836792
1733461396263772200,3.431772216796875,1.8364477157592773,-2.858875036239624,1.1064834594726562
1733461396273781800,3.44178173828125,0.0020837783813476562,-2.5767993927001953,0.7109940648078918
1733461396283761200,3.45176123046875,-1.0140161514282227,-2.2487287521362305,0.4400313198566437
1733461396293771000,3.46177099609375,-2.314148426055908,-2.282646894454956,0.25633007287979126
1733461396303780600,3.471780517578125,-3.3201708793640137,-2.2065985202789307,0.31178033351898193
1733461396313759700,3.481759765625,-3.54548978805542,-2.324557304382324,0.4171457290649414
1733461396323769600,3.49176953125,-3.413163185119629,-2.7945992946624756,0.8245256543159485
1733461396333779500,3.501779541015625,-3.118288516998291,-3.2248141765594482,1.2358603477478027
1733461396343789000,3.5117890625,-2.551419734954834,-3.642536163330078,1.6878540515899658
1733461396353768400,3.5217685546875,-1.9425106048583984,-3.951801300048828,1.9866077899932861
1733461396363778000,3.531778076171875,-1.3047847747802734,-4.14094352722168,2.0332860946655273
1733461396373788000,3.541787841796875,-0.5244388580322266,-4.220187187194824,2.092869758605957
1733461396383767300,3.551767333984375,-0.14565181732177734,-3.66184663772583,1.0690288543701172
1733461396393777000,3.56177685546875,0.4896965026855469,-2.887530565261841,-0.27529528737068176
1733461396403786800,3.571786865234375,0.9515619277954102,-2.571153402328491,-0.30660438537597656
1733461396413766000,3.581765869140625,0.43224143981933594,-1.81865656375885,-0.9162474274635315
1733461396423775500,3.591775390625,-0.5621213912963867,-1.2546045780181885,-1.2077407836914062
1733461396433785300,3.601785400390625,-1.7575387954711914,-0.7965025901794434,-1.3439409732818604
1733461396443764700,3.6117646484375,-2.410219669342041,-0.5404918193817139,-1.2281497716903687
1733461396453774600,3.621774658203125,-2.6434082984924316,-0.38807010650634766,-0.9959051609039307
1733461396463784200,3.6317841796875,-2.5512895584106445,-0.3076503276824951,-0.8679812550544739
1733461396473763600,3.641763671875,-2.155060291290283,-0.2831141948699951,-0.7603139281272888
1733461396483773400,3.6517734375,-1.723376750946045,-0.33728814125061035,-0.7109200358390808
1733461396493783000,3.661782958984375,-1.1182775497436523,-0.3951137065887451,-0.5625808238983154
1733461396503762200,3.67176220703125,-0.5656709671020508,-0.4742577075958252,-0.21105027198791504
1733461396513772000,3.68177197265625,-0.12150859832763672,-0.6378850936889648,0.155481219291687
1733461396523781600,3.69178173828125,0.06699657440185547,-0.73370361328125,0.5208163261413574
1733461396533761000,3.701760986328125,0.12989425659179688,-0.7734336853027344,0.7752044796943665
1733461396543771000,3.71177099609375,0.1584310531616211,-0.7167387008666992,0.6738548278808594
1733461396553780500,3.721780517578125,0.36174964904785156,-0.5581181049346924,0.4426541030406952
1733461396563759900,3.731759765625,0.8487310409545898,-0.34911370277404785,0.06931531429290771
1733461396573769700,3.741769775390625,1.1351289749145508,0.01702141761779785,-0.17774182558059692
1733461396583779300,3.751779296875,1.4010591506958008,0.12050223350524902,-0.43720293045043945
1733461396593789200,3.7617890625,1.581303596496582,0.20878911018371582,-0.5732883214950562
1733461396603768300,3.771768310546875,1.716512680053711,0.35639381408691406,-0.690952479839325
1733461396613778200,3.781778076171875,1.8001708984375,0.32636570930480957,-0.2791655659675598
1733461396623787800,3.791787841796875,1.6207151412963867,0.2736046314239502,-0.1073419451713562
1733461396633767200,3.80176708984375,1.2835359573364258,0.170806884765625,0.02294677495956421
1733461396643776800,3.81177685546875,1.1433181762695312,-0.05531191825866699,0.26116490364074707
1733461396653786600,3.82178662109375,1.4152936935424805,-0.35003232955932617,0.59064120054245
1733461396663766000,3.83176611328125,1.9851360321044922,-0.532829761505127,0.5044294595718384
1733461396673775600,3.841775634765625,3.0938425064086914,-0.4557304382324219,0.026549875736236572
1733461396683785500,3.851785400390625,4.418015480041504,-0.25009655952453613,-0.2672451138496399
1733461396693764900,3.861764892578125,5.620706558227539,0.19167780876159668,-0.5518689751625061
1733461396703774500,3.8717744140625,5.851112365722656,0.5997314453125,-0.858365535736084
1733461396713784300,3.881784423828125,5.10725212097168,0.845921516418457,-1.2205281257629395
1733461396723763500,3.891763427734375,3.4391841888427734,0.649791955947876,-1.601017951965332
1733461396733773300,3.901773193359375,1.689443588256836,0.34201884269714355,-2.3312108516693115
1733461396743783000,3.911782958984375,1.6936149597167969,0.08497881889343262,-3.55216121673584
1733461396753762300,3.92176220703125,3.3541507720947266,-0.9753189086914062,-3.079735279083252
1733461396763772200,3.931772216796875,5.531337738037109,-2.177948474884033,-2.0940961837768555
1733461396773781800,3.94178173828125,5.954538345336914,-3.0916125774383545,-1.127124547958374
1733461396783761200,3.95176123046875,4.641355514526367,-3.960197925567627,-0.03611260652542114
1733461396793771000,3.96177099609375,2.77260684967041,-4.285613059997559,0.3368833363056183
1733461396803780600,3.971780517578125,0.39826393127441406,-4.084956169128418,-0.11638641357421875
1733461396813760000,3.981760009765625,-1.683332920074463,-3.444385290145874,-1.4215209484100342
1733461396823769600,3.99176953125,-3.4440746307373047,-3.073716163635254,-2.221176862716675
1733461396833779200,4.001779296875,-4.481369972229004,-3.102889060974121,-2.057626247406006
1733461396843789000,4.0117890625,-4.763458251953125,-2.771068572998047,-2.5512142181396484
1733461396853768400,4.0217685546875,-5.233313083648682,-2.517169237136841,-2.4827752113342285
1733461396863778000,4.031778076171875,-5.386859893798828,-2.469261646270752,-2.1805362701416016
1733461396873788000,4.041787841796875,-4.935142993927002,-2.597527027130127,-1.523423433303833
1733461396883767300,4.051767333984375,-4.357048034667969,-2.831155776977539,-0.6588852405548096
1733461396893777200,4.061777099609375,-3.5322842597961426,-2.923703193664551,0.1104665994644165
1733461396903786800,4.071786865234375,-2.4984946250915527,-2.816143035888672,0.3217478096485138
1733461396913766000,4.081765869140625,-1.1986441612243652,-2.5446786880493164,0.1886429786682129
1733461396923775700,4.091775634765625,-0.4282245635986328,-2.1444857120513916,-0.030971109867095947
1733461396933785300,4.101785400390625,-0.2988109588623047,-1.648241400718689,-0.26995348930358887
1733461396943764700,4.1117646484375,-0.6820001602172852,-1.2936694622039795,-0.36067330837249756
1733461396953774600,4.121774658203125,-1.185445785522461,-0.8986577987670898,-0.5094865560531616
1733461396963784200,4.1317841796875,-1.6862859725952148,-0.6123340129852295,-0.4045787453651428
1733461396973763600,4.141763671875,-1.9693427085876465,-0.5500073432922363,-0.20896226167678833
1733461396983773400,4.1517734375,-2.240777015686035,-0.4487588405609131,-0.0037601590156555176
1733461396993783000,4.161782958984375,-2.1802148818969727,-0.3952517509460449,0.13926732540130615
1733461397003762200,4.17176220703125,-1.7966580390930176,-0.3304297924041748,0.1837913990020752
1733461397013772000,4.18177197265625,-1.1809186935424805,-0.16089963912963867,-0.02604079246520996
1733461397023781600,4.19178173828125,-0.4855794906616211,0.009073257446289062,-0.4114442467689514
1733461397033761000,4.201760986328125,-0.040007591247558594,0.12376809120178223,-0.5158418416976929
1733461397043771000,4.21177099609375,0.30259132385253906,0.06327390670776367,-0.4541085362434387
1733461397053780500,4.221780517578125,0.5972909927368164,-0.11020445823669434,-0.14026999473571777
1733461397063760000,4.231759765625,0.6938924789428711,-0.3190937042236328,0.19102489948272705
1733461397073769700,4.241769775390625,0.8089694976806641,-0.3555908203125,0.42918550968170166
1733461397083779300,4.251779296875,0.9894380569458008,-0.26828908920288086,0.3909878432750702
1733461397093789200,4.2617890625,1.1159772872924805,-0.08761096000671387,0.27567845582962036
1733461397103768300,4.271768310546875,1.2586336135864258,0.09587454795837402,0.13941484689712524
1733461397113778200,4.281778076171875,1.603114128112793,0.260021448135376,0.08157318830490112
1733461397123787800,4.291787841796875,2.1139888763427734,0.2961690425872803,0.06023991107940674
1733461397133767200,4.30176708984375,2.537228584289551,0.18851184844970703,0.1354312300682068
1733461397143777000,4.311777099609375,2.3175411224365234,0.13374042510986328,0.2783391773700714
1733461397153786600,4.32178662109375,1.751028060913086,-0.14402008056640625,0.45874878764152527
1733461397163766000,4.33176611328125,1.5617856979370117,-0.46525096893310547,0.7636204957962036
1733461397173776000,4.34177587890625,1.6243133544921875,-0.7079014778137207,0.7519999146461487
1733461397183785500,4.351785400390625,2.1231069564819336,-0.7085936069488525,0.7980448007583618
1733461397193764900,4.361764892578125,2.9725894927978516,-0.5928928852081299,0.7514729499816895
1733461397203774500,4.3717744140625,3.9412612915039062,-0.37712836265563965,0.2937948703765869
1733461397213784300,4.381784423828125,4.745552062988281,-0.44365930557250977,-0.14503157138824463
1733461397223763500,4.391763427734375,5.139952659606934,-0.9989292621612549,-0.5308246612548828
1733461397233773300,4.401773193359375,5.082261085510254,-1.6835017204284668,-0.632841944694519
1733461397243783000,4.411782958984375,4.668318748474121,-2.3387131690979004,-0.7203088998794556
1733461397253762300,4.42176220703125,4.684657096862793,-2.684149742126465,-0.6402830481529236
1733461397263772200,4.431772216796875,4.765896797180176,-3.0123636722564697,-0.4411049485206604
1733461397273781800,4.44178173828125,3.7463903427124023,-2.723944664001465,-0.8004736304283142
1733461397283761200,4.45176123046875,2.563272476196289,-2.831897497177124,-0.18076688051223755
1733461397293771000,4.46177099609375,0.3313922882080078,-2.598712682723999,0.10020983219146729
1733461397303780600,4.471780517578125,-1.6774520874023438,-2.3482275009155273,0.30086392164230347
1733461397313759700,4.481759765625,-3.28934907913208,-2.118250846862793,0.6438993215560913
1733461397323769600,4.49176953125,-4.372846603393555,-2.1343350410461426,0.8514789342880249
1733461397333779500,4.501779541015625,-5.158420562744141,-2.0267930030822754,0.6209922432899475
1733461397343789000,4.5117890625,-4.546542167663574,-2.4837992191314697,1.0918159484863281
1733461397353768400,4.5217685546875,-3.2995409965515137,-2.872321605682373,1.4735214710235596
1733461397363778000,4.531778076171875,-1.952873706817627,-3.1389577388763428,1.7749006748199463
1733461397373788000,4.541787841796875,-0.8967514038085938,-3.1108858585357666,1.8462685346603394
1733461397383767300,4.551767333984375,-0.3790254592895508,-2.527320623397827,0.9450482130050659
1733461397393777000,4.56177685546875,0.10426616668701172,-2.062473773956299,0.2969841957092285
1733461397403786800,4.571786865234375,0.36746883392333984,-1.6412886381149292,-0.19900238513946533
1733461397413766000,4.581765869140625,0.2714548110961914,-1.3849798440933228,-0.4403480291366577
1733461397423775500,4.591775390625,-0.13755035400390625,-1.241635799407959,-0.5109527707099915
1733461397433785300,4.601785400390625,-0.5359992980957031,-1.0408138036727905,-0.6562652587890625
1733461397443759600,4.611759521484375,-0.8918132781982422,-0.819587230682373,-0.7303023934364319
1733461397453769500,4.62176953125,-1.2401113510131836,-0.7200322151184082,-0.6232668161392212
1733461397463779000,4.631779052734375,-1.5722851753234863,-0.6970114707946777,-0.3416707515716553
1733461397473758200,4.64175830078125,-1.5394701957702637,-0.832284688949585,0.059361815452575684
1733461397483768000,4.65176806640625,-1.5608057975769043,-0.8999252319335938,0.28966444730758667
1733461397493777700,4.661777587890625,-1.5880093574523926,-0.9918842315673828,0.4558262228965759
1733461397503757000,4.671757080078125,-1.562955379486084,-0.9586343765258789,0.4416547417640686
1733461397513767000,4.681766845703125,-1.4540185928344727,-0.8870730400085449,0.6055970191955566
1733461397523776500,4.691776611328125,-1.3878397941589355,-0.7992637157440186,0.7169013619422913
1733461397533756000,4.701755859375,-1.3879852294921875,-0.6889796257019043,0.9326121807098389
1733461397543765500,4.711765625,-1.645606517791748,-0.6748325824737549,1.2048115730285645
1733461397553775400,4.721775390625,-2.060274600982666,-0.6321277618408203,1.2668513059616089
1733461397563754500,4.73175439453125,-2.1061248779296875,-0.5602817535400391,1.2199313640594482
1733461397573764400,4.741764404296875,-1.664790153503418,-0.5170457363128662,1.0978986024856567
1733461397583774000,4.75177392578125,-1.1311769485473633,-0.5498895645141602,0.9703186750411987
1733461397593783800,4.76178369140625,-0.21868324279785156,-0.43233537673950195,0.615097165107727
1733461397603763200,4.77176318359375,0.6907901763916016,-0.21538233757019043,0.27901437878608704
1733461397613772800,4.781772705078125,1.2872629165649414,-0.14050745964050293,0.20966637134552002
1733461397623782700,4.79178271484375,1.8302488327026367,0.06387472152709961,0.12493228912353516
1733461397633762000,4.801761962890625,2.057002067565918,0.2640993595123291,-0.01734870672225952
1733461397643771600,4.811771728515625,2.0198097229003906,0.3500065803527832,0.017695605754852295
1733461397653781500,4.821781494140625,1.7637176513671875,0.5311074256896973,-0.08010631799697876
1733461397663760600,4.8317607421875,1.7606420516967773,0.5943572521209717,-0.16564780473709106
1733461397673770200,4.841770263671875,2.119399070739746,0.451129674911499,0.06788694858551025
1733461397683780000,4.851780029296875,2.6588525772094727,0.17978787422180176,0.26204949617385864
1733461397693759500,4.861759521484375,3.2775373458862305,0.01466679573059082,0.20092743635177612
1733461397703769300,4.871769287109375,4.1762237548828125,-0.2517428398132324,-0.0589483380317688
1733461397713779000,4.881779052734375,5.008062362670898,-0.44302845001220703,-0.32260316610336304
1733461397723758300,4.89175830078125,5.397252082824707,-0.3171994686126709,-0.6832389235496521
1733461397733768200,4.901768310546875,5.365786552429199,0.07243537902832031,-1.115218162536621
1733461397743777800,4.91177783203125,4.745116233825684,0.31014108657836914,-1.4979743957519531
1733461397753757000,4.9217568359375,3.7580127716064453,0.13629579544067383,-1.7025794982910156
1733461397763766800,4.931766845703125,2.590108871459961,-0.31699466705322266,-1.7620387077331543
1733461397773776400,4.9417763671875,1.9958810806274414,-1.221396803855896,-1.3540172576904297
1733461397783755800,4.951755859375,1.8786611557006836,-1.9926655292510986,-1.1291240453720093
1733461397793765600,4.961765625,2.5351133346557617,-2.682415723800659,-0.9601658582687378
1733461397803775200,4.971775146484375,3.2801618576049805,-3.154280185699463,-0.6551855802536011
1733461397813754600,4.981754638671875,2.7906150817871094,-3.4834470748901367,-0.5637126564979553
1733461397823764500,4.991764404296875,1.2764892578125,-3.5108871459960938,-0.6787540912628174
1733461397833774000,5.001774169921875,-0.3801889419555664,-3.3143539428710938,-1.207855224609375
1733461397843784000,5.011783935546875,-2.084650993347168,-3.122687578201294,-1.5157175064086914
1733461397853763000,5.02176318359375,-3.6459617614746094,-2.878812551498413,-1.8441684246063232
1733461397863773000,5.03177294921875,-4.647721290588379,-2.9885098934173584,-1.4899506568908691
1733461397873782500,5.041782470703125,-5.473416328430176,-2.764826774597168,-1.5326918363571167
1733461397883762000,5.051761962890625,-5.446427345275879,-2.5113749504089355,-1.4666693210601807
1733461397893771800,5.061771728515625,-4.599843978881836,-2.4513683319091797,-1.0433769226074219
1733461397903781400,5.071781494140625,-3.0747594833374023,-2.562957525253296,-0.3085089921951294
1733461397913760800,5.0817607421875,-1.8106765747070312,-2.5042500495910645,0.003481924533843994
1733461397923770600,5.0917705078125,-0.5752592086791992,-2.2294278144836426,-0.1245468258857727
1733461397933780200,5.1017802734375,0.5392436981201172,-1.8445510864257812,-0.41730326414108276
1733461397943759600,5.111759521484375,0.9542932510375977,-1.5561271905899048,-0.6464689373970032
1733461397953769500,5.12176953125,0.7589244842529297,-1.241114616394043,-0.7826821208000183
1733461397963779000,5.131779052734375,0.23017311096191406,-0.9664058685302734,-0.8828245401382446
1733461397973758200,5.14175830078125,-0.4524383544921875,-0.8023416996002197,-0.8889522552490234
1733461397983768000,5.15176806640625,-0.7477998733520508,-0.6978428363800049,-0.676624059677124
1733461397993777700,5.161777587890625,-1.0126495361328125,-0.6540203094482422,-0.4530678987503052
1733461398003757000,5.171757080078125,-1.2554597854614258,-0.6221067905426025,-0.2723321318626404
1733461398013767000,5.181766845703125,-1.5695595741271973,-0.522897481918335,-0.2779877185821533
1733461398023776500,5.191776611328125,-1.6959404945373535,-0.4191913604736328,-0.2602963447570801
1733461398033756000,5.201755859375,-1.8821587562561035,-0.35107421875,-0.29490208625793457
1733461398043765800,5.211765869140625,-2.019895553588867,-0.29094910621643066,-0.3880518078804016
1733461398053775400,5.221775390625,-2.1187548637390137,-0.25289368629455566,-0.533525824546814
1733461398063754800,5.231754638671875,-1.81024169921875,-0.2790958881378174,-0.42772480845451355
1733461398073764400,5.241764404296875,-1.276742935180664,-0.32721734046936035,-0.39142686128616333
1733461398083774200,5.251774169921875,-0.8152647018432617,-0.16478753089904785,-0.5895978212356567
1733461398093783800,5.26178369140625,-0.6547822952270508,-0.13520479202270508,-0.8398946523666382
1733461398103763200,5.27176318359375,-0.47399044036865234,-0.10651445388793945,-1.132672667503357
1733461398113772800,5.281772705078125,-0.35190773010253906,-0.12183833122253418,-1.2306478023529053
1733461398123782700,5.29178271484375,-0.19312763214111328,-0.18468260765075684,-1.149654746055603
1733461398133762000,5.301761962890625,0.006653785705566406,-0.20269560813903809,-0.9968366026878357
1733461398143772000,5.31177197265625,0.22549724578857422,-0.10287308692932129,-1.0006462335586548
1733461398153781500,5.321781494140625,0.3326911926269531,0.09654831886291504,-0.8031777143478394
1733461398163760600,5.3317607421875,0.382354736328125,0.24347376823425293,-0.5392693281173706
1733461398173770500,5.3417705078125,0.6444664001464844,0.2135295867919922,-0.12227439880371094
1733461398183780000,5.351780029296875,0.9673023223876953,0.04291081428527832,0.25452184677124023
1733461398193759500,5.361759521484375,1.4159965515136719,-0.17038583755493164,0.5097153186798096
1733461398203769300,5.371769287109375,1.9129352569580078,-0.1785879135131836,0.4393079876899719
1733461398213779000,5.381779052734375,2.5363121032714844,-0.2745976448059082,0.32276231050491333
1733461398223758300,5.39175830078125,3.1494388580322266,-0.3339884281158447,0.3807014226913452
1733461398233768200,5.401768310546875,3.860957145690918,-0.40184545516967773,0.653078556060791
1733461398243777800,5.41177783203125,4.365972518920898,-0.30386829376220703,0.9855133295059204
1733461398253757000,5.4217568359375,4.7696533203125,-0.060834646224975586,1.1720516681671143
1733461398263766800,5.431766845703125,4.722447395324707,0.12897300720214844,1.3093554973602295
1733461398273776400,5.4417763671875,4.070992469787598,0.13474726676940918,1.4149209260940552
1733461398283755800,5.451755859375,3.088146209716797,-0.041002511978149414,1.4979177713394165
1733461398293765600,5.461765625,2.432154655456543,-0.6344736814498901,1.2621108293533325
1733461398303775200,5.471775146484375,2.2481794357299805,-1.8285393714904785,0.9412105679512024
1733461398313754600,5.481754638671875,2.943258285522461,-2.8204567432403564,0.6676990985870361
1733461398323764500,5.491764404296875,4.395012855529785,-3.4371049404144287,0.5458458065986633
1733461398333774300,5.5017744140625,5.316044807434082,-3.441861867904663,0.12438666820526123
1733461398343784000,5.511783935546875,5.466495513916016,-3.0746636390686035,-0.14318299293518066
1733461398353763000,5.52176318359375,4.611763000488281,-2.7050228118896484,-0.08303225040435791
1733461398363773000,5.53177294921875,2.4137678146362305,-2.34501314163208,0.4866103529930115
1733461398373782500,5.541782470703125,-0.5729942321777344,-1.8065941333770752,1.5720388889312744
1733461398383762000,5.551761962890625,-3.170902729034424,-1.6791391372680664,0.13813334703445435
1733461398393771500,5.561771484375,-5.680121421813965,-1.302762508392334,1.2007012367248535
1733461398403781400,5.571781494140625,-7.195004463195801,-1.6773598194122314,1.7935535907745361
1733461398413760800,5.5817607421875,-7.633518218994141,-2.167630672454834,1.9682817459106445
1733461398423770400,5.591770263671875,-6.286357402801514,-2.6100687980651855,1.8430662155151367
1733461398433780200,5.6017802734375,-4.150137901306152,-3.0911996364593506,1.6536355018615723
1733461398443759600,5.611759521484375,-2.1903185844421387,-3.589334487915039,1.9776527881622314
1733461398453769500,5.62176953125,-0.18847942352294922,-3.8802623748779297,2.4346301555633545
1733461398463779000,5.631779052734375,0.6575450897216797,-3.4368577003479004,1.7845113277435303
1733461398473758200,5.64175830078125,1.3723831176757812,-2.690883159637451,0.8175147771835327
1733461398483768000,5.65176806640625,1.6798982620239258,-2.1141700744628906,0.2866746783256531
1733461398493777700,5.661777587890625,1.7170944213867188,-1.6646978855133057,0.12164366245269775
1733461398503757000,5.671757080078125,1.3655815124511719,-1.4070801734924316,0.3156365156173706
1733461398513767000,5.681766845703125,0.44805240631103516,-0.9867936372756958,0.19619327783584595
1733461398523776500,5.691776611328125,-0.4946479797363281,-0.5490391254425049,-0.11059165000915527
1733461398533756000,5.701755859375,-1.1089401245117188,-0.3175983428955078,-0.10635900497436523
1733461398543765800,5.711765869140625,-1.5425715446472168,-0.20032477378845215,-0.0858381986618042
1733461398553775400,5.721775390625,-1.5648698806762695,-0.13595914840698242,0.07271146774291992
1733461398563754500,5.73175439453125,-1.633678913116455,0.07085919380187988,-0.17691552639007568
1733461398573764400,5.741764404296875,-1.4301447868347168,-0.17492961883544922,0.2721743583679199
1733461398583774000,5.75177392578125,-1.3314456939697266,-0.27445530891418457,0.6025615334510803
1733461398593783800,5.76178369140625,-1.4253230094909668,-0.3846428394317627,0.8439162373542786
1733461398603763200,5.77176318359375,-1.4955644607543945,-0.40338730812072754,1.0500879287719727
1733461398613772800,5.781772705078125,-1.364358901977539,-0.4263899326324463,1.271515965461731
1733461398623782700,5.79178271484375,-1.0408639907836914,-0.35268378257751465,1.344789981842041
1733461398633762000,5.801761962890625,-0.6156806945800781,-0.2287147045135498,1.3116257190704346
1733461398643771600,5.811771728515625,-0.45703983306884766,-0.126678466796875,1.4285248517990112
1733461398653781500,5.821781494140625,-0.40227794647216797,-0.028566598892211914,1.5292500257492065
1733461398663760600,5.8317607421875,-0.3420076370239258,0.09277677536010742,1.5284700393676758
1733461398673770200,5.841770263671875,-0.39661312103271484,0.07645082473754883,1.5949722528457642
1733461398683780000,5.851780029296875,-0.33219146728515625,0.10839962959289551,1.623625636100769
1733461398693759500,5.861759521484375,-0.11342430114746094,0.13458681106567383,1.3717069625854492
1733461398703769300,5.871769287109375,0.21818065643310547,0.11267328262329102,1.0896639823913574
1733461398713779000,5.881779052734375,0.4482851028442383,0.1340923309326172,0.7836664915084839
1733461398723758300,5.89175830078125,0.7094240188598633,0.24464654922485352,0.5368221998214722
1733461398733768200,5.901768310546875,0.7283916473388672,0.3297395706176758,0.18979191780090332
1733461398743777800,5.91177783203125,0.5246143341064453,0.3241279125213623,0.1914142668247223
1733461398753757000,5.9217568359375,0.23540973663330078,0.21413016319274902,0.36484000086784363
1733461398763766800,5.931766845703125,0.10998249053955078,0.0364532470703125,0.5516266226768494
1733461398773776400,5.9417763671875,0.3210477828979492,-0.19750308990478516,0.5332897901535034
1733461398783755800,5.951755859375,0.8484420776367188,-0.556603193283081,0.5910030007362366
1733461398793765600,5.961765625,1.6230230331420898,-0.9789499044418335,0.6671098470687866
1733461398803775200,5.971775146484375,2.633978843688965,-1.3509807586669922,0.44255542755126953
1733461398813754600,5.981754638671875,3.6215362548828125,-1.3300315141677856,-0.10396627336740494
1733461398823764500,5.991764404296875,4.383966445922852,-0.8629642724990845,-0.9604419469833374
1733461398833774000,6.001774169921875,5.116783142089844,-0.2861905097961426,-1.705658197402954
1733461398843784000,6.011783935546875,5.225290298461914,0.196000337600708,-2.1166152954101562
1733461398853763000,6.02176318359375,4.9952850341796875,-0.7773100137710571,-0.19962796568870544
1733461398863773000,6.03177294921875,3.203129768371582,0.17276811599731445,-2.0499603748321533
1733461398873782800,6.04178271484375,1.9826555252075195,0.08660411834716797,-3.0664288997650146
1733461398883762000,6.051761962890625,2.510913848876953,-0.26828551292419434,-3.619717597961426
1733461398893771500,6.061771484375,4.325972557067871,-1.1071441173553467,-3.692098617553711
1733461398903781400,6.071781494140625,6.863536834716797,-2.5269484519958496,-2.1114466190338135
1733461398913760800,6.0817607421875,8.868739128112793,-3.238295078277588,-1.5811679363250732
1733461398923770400,6.091770263671875,9.068824768066406,-3.6100587844848633,-1.1492552757263184
1733461398933780200,6.1017802734375,7.426852226257324,-3.527097702026367,-1.3357725143432617
1733461398943759600,6.111759521484375,3.896268844604492,-3.2620465755462646,-1.692336082458496
1733461398953769500,6.12176953125,0.816131591796875,-3.257920265197754,-1.5273414850234985
1733461398963779000,6.131779052734375,-2.0485429763793945,-3.136878252029419,-2.5368754863739014
1733461398973758200,6.14175830078125,-4.1977057456970215,-2.9142262935638428,-2.3621432781219482
1733461398983768000,6.15176806640625,-6.071677207946777,-2.82452392578125,-2.303997755050659
1733461398993777700,6.161777587890625,-7.22314453125,-2.611003875732422,-2.189652919769287
1733461399003757000,6.171757080078125,-8.413670539855957,-2.607816219329834,-1.6737587451934814
1733461399013767000,6.181766845703125,-8.47726058959961,-2.7706682682037354,-1.0826408863067627
1733461399023825700,6.19182568359375,-7.6327996253967285,-2.3326759338378906,-1.4366036653518677
1733461399033756000,6.201755859375,-5.988142967224121,-3.1113595962524414,0.5067750215530396
1733461399043765800,6.211765869140625,-4.6977949142456055,-3.8239035606384277,1.953932762145996
1733461399053775400,6.221775390625,-2.5611400604248047,-4.0696306228637695,2.353562116622925
1733461399063754800,6.231754638671875,-1.163834571838379,-3.413618564605713,0.9208415150642395
1733461399073764400,6.241764404296875,0.15262699127197266,-2.448491334915161,-0.7549094557762146
1733461399083774000,6.25177392578125,1.1739215850830078,-1.88486647605896,-1.4673517942428589
1733461399093783800,6.26178369140625,1.7655754089355469,-1.3924022912979126,-1.9879391193389893
1733461399103763200,6.27176318359375,1.6851263046264648,-1.153927206993103,-1.9436594247817993
1733461399113772800,6.281772705078125,1.3658571243286133,-1.0422674417495728,-1.4952735900878906
1733461399123782700,6.29178271484375,1.2635869979858398,-1.0746642351150513,-0.9910295009613037
1733461399133762000,6.301761962890625,1.250288963317871,-0.8876552581787109,-0.8840962648391724
1733461399143771600,6.311771728515625,1.2683172225952148,-0.8200781345367432,-0.6539355516433716
1733461399153781500,6.321781494140625,1.2435131072998047,-0.704322338104248,-0.49935102462768555
1733461399163760600,6.3317607421875,1.1293954849243164,-0.6216542720794678,-0.3088565468788147
1733461399173770200,6.341770263671875,0.9022951126098633,-0.6044373512268066,-0.18430007994174957
1733461399183780000,6.351780029296875,0.5984230041503906,-0.5917994976043701,-0.006666585803031921
1733461399193759500,6.361759521484375,0.3793611526489258,-0.6310939788818359,0.15149347484111786
1733461399203769300,6.371769287109375,-0.16817951202392578,-0.6195011138916016,0.05838856101036072
1733461399213779000,6.381779052734375,-0.5153722763061523,-0.3670082092285156,-0.2793162167072296
1733461399223758300,6.39175830078125,-0.5859298706054688,-0.351665735244751,-0.533141553401947
1733461399233768200,6.401768310546875,-0.610072135925293,-0.4546666145324707,-0.5845291614532471
1733461399243777800,6.41177783203125,-0.7675971984863281,-0.5956668853759766,-0.7650259137153625
1733461399253757000,6.4217568359375,-0.9751148223876953,-0.7897276878356934,-0.8050012588500977
1733461399263766800,6.431766845703125,-1.1859855651855469,-0.9845383167266846,-0.7024948000907898
1733461399273776400,6.4417763671875,-1.4670872688293457,-1.1664894819259644,-0.5869848728179932
1733461399283755800,6.451755859375,-1.6604127883911133,-1.2423436641693115,-0.45743295550346375
1733461399293765600,6.461765625,-1.7469220161437988,-1.2504360675811768,-0.5203551054000854
1733461399303775200,6.471775146484375,-1.4439301490783691,-1.1462491750717163,-0.6212000846862793
1733461399313754600,6.481754638671875,-0.8207721710205078,-0.9735984802246094,-0.9110857248306274
1733461399323764500,6.491764404296875,-0.37053775787353516,-0.7520430088043213,-1.2438020706176758
1733461399333774000,6.501774169921875,-0.13112735748291016,-0.6143026351928711,-1.559544324874878
1733461399343784000,6.511783935546875,-0.2125387191772461,-0.6179518699645996,-1.5337822437286377
1733461399353763000,6.52176318359375,-0.37813377380371094,-0.7064554691314697,-1.5489977598190308
1733461399363773000,6.53177294921875,-0.31534385681152344,-0.9029445648193359,-1.6327399015426636
1733461399373782800,6.54178271484375,0.003528594970703125,-0.9625387191772461,-1.8684784173965454
1733461399383762000,6.551761962890625,0.7216205596923828,-1.149370551109314,-1.9392783641815186
1733461399393771500,6.561771484375,1.157954216003418,-0.8155938386917114,-1.3991327285766602
1733461399403781400,6.571781494140625,1.4067649841308594,-0.6238486766815186,-1.5361814498901367
1733461399413760800,6.5817607421875,1.8953361511230469,-1.3200937509536743,0.6015328764915466
1733461399423770400,6.591770263671875,1.5761947631835938,-0.6624407768249512,-0.23050588369369507
1733461399433780200,6.6017802734375,1.1388311386108398,-0.25928330421447754,-0.6256251335144043
1733461399443759600,6.611759521484375,0.310028076171875,-0.0939633846282959,-1.0785510540008545
1733461399453769500,6.62176953125,-0.44155120849609375,0.04127192497253418,-2.2516050338745117
1733461399463779000,6.631779052734375,-0.2390880584716797,-0.06562542915344238,-3.139965534210205
1733461399473758200,6.64175830078125,2.3871021270751953,-1.5808303356170654,-2.194545030593872
1733461399483768000,6.65176806640625,5.641168594360352,-2.8166542053222656,-1.6409573554992676
1733461399493777700,6.661777587890625,8.967472076416016,-3.657863140106201,-1.021870493888855
1733461399503757000,6.671757080078125,10.960732460021973,-3.658438205718994,-0.7973729372024536
1733461399513767000,6.681766845703125,11.860464096069336,-3.5070571899414062,-0.25798237323760986
1733461399523776500,6.691776611328125,10.592068672180176,-3.4386417865753174,0.43613511323928833
1733461399533756000,6.701755859375,7.284560203552246,-3.1831440925598145,1.1249687671661377
1733461399543765800,6.711765869140625,3.767404556274414,-2.8760151863098145,1.6943202018737793
1733461399553775400,6.721775390625,0.07271003723144531,-2.539098024368286,2.0651698112487793
1733461399563754800,6.731754638671875,-2.7078399658203125,-2.217305898666382,2.0863451957702637
1733461399573764400,6.741764404296875,-4.549464225769043,-2.045412540435791,2.2874748706817627
1733461399583774000,6.75177392578125,-4.85024356842041,-2.1135218143463135,2.6954071521759033
1733461399593783800,6.76178369140625,-4.269772052764893,-2.268716335296631,3.1448569297790527
1733461399603763200,6.77176318359375,-3.7187323570251465,-2.1227893829345703,2.7391767501831055
1733461399613772800,6.781772705078125,-3.083746910095215,-1.901922345161438,2.417038917541504
1733461399623782700,6.79178271484375,-2.460512638092041,-1.9304395914077759,2.3556535243988037
1733461399633762000,6.801761962890625,-2.0870842933654785,-1.9855852127075195,2.361207962036133
1733461399643771600,6.811771728515625,-2.1710166931152344,-1.7193467617034912,1.6406910419464111
1733461399653781500,6.821781494140625,-2.006042957305908,-2.1096253395080566,2.1666922569274902
1733461399663760600,6.8317607421875,-2.169985771179199,-2.0703189373016357,1.7294244766235352
1733461399673770200,6.841770263671875,-2.3054795265197754,-2.035952568054199,1.5561782121658325
1733461399683780000,6.851780029296875,-2.357178211212158,-2.1667277812957764,1.6703740358352661
1733461399693759500,6.861759521484375,-2.5121970176696777,-2.9181902408599854,2.959240436553955
1733461399703769300,6.871769287109375,-2.944859504699707,-3.103724956512451,2.9281983375549316
1733461399713779000,6.881779052734375,-2.3784561157226562,-3.0730273723602295,2.7122387886047363
1733461399723758300,6.89175830078125,-1.5823683738708496,-3.095341920852661,2.390355110168457
1733461399733768200,6.901768310546875,-0.3914947509765625,-3.059814214706421,2.280003547668457
1733461399743777800,6.91177783203125,0.515507698059082,-2.958688735961914,2.2723565101623535
1733461399753757000,6.9217568359375,1.4774236679077148,-2.9155333042144775,2.5655405521392822
1733461399763766800,6.931766845703125,1.8015766143798828,-2.2941765785217285,2.039418935775757
1733461399773776400,6.9417763671875,2.3105573654174805,-2.42549204826355,2.8361716270446777
1733461399783755800,6.951755859375,2.4780445098876953,-1.985252022743225,2.485548973083496
1733461399793765600,6.961765625,2.5601930618286133,-1.9174069166183472,2.6381049156188965
1733461399803775200,6.971775146484375,2.670283317565918,-1.1873743534088135,2.0299899578094482
1733461399813754600,6.981754638671875,2.420408248901367,-1.355474591255188,1.8276150226593018
1733461399823764500,6.991764404296875,1.7668390274047852,-1.6521828174591064,2.9296751022338867
1733461399833774000,7.001774169921875,1.1734161376953125,-1.4036245346069336,3.055911064147949
1733461399843784000,7.011783935546875,0.9554548263549805,-1.233872652053833,2.6437172889709473
1733461399853763000,7.02176318359375,0.8478250503540039,-1.2170946598052979,2.7201695442199707
1733461399863773000,7.03177294921875,0.7344818115234375,-1.2772903442382812,2.8758325576782227
1733461399873782800,7.04178271484375,0.9333009719848633,-1.285991907119751,2.7409796714782715
1733461399883762000,7.051761962890625,1.06207275390625,-1.1570948362350464,2.4107112884521484
1733461399893771500,7.061771484375,0.7698135375976562,-1.1075245141983032,2.339914083480835
1733461399903781400,7.071781494140625,0.27524852752685547,-1.1246939897537231,2.5700693130493164
1733461399913760800,7.0817607421875,-0.5964193344116211,-1.361840009689331,3.243715524673462
1733461399923770400,7.091770263671875,-1.1737661361694336,-1.4575469493865967,2.82951283454895
1733461399933780200,7.1017802734375,-1.740342617034912,-1.501189112663269,2.8232994079589844
1733461399943759600,7.111759521484375,-1.669996738433838,-1.7839076519012451,3.0794925689697266
1733461399953769500,7.12176953125,-0.91192626953125,-2.4533276557922363,3.683406352996826
1733461399963779000,7.131779052734375,-0.29186058044433594,-2.595716953277588,3.5408740043640137
1733461399973758200,7.14175830078125,0.26244258880615234,-2.510009288787842,2.962376832962036
1733461399983768000,7.15176806640625,0.7589941024780273,-2.367375612258911,2.6182360649108887
1733461399993777700,7.161777587890625,1.1843223571777344,-2.2170963287353516,2.2630982398986816
1733461400003757000,7.171757080078125,1.3601665496826172,-2.0106360912323,1.894784927368164
1733461400013767000,7.181766845703125,1.2424554824829102,-1.8573808670043945,1.6938503980636597
1733461400023776500,7.191776611328125,1.0729122161865234,-2.2545149326324463,2.430626630783081
1733461400033756000,7.201755859375,0.6952304840087891,-2.186789035797119,2.009693145751953
1733461400043765800,7.211765869140625,0.18749618530273438,-1.8846725225448608,1.154958724975586
1733461400053775400,7.221775390625,0.05177879333496094,-1.7430566549301147,0.7204567790031433
1733461400063754800,7.231754638671875,0.1852273941040039,-1.7155330181121826,0.47541043162345886
1733461400073764400,7.241764404296875,0.4145011901855469,-1.7099510431289673,0.37013253569602966
1733461400083774000,7.25177392578125,0.7801294326782227,-1.809217095375061,0.49448373913764954
1733461400093783800,7.26178369140625,1.035048484802246,-2.0493736267089844,0.8469828367233276
1733461400103763200,7.27176318359375,1.1475629806518555,-2.028319835662842,0.766862154006958
1733461400113772800,7.281772705078125,0.9832324981689453,-1.8538236618041992,0.4721626937389374
1733461400123782700,7.29178271484375,0.7191886901855469,-1.6151583194732666,0.10862284898757935
1733461400133762000,7.301761962890625,0.3367176055908203,-1.2986787557601929,-0.4987607002258301
1733461400143771600,7.311771728515625,0.044986724853515625,-1.0095881223678589,-0.8707691431045532
1733461400153781500,7.321781494140625,-0.09250640869140625,-0.8259201645851135,-1.1150113344192505
1733461400163760600,7.3317607421875,-0.09915447235107422,-0.6797304749488831,-1.017570972442627
1733461400173770200,7.341770263671875,0.025183677673339844,-0.5356693863868713,-0.9710419178009033
1733461400183780000,7.351780029296875,0.07190608978271484,-0.35260695219039917,-0.8693201541900635
1733461400193759500,7.361759521484375,0.014519691467285156,-0.1646735668182373,-0.8033909201622009
1733461400203769300,7.371769287109375,-0.039261817932128906,0.01764017343521118,-0.7533513903617859
1733461400213779000,7.381779052734375,-0.1997060775756836,0.35724151134490967,-0.9656394124031067
1733461400223758300,7.39175830078125,-0.4718141555786133,0.3909083604812622,-0.4525297284126282
1733461400233768200,7.401768310546875,-0.7968082427978516,0.06752181053161621,0.24588525295257568
1733461400243777800,7.41177783203125,-1.5561494827270508,0.10020369291305542,0.21116241812705994
1733461400253757000,7.4217568359375,-2.046367645263672,0.14031416177749634,-0.15881001949310303
1733461400263766800,7.431766845703125,-2.1665210723876953,0.24150478839874268,-0.6381281018257141
1733461400273776400,7.4417763671875,-1.952052116394043,0.19064563512802124,-0.6648560762405396
1733461400283755800,7.451755859375,-1.5149822235107422,-0.17559194564819336,-0.35739630460739136
1733461400293765600,7.461765625,-1.074972152709961,-0.11179709434509277,-0.6141162514686584
1733461400303775200,7.471775146484375,-0.562291145324707,0.0032016634941101074,-1.048374891281128
1733461400313754600,7.481754638671875,-0.2376861572265625,0.18049407005310059,-1.3984293937683105
1733461400323764500,7.491764404296875,-0.16817378997802734,0.38928937911987305,-1.6840832233428955
1733461400333774000,7.501774169921875,-0.2964153289794922,0.5525672435760498,-1.7790074348449707
1733461400343784000,7.511783935546875,-0.5845184326171875,0.7528068423271179,-1.755435585975647
1733461400353763000,7.52176318359375,-0.9562797546386719,0.889212429523468,-1.8176101446151733
1733461400363773000,7.53177294921875,-1.1991376876831055,1.0731017589569092,-1.8892748355865479
1733461400373782800,7.54178271484375,-1.2124824523925781,1.2455403804779053,-1.8384425640106201
1733461400383762000,7.551761962890625,-1.1160202026367188,1.3504911661148071,-1.8310577869415283
1733461400393771500,7.561771484375,-0.8354272842407227,1.514463186264038,-1.607706069946289
1733461400403781400,7.571781494140625,-0.4831428527832031,1.6288917064666748,-1.345468521118164
1733461400413760800,7.5817607421875,-0.24828243255615234,1.6783061027526855,-1.129083275794983
1733461400423770400,7.591770263671875,0.032012939453125,1.809073805809021,-1.1609121561050415
1733461400433780200,7.6017802734375,0.4271678924560547,1.9579005241394043,-1.1760473251342773
1733461400443759600,7.611759521484375,0.7714900970458984,1.9819462299346924,-1.2637048959732056
1733461400453769500,7.62176953125,1.0147781372070312,2.0856540203094482,-1.2330065965652466
1733461400463779000,7.631779052734375,1.399148941040039,1.850089192390442,-0.800480842590332
1733461400473758200,7.64175830078125,1.575277328491211,1.7238174676895142,-0.5993064045906067
1733461400483768000,7.65176806640625,1.7205514907836914,1.5912314653396606,-0.48796969652175903
1733461400493777700,7.661777587890625,1.895237922668457,1.6489489078521729,-0.5195906162261963
1733461400503757000,7.671757080078125,2.0350189208984375,1.6886212825775146,-0.39257144927978516
1733461400513767000,7.681766845703125,2.202901840209961,1.663590669631958,-0.2650841474533081
1733461400523776500,7.691776611328125,2.3385562896728516,2.006690502166748,-0.549946665763855
1733461400533756000,7.701755859375,2.425360679626465,2.365906238555908,-0.641217827796936
1733461400543765800,7.711765869140625,2.1233091354370117,2.538818597793579,-0.5544440746307373
1733461400553775400,7.721775390625,1.3366594314575195,2.4690728187561035,-0.625471830368042
1733461400563754800,7.731754638671875,0.4694795608520508,2.119227409362793,-0.5123649835586548
1733461400573764400,7.741764404296875,-0.10576820373535156,1.5368049144744873,-0.4003937244415283
1733461400583774000,7.75177392578125,0.055916786193847656,1.4270105361938477,-1.4545572996139526
1733461400593783800,7.76178369140625,2.1967782974243164,0.2400544285774231,-0.8578723669052124
1733461400603763200,7.77176318359375,4.7363481521606445,-0.896467924118042,-0.18777132034301758
1733461400613772800,7.781772705078125,7.305961608886719,-1.8463330268859863,0.9843118190765381
1733461400623782700,7.79178271484375,8.776663780212402,-2.1889467239379883,1.6068038940429688
1733461400633762000,7.801761962890625,8.61332893371582,-2.9611659049987793,2.4743294715881348
1733461400643771600,7.811771728515625,7.755683898925781,-3.0851259231567383,3.080951690673828
1733461400653781500,7.821781494140625,5.695473670959473,-2.505857229232788,2.273120880126953
1733461400663760600,7.8317607421875,3.1549949645996094,-1.8121089935302734,0.9140119552612305
1733461400673770200,7.841770263671875,0.6629981994628906,-0.47848179936408997,-0.7980507612228394
1733461400683780000,7.851780029296875,-1.2314186096191406,-0.20620137453079224,-1.1010162830352783
1733461400693759500,7.861759521484375,-2.29799222946167,-0.28682956099510193,-1.0349125862121582
1733461400703769300,7.871769287109375,-3.215482234954834,-0.5407203435897827,-0.5340590476989746
1733461400713779000,7.881779052734375,-3.9112377166748047,-0.8542265892028809,-0.04104304313659668
1733461400723758300,7.89175830078125,-4.5859599113464355,-1.0254675149917603,0.11778736114501953
1733461400733768200,7.901768310546875,-4.541088104248047,-1.077190637588501,0.2482900619506836
1733461400743777800,7.91177783203125,-4.46002197265625,-0.9455795288085938,-0.15258657932281494
1733461400753757000,7.9217568359375,-4.125221252441406,-1.378705382347107,0.587805449962616
1733461400763766800,7.931766845703125,-3.845923900604248,-1.5175716876983643,0.5832082033157349
1733461400773776400,7.9417763671875,-3.499960422515869,-1.5094249248504639,0.2813984751701355
1733461400783755800,7.951755859375,-2.8251328468322754,-1.5427851676940918,0.17048311233520508
1733461400793765600,7.961765625,-2.052213191986084,-1.3260854482650757,-0.24447846412658691
1733461400803775200,7.971775146484375,-1.578989028930664,-1.107629418373108,-0.642859697341919
1733461400813754600,7.981754638671875,-1.041640281677246,-0.8648107051849365,-0.8737605810165405
1733461400823764500,7.991764404296875,-0.684636116027832,-0.6260722875595093,-0.9523739814758301
1733461400833774000,8.001774169921875,-0.5709400177001953,-0.31032997369766235,-1.012595295906067
1733461400843784000,8.011783935546875,-0.7616205215454102,-0.11319577693939209,-0.8721290826797485
1733461400853763000,8.02176318359375,-1.1284255981445312,-0.006267547607421875,-0.7401297092437744
1733461400863773000,8.03177294921875,-1.4540176391601562,0.09962701797485352,-0.8111940622329712
1733461400873782800,8.04178271484375,-1.5372047424316406,0.08599543571472168,-0.7984119653701782
1733461400883762000,8.051761962890625,-1.5121831893920898,0.1353147029876709,-0.9083611965179443
1733461400893771500,8.061771484375,-1.4686460494995117,0.16186821460723877,-1.0156234502792358
1733461400903781400,8.071781494140625,-1.3029680252075195,0.24256503582000732,-0.9302849769592285
1733461400913760800,8.0817607421875,-1.0695781707763672,0.296667218208313,-0.8523725271224976
1733461400923770400,8.091770263671876,-0.8132848739624023,0.488956093788147,-0.8292641639709473
1733461400933780200,8.1017802734375,-0.6129159927368164,0.7881431579589844,-0.854724645614624
1733461400943759600,8.111759521484375,-0.3625965118408203,1.0856379270553589,-0.939437985420227
1733461400953769500,8.12176953125,-0.13715267181396484,1.3168131113052368,-0.9178447723388672
1733461400963779000,8.131779052734375,-0.1583852767944336,1.5443583726882935,-0.6450173854827881
1733461400973758200,8.14175830078125,-0.34826087951660156,1.6424508094787598,-0.4990767240524292
1733461400983768000,8.15176806640625,-0.6267623901367188,1.7535666227340698,-0.17583489418029785
1733461400993777700,8.161777587890626,-0.7651786804199219,1.6683759689331055,0.24381768703460693
1733461401003757000,8.171757080078125,-0.87481689453125,1.5499130487442017,0.46695780754089355
1733461401013767000,8.181766845703125,-0.6111392974853516,1.8115500211715698,0.6927430033683777
1733461401023776500,8.191776611328125,-0.22730541229248047,1.5963170528411865,1.0018047094345093
1733461401033756000,8.201755859375,-0.30141258239746094,1.753223180770874,0.9487323760986328
1733461401043765800,8.211765869140624,-0.3098459243774414,1.4514766931533813,1.6855226755142212
1733461401053775400,8.221775390625,-0.23494625091552734,1.222611427307129,1.9822883605957031
1733461401063754800,8.231754638671875,-0.11440849304199219,1.0983715057373047,2.1713078022003174
1733461401073764400,8.241764404296875,0.020776748657226562,0.9109359979629517,2.2530176639556885
1733461401083774000,8.25177392578125,0.10865402221679688,0.9591033458709717,1.793051838874817
1733461401093783800,8.26178369140625,0.0655660629272461,0.674254298210144,0.31812167167663574
1733461401103763200,8.27176318359375,0.06908893585205078,0.8219921588897705,-0.23415029048919678
1733461401113772800,8.281772705078126,0.05870628356933594,0.9040349721908569,-0.7032555937767029
1733461401123782700,8.29178271484375,0.12221050262451172,0.9622563123703003,-0.9491302967071533
1733461401133762000,8.301761962890625,0.2832975387573242,0.565415620803833,-0.9678909182548523
1733461401143771600,8.311771728515625,0.5398321151733398,0.2951054573059082,-0.8813452124595642
1733461401153781500,8.321781494140625,0.8964805603027344,0.2458646297454834,-0.6833404898643494
1733461401163760600,8.3317607421875,1.5161819458007812,0.24777531623840332,-0.39915138483047485
1733461401173770200,8.341770263671876,2.3077640533447266,0.2839505672454834,0.0015682578086853027
1733461401183780000,8.351780029296876,3.277872085571289,0.4543576240539551,0.2590009570121765
1733461401193759500,8.361759521484375,3.6297130584716797,0.5572419166564941,0.1997421383857727
1733461401203769300,8.371769287109375,3.6435298919677734,0.3149545192718506,0.3065459430217743
1733461401213779000,8.381779052734375,3.371744155883789,-0.3243345022201538,0.39309951663017273
1733461401223758300,8.39175830078125,3.436738967895508,-1.1546332836151123,0.42769718170166016
1733461401233768200,8.401768310546874,3.9722890853881836,-1.8319060802459717,-0.6073120832443237
1733461401243777800,8.41177783203125,5.368853569030762,-2.857252836227417,-0.05719178915023804
1733461401253757000,8.4217568359375,6.7711896896362305,-3.7449443340301514,0.4036256670951843
1733461401263766800,8.431766845703125,7.112879753112793,-3.9953722953796387,0.4765597879886627
1733461401273776400,8.4417763671875,6.177145004272461,-3.1677908897399902,0.32221588492393494
1733461401283755800,8.451755859375,4.561603546142578,-2.9937286376953125,-1.41504967212677
1733461401293765600,8.461765625,2.0925064086914062,-2.451991081237793,-0.596626877784729
1733461401303775200,8.471775146484376,-0.07227420806884766,-2.2903482913970947,0.42526769638061523
1733461401313754600,8.481754638671875,-2.483625888824463,-2.313422203063965,0.9156689643859863
1733461401323764500,8.491764404296875,-4.515871047973633,-2.117302179336548,1.2153505086898804
1733461401333774000,8.501774169921875,-5.874244689941406,-2.1735925674438477,1.283384919166565
1733461401343784000,8.511783935546875,-6.420407295227051,-2.336512565612793,1.3792885541915894
1733461401353763300,8.521763427734374,-6.068533897399902,-2.5752434730529785,1.3792428970336914
1733461401363773000,8.53177294921875,-5.3520588874816895,-2.4605703353881836,0.8103094100952148
1733461401373782800,8.54178271484375,-3.658440589904785,-2.5427775382995605,1.3116309642791748
1733461401383762000,8.551761962890625,-2.305384635925293,-2.97007417678833,1.792279839515686
1733461401393771500,8.561771484375,-1.6578307151794434,-3.0381460189819336,2.317188024520874
1733461401403781400,8.571781494140625,-1.3082714080810547,-2.6205685138702393,1.820563554763794
1733461401413760800,8.5817607421875,-0.9590921401977539,-1.9834262132644653,0.8946951627731323
1733461401423770400,8.591770263671876,-0.9996042251586914,-1.3310706615447998,-0.08446726202964783
1733461401433780200,8.6017802734375,-1.108384132385254,-0.7779450416564941,-0.5119633674621582
1733461401443759600,8.611759521484375,-1.0141630172729492,-0.5602372884750366,-0.5717452764511108
1733461401453769500,8.62176953125,-0.9296150207519531,-0.3361116647720337,-0.6020160913467407
1733461401463779000,8.631779052734375,-0.7223176956176758,-0.2619718313217163,-0.5544053912162781
1733461401473758200,8.64175830078125,-0.4441070556640625,-0.31671154499053955,-0.23311227560043335
1733461401483768000,8.65176806640625,-0.47431278228759766,-0.27888381481170654,-0.22266429662704468
1733461401493777700,8.661777587890626,-0.46918678283691406,-0.3456919193267822,-0.1773775815963745
1733461401503757000,8.671757080078125,-0.43886852264404297,-0.36733078956604004,-0.06695550680160522
1733461401513767000,8.681766845703125,-0.47455692291259766,-0.35704898834228516,-0.08372986316680908
1733461401523776500,8.691776611328125,-0.5281295776367188,-0.3221132755279541,0.029045939445495605
1733461401533756000,8.701755859375,-0.6135778427124023,-0.2898697853088379,0.25864744186401367
1733461401543765800,8.711765869140624,-0.667633056640625,-0.2468336820602417,0.38501009345054626
1733461401553775400,8.721775390625,-0.5580911636352539,-0.009378433227539062,0.2044469118118286
1733461401563754800,8.731754638671875,-0.17679500579833984,0.2808346748352051,0.027906298637390137
1733461401573764400,8.741764404296875,0.1701202392578125,0.35721755027770996,0.12067878246307373
1733461401583774000,8.75177392578125,0.6045818328857422,0.30977606773376465,0.31503042578697205
1733461401593783800,8.76178369140625,0.912872314453125,0.21529340744018555,0.5628251433372498
1733461401603763200,8.77176318359375,1.1926326751708984,0.12018370628356934,0.6591274738311768
1733461401613772800,8.781772705078126,1.342909812927246,0.07648801803588867,0.6671416163444519
1733461401623782700,8.79178271484375,1.3254766464233398,-0.03231453895568848,0.6279290318489075
1733461401633762000,8.801761962890625,1.3204689025878906,-0.17825472354888916,0.5602827072143555
1733461401643771600,8.811771728515625,1.381216049194336,-0.40925073623657227,0.31383636593818665
1733461401653781500,8.821781494140625,1.7047157287597656,-0.5007027387619019,0.09922927618026733
1733461401663760600,8.8317607421875,2.197983741760254,-0.4742577075958252,0.028516948223114014
1733461401673770200,8.841770263671876,2.84415340423584,-0.48200368881225586,-0.007683813571929932
1733461401683780000,8.851780029296876,3.4016714096069336,-0.4427165985107422,-0.06616991758346558
1733461401693759500,8.861759521484375,3.9556198120117188,-0.21223950386047363,0.13890475034713745
1733461401703769300,8.871769287109375,3.8833255767822266,-0.12241029739379883,0.2542211413383484
1733461401713779000,8.881779052734375,2.959909439086914,-0.1599440574645996,0.1507575511932373
1733461401723758300,8.89175830078125,1.8192949295043945,-0.20430350303649902,0.0956084132194519
1733461401733768200,8.901768310546874,0.8245620727539062,-0.16904067993164062,-0.048385024070739746
1733461401743777800,8.91177783203125,0.4124135971069336,-0.024345874786376953,-0.3194185495376587
1733461401753757000,8.9217568359375,0.2634563446044922,-0.024028778076171875,-0.8598670959472656
1733461401763766800,8.931766845703125,0.010293960571289062,-0.4295969009399414,-1.2284646034240723
1733461401773776400,8.9417763671875,-0.06439399719238281,-0.9995709657669067,-1.5867379903793335
1733461401783755800,8.951755859375,0.6476230621337891,-2.093942642211914,-1.7842150926589966
1733461401793765600,8.961765625,2.2036819458007812,-3.064154624938965,-1.4427107572555542
1733461401803775200,8.971775146484376,4.287353515625,-3.7481226921081543,-0.8311738967895508
1733461401813754600,8.981754638671875,5.6007232666015625,-3.8757598400115967,-0.8249304294586182
1733461401823764500,8.991764404296875,5.946528434753418,-3.471919059753418,-1.1181221008300781
1733461401833774000,9.001774169921875,5.269920349121094,-2.767331123352051,-1.6328376531600952
1733461401843784000,9.011783935546875,3.36505126953125,-2.516854763031006,-2.5948143005371094
1733461401853763300,9.021763427734374,1.4649696350097656,-2.3040354251861572,-2.8654141426086426
1733461401863773000,9.03177294921875,-0.6715154647827148,-2.326556921005249,-3.006864547729492
1733461401873782800,9.04178271484375,-2.3521981239318848,-2.460214138031006,-3.2576708793640137
1733461401883762000,9.051761962890625,-3.365100383758545,-2.6842880249023438,-3.0472872257232666
1733461401893771500,9.061771484375,-4.068722724914551,-2.79024338722229,-2.3570704460144043
1733461401903781400,9.071781494140625,-4.64528226852417,-2.871875047683716,-1.3339667320251465
1733461401913760800,9.0817607421875,-6.011501789093018,-2.898033857345581,0.035739779472351074
1733461401923770400,9.091770263671876,-6.359358310699463,-2.6717212200164795,0.7956368327140808
1733461401933780200,9.1017802734375,-5.173830032348633,-2.345935106277466,0.7932321429252625
1733461401943759600,9.111759521484375,-3.6677017211914062,-2.0016837120056152,0.4275537133216858
1733461401953769500,9.12176953125,-1.9842071533203125,-1.5864906311035156,-0.09111875295639038
1733461401963779000,9.131779052734375,-0.5546016693115234,-1.2519043684005737,-0.6475461721420288
1733461401973758200,9.14175830078125,0.6789360046386719,-1.0975648164749146,-1.052412748336792
1733461401983768000,9.15176806640625,1.224802017211914,-0.98004150390625,-1.1551231145858765
1733461401993777700,9.161777587890626,1.2447052001953125,-0.9744291305541992,-0.9220066070556641
1733461402003757000,9.171757080078125,0.7676563262939453,-1.1022613048553467,-0.5952681303024292
1733461402013767000,9.181766845703125,-0.05878162384033203,-1.0578685998916626,-0.34738069772720337
1733461402023776500,9.191776611328125,-0.9362554550170898,-0.9593207836151123,-0.2441452145576477
1733461402033756000,9.201755859375,-1.4818787574768066,-0.8715718984603882,-0.23028188943862915
1733461402043765800,9.211765869140624,-1.9081721305847168,-0.8028935194015503,-0.2092767357826233
1733461402053775400,9.221775390625,-2.250166893005371,-0.7830486297607422,0.013608157634735107
1733461402063754800,9.231754638671875,-2.577152729034424,-0.7902233600616455,0.20520150661468506
1733461402073764400,9.241764404296875,-2.5947327613830566,-0.7802608013153076,0.18459421396255493
1733461402083774000,9.25177392578125,-2.3627138137817383,-0.6683189868927002,0.1874496042728424
1733461402093783800,9.26178369140625,-1.952690601348877,-0.5789844989776611,0.04040801525115967
1733461402103763200,9.27176318359375,-1.574796199798584,-0.432265043258667,-0.10761886835098267
1733461402113772800,9.281772705078126,-1.1683111190795898,-0.2979128360748291,-0.2573949098587036
1733461402123782700,9.29178271484375,-0.8730058670043945,-0.1869208812713623,-0.18168669939041138
1733461402133762000,9.301761962890625,-0.5978240966796875,-0.03557395935058594,-0.054657697677612305
1733461402143771600,9.311771728515625,-0.26612281799316406,0.08907413482666016,0.024630308151245117
1733461402153781500,9.321781494140625,0.11206436157226562,0.16192269325256348,0.19437319040298462
1733461402163760600,9.3317607421875,0.3156900405883789,0.18947196006774902,0.20264914631843567
1733461402173770200,9.341770263671876,0.3850288391113281,0.25097036361694336,0.09472811222076416
1733461402183780000,9.351780029296876,0.28365421295166016,0.1336960792541504,-0.002374708652496338
1733461402193759500,9.361759521484375,-0.49712657928466797,-0.337674617767334,-0.650558590888977
1733461402203769300,9.371769287109375,-3.7009644508361816,0.33658432960510254,0.6653926968574524
1733461402213779000,9.381779052734375,-1.6696066856384277,0.3276236057281494,1.2357945442199707
1733461402223758300,9.39175830078125,0.5966625213623047,-0.5677297115325928,1.09151291847229
1733461402233768200,9.401768310546874,0.8756704330444336,-0.7566683292388916,0.4799536466598511
1733461402243777800,9.41177783203125,1.104292869567871,-0.6330883502960205,0.1032366156578064
1733461402253757000,9.4217568359375,1.3352317810058594,-1.1481186151504517,0.22702553868293762
1733461402263766800,9.431766845703125,2.2635154724121094,-1.5731223821640015,0.21675682067871094
1733461402273776400,9.4417763671875,2.9669723510742188,-1.4187192916870117,0.0786927342414856
1733461402283755800,9.451755859375,4.041950225830078,-1.6004133224487305,0.49194037914276123
1733461402293765600,9.461765625,5.545310974121094,-1.4906127452850342,0.2689822316169739
1733461402303775200,9.471775146484376,6.828000068664551,-0.9257403612136841,-0.5555678606033325
1733461402313754600,9.481754638671875,7.4802093505859375,-0.46359896659851074,-1.0678054094314575
1733461402323764500,9.491764404296875,7.557151794433594,-0.695111095905304,-1.239903211593628
1733461402333774000,9.501774169921875,7.082733154296875,-1.5543125867843628,-1.2322584390640259
1733461402343784000,9.511783935546875,6.762134552001953,-2.2372794151306152,-0.9382373094558716
1733461402353763300,9.521763427734374,6.453108787536621,-2.5916128158569336,-0.7705560922622681
1733461402363773000,9.53177294921875,5.901406288146973,-2.755520820617676,-0.730475902557373
1733461402373782800,9.54178271484375,4.834239959716797,-2.4126222133636475,-0.8941488265991211
1733461402383762000,9.551761962890625,3.6647777557373047,-2.238447666168213,-0.5340918898582458
1733461402393771500,9.561771484375,1.9137601852416992,-2.3357081413269043,0.3857109546661377
1733461402403781400,9.571781494140625,0.05650520324707031,-2.3510615825653076,0.9498831629753113
1733461402413760800,9.5817607421875,-1.9855523109436035,-2.4429030418395996,1.3254783153533936
1733461402423770400,9.591770263671876,-3.976210594177246,-2.578272819519043,1.6157324314117432
1733461402433780200,9.6017802734375,-5.854764938354492,-2.8041141033172607,1.9282047748565674
1733461402443759600,9.611759521484375,-6.900394439697266,-3.0687685012817383,1.8301222324371338
1733461402453769500,9.62176953125,-6.80771541595459,-3.3611323833465576,1.693886637687683
1733461402463779000,9.631779052734375,-6.024599552154541,-3.6558821201324463,1.763551950454712
1733461402473758200,9.64175830078125,-4.6161088943481445,-3.669619083404541,1.6300266981124878
1733461402483768000,9.65176806640625,-2.857748508453369,-3.830979347229004,2.0140459537506104
1733461402493777700,9.661777587890626,-1.6938142776489258,-3.6556851863861084,1.9626787900924683
1733461402503757000,9.671757080078125,-1.0382146835327148,-2.7532002925872803,0.6484834551811218
1733461402513767000,9.681766845703125,-0.5467386245727539,-2.0670623779296875,-0.14335888624191284
1733461402523776500,9.691776611328125,-0.032019615173339844,-1.3585498332977295,-0.8384289741516113
1733461402533756000,9.701755859375,0.22006988525390625,-0.8690187931060791,-1.1939315795898438
1733461402543765800,9.711765869140624,0.049976348876953125,-0.514195442199707,-1.1786682605743408
1733461402553775400,9.721775390625,-0.48011112213134766,-0.12414836883544922,-1.1235382556915283
1733461402563754800,9.731754638671875,-1.1178169250488281,-0.0051271915435791016,-1.0810571908950806
1733461402573764400,9.741764404296875,-1.789121150970459,0.04716849327087402,-1.0051928758621216
1733461402583774000,9.75177392578125,-2.2155747413635254,-0.060610055923461914,-0.7399480938911438
1733461402593783800,9.76178369140625,-2.3362903594970703,-0.18091273307800293,-0.3550390601158142
1733461402603763200,9.77176318359375,-2.324697971343994,-0.2637922763824463,-0.09856897592544556
1733461402613772800,9.781772705078126,-2.159731388092041,-0.26441144943237305,-0.020978331565856934
1733461402623782700,9.79178271484375,-1.8654694557189941,-0.2658984661102295,0.03165203332901001
1733461402633762000,9.801761962890625,-1.4788494110107422,-0.2885100841522217,0.1294143795967102
1733461402643771600,9.811771728515625,-1.101048469543457,-0.29559779167175293,0.2887871265411377
1733461402653781500,9.821781494140625,-0.8894624710083008,-0.2796180248260498,0.4009234309196472
1733461402663760600,9.8317607421875,-0.6995677947998047,-0.176239013671875,0.41821810603141785
1733461402673770200,9.841770263671876,-0.5474309921264648,-0.09043264389038086,0.5686965584754944
1733461402683780000,9.851780029296876,-0.5019016265869141,-0.07190394401550293,0.7638494968414307
1733461402693759500,9.861759521484375,-0.36658668518066406,-0.12325596809387207,1.0017664432525635
1733461402703769300,9.871769287109375,-0.11533355712890625,-0.15763354301452637,1.1862177848815918
1733461402713779000,9.881779052734375,0.11968135833740234,-0.12810897827148438,1.2860691547393799
1733461402723758300,9.89175830078125,0.31862354278564453,-0.10803794860839844,1.4481134414672852
1733461402733768200,9.901768310546874,0.49337291717529297,-0.06878232955932617,1.316786766052246
1733461402743777800,9.91177783203125,0.5554075241088867,-0.10399150848388672,0.9186326861381531
1733461402753757000,9.9217568359375,0.5534439086914062,-0.11060285568237305,0.27212288975715637
1733461402763766800,9.931766845703125,0.5654563903808594,-0.03334212303161621,-0.31397032737731934
1733461402773776600,9.941776611328125,0.8343038558959961,-0.10764086246490479,-0.6624292731285095
1733461402783755800,9.951755859375,1.1870203018188477,-0.38496315479278564,-0.7282081842422485
1733461402793765600,9.961765625,1.6964664459228516,-0.7287933826446533,-0.5227050185203552
1733461402803775200,9.971775146484376,2.248058319091797,-1.0305676460266113,-0.3410438895225525
1733461402813754600,9.981754638671875,3.025973320007324,-1.228557825088501,-0.42272648215293884
1733461402823764500,9.991764404296875,3.7103004455566406,-1.1899337768554688,-0.6051356792449951
1733461402833774000,10.001774169921875,4.201271057128906,-0.7247408628463745,-1.2775260210037231
1733461402843784000,10.011783935546875,4.329617500305176,-0.09386634826660156,-1.9261435270309448
1733461402853763300,10.021763427734374,4.268427848815918,0.15640342235565186,-2.285701036453247
1733461402863773000,10.03177294921875,3.8231115341186523,-0.21760988235473633,-2.7619881629943848
1733461402873782800,10.04178271484375,3.6253843307495117,-0.949756920337677,-2.9167332649230957
1733461402883762000,10.051761962890625,4.153343200683594,-1.94516122341156,-2.841668128967285
1733461402893771500,10.061771484375,5.446488380432129,-2.7625389099121094,-2.4218709468841553
1733461402903781400,10.071781494140625,7.197258949279785,-3.2680459022521973,-2.1496481895446777
1733461402913760800,10.0817607421875,8.358466148376465,-3.1092934608459473,-1.891279697418213
1733461402923770400,10.091770263671876,8.18290901184082,-2.6196155548095703,-1.8359776735305786
1733461402933780200,10.1017802734375,6.559301376342773,-2.1679084300994873,-2.1592371463775635
1733461402943759600,10.111759521484375,4.022588729858398,-2.0863149166107178,-2.2280752658843994
1733461402953769500,10.12176953125,1.5605354309082031,-2.1830854415893555,-2.2955217361450195
1733461402963779000,10.131779052734375,-1.2937288284301758,-2.2635958194732666,-2.642136812210083
1733461402973758200,10.14175830078125,-3.9956836700439453,-2.4259088039398193,-2.5601272583007812
1733461402983768000,10.15176806640625,-5.7134222984313965,-2.537599802017212,-2.3912582397460938
1733461402993777700,10.161777587890626,-6.578681468963623,-2.7979159355163574,-2.092451572418213
1733461403003757000,10.171757080078125,-6.600281238555908,-2.8688549995422363,-1.8773609399795532
1733461403013767000,10.181766845703125,-6.217633247375488,-2.879209041595459,-1.1678210496902466
1733461403023776500,10.191776611328125,-6.274003982543945,-2.986579418182373,-0.22272469103336334
1733461403033756000,10.201755859375,-6.196926116943359,-2.908547878265381,0.4436216950416565
1733461403043765800,10.211765869140624,-5.089410781860352,-2.6970651149749756,0.28063029050827026
1733461403053775400,10.221775390625,-3.814826011657715,-2.260798215866089,-0.39276957511901855
1733461403063754800,10.231754638671875,-2.705988883972168,-1.77354097366333,-0.8835127949714661
1733461403073764400,10.241764404296875,-1.3591394424438477,-1.386772632598877,-1.0455900430679321
1733461403083774000,10.25177392578125,-0.3915090560913086,-1.189717173576355,-1.182693600654602
1733461403093783800,10.26178369140625,-0.0014524459838867188,-1.0179195404052734,-1.0466711521148682
1733461403103763200,10.27176318359375,0.09299564361572266,-0.8461703062057495,-0.8671130537986755
1733461403113772800,10.281772705078126,0.09862709045410156,-0.806554913520813,-0.7425385117530823
1733461403123782700,10.29178271484375,0.2860221862792969,-0.7855054140090942,-0.6084582805633545
1733461403133762000,10.301761962890625,0.35294437408447266,-0.6684577465057373,-0.7484419345855713
1733461403143771600,10.311771728515625,0.18619823455810547,-0.548056960105896,-0.8954150676727295
1733461403153781500,10.321781494140625,-0.06571769714355469,-0.4861619472503662,-0.8908563852310181
1733461403163760600,10.3317607421875,-0.5458784103393555,-0.5038943290710449,-0.8847629427909851
1733461403173770200,10.341770263671876,-1.130314826965332,-0.477161169052124,-0.75836580991745
1733461403183780000,10.351780029296876,-1.7460026741027832,-0.47583627700805664,-0.3819977045059204
1733461403193759500,10.361759521484375,-2.037752628326416,-0.4893794059753418,-0.07788915187120438
1733461403203769300,10.371769287109375,-2.147975444793701,-0.40583062171936035,-0.0346582755446434
1733461403213779000,10.381779052734375,-1.7080988883972168,-0.2295360565185547,-0.2928510904312134
1733461403223758300,10.39175830078125,-1.0374431610107422,-0.11092710494995117,-0.5603494048118591
1733461403233768200,10.401768310546874,-0.2767000198364258,-0.056314706802368164,-0.7115238308906555
1733461403243777800,10.41177783203125,0.10639572143554688,0.021972179412841797,-0.8218684196472168
1733461403253757000,10.4217568359375,0.3668193817138672,0.13630199432373047,-0.816708505153656
1733461403263766800,10.431766845703125,0.24875259399414062,0.16800379753112793,-0.6589382886886597
1733461403273776600,10.441776611328125,-0.21169376373291016,0.22212862968444824,-0.40382492542266846
1733461403283755800,10.451755859375,-0.7469911575317383,0.29163193702697754,-0.18682357668876648
1733461403293765600,10.461765625,-1.1002674102783203,0.1744685173034668,-0.14964747428894043
1733461403303775200,10.471775146484376,-0.5316162109375,-0.020689010620117188,-0.09659567475318909
1733461403313754600,10.481754638671875,0.29938507080078125,-0.26823925971984863,0.025780996307730675
1733461403323764500,10.491764404296875,1.1297492980957031,-0.5814182758331299,0.42422014474868774
1733461403333774000,10.501774169921875,1.7397708892822266,-0.9956482648849487,0.31887751817703247
1733461403343784000,10.511783935546875,2.63277530670166,-1.3499252796173096,0.3445803225040436
1733461403353763300,10.521763427734374,3.392848014831543,-1.486094355583191,0.19964133203029633
1733461403363773000,10.53177294921875,4.131902694702148,-1.0944230556488037,-0.21306216716766357
1733461403373782800,10.54178271484375,4.6994781494140625,-0.5917866230010986,-0.22307884693145752
1733461403383762000,10.551761962890625,4.40873908996582,-0.16365647315979004,-0.3700783848762512
1733461403393771500,10.561771484375,3.573122978210449,-0.19292855262756348,-0.4628167152404785
1733461403403781400,10.571781494140625,2.6170778274536133,-0.6791003942489624,-0.1722968965768814
1733461403413760800,10.5817607421875,2.2636938095092773,-1.7146289348602295,0.33163127303123474
1733461403423770400,10.591770263671876,2.77908992767334,-2.5568230152130127,0.3395761549472809
1733461403433780200,10.6017802734375,4.286688804626465,-3.2778594493865967,0.19381248950958252
1733461403443759600,10.611759521484375,5.5603742599487305,-3.5798110961914062,0.12877026200294495
1733461403453769500,10.62176953125,6.07866096496582,-3.542248249053955,0.030607834458351135
1733461403463779000,10.631779052734375,5.454843521118164,-3.18595552444458,-0.001400962471961975
1733461403473758200,10.64175830078125,3.559579849243164,-2.737211227416992,0.00402560830116272
1733461403483768000,10.65176806640625,1.1525917053222656,-2.5634658336639404,0.26718422770500183
1733461403493777700,10.661777587890626,-1.5944018363952637,-2.511291980743408,0.7805994749069214
1733461403503757000,10.671757080078125,-3.3100433349609375,-2.431516408920288,0.7389082312583923
1733461403513767000,10.681766845703125,-4.18890380859375,-2.492647886276245,0.7499915957450867
1733461403523776500,10.691776611328125,-3.999427318572998,-2.7894909381866455,0.7666051387786865
1733461403533756000,10.701755859375,-3.138118267059326,-3.0002782344818115,1.006330132484436
1733461403543765800,10.711765869140624,-2.0551366806030273,-3.148921012878418,1.2959073781967163
1733461403553775400,10.721775390625,-1.5867514610290527,-2.9672915935516357,0.9847630858421326
1733461403563754800,10.731754638671875,-1.1662178039550781,-2.8529233932495117,0.8721030950546265
1733461403573764400,10.741764404296875,-0.8237771987915039,-2.681615114212036,0.6411235332489014
1733461403583774000,10.75177392578125,-0.7220344543457031,-2.1910858154296875,-0.3393695652484894
1733461403593783800,10.76178369140625,-0.5449857711791992,-1.772558569908142,-1.1641194820404053
1733461403603763200,10.77176318359375,-0.4298276901245117,-1.4767200946807861,-1.6397837400436401
1733461403613772800,10.781772705078126,-0.5432291030883789,-1.3691017627716064,-1.7566893100738525
1733461403623782700,10.79178271484375,-0.8249826431274414,-1.0614312887191772,-1.772035837173462
1733461403633762000,10.801761962890625,-1.1556529998779297,-0.8836550712585449,-1.643044114112854
1733461403643771600,10.811771728515625,-1.4995989799499512,-0.7727363109588623,-1.368720293045044
1733461403653781500,10.821781494140625,-1.78983736038208,-0.6659095287322998,-1.1235401630401611
1733461403663760600,10.8317607421875,-1.8522953987121582,-0.5564398765563965,-0.9831085801124573
1733461403673770200,10.841770263671876,-1.7309927940368652,-0.577094316482544,-0.7228959202766418
1733461403683780000,10.851780029296876,-1.5963001251220703,-0.6141965389251709,-0.7332490086555481
1733461403693759500,10.861759521484375,-1.4410123825073242,-0.5889344215393066,-0.748866617679596
1733461403703769300,10.871769287109375,-1.346203327178955,-0.5932295322418213,-0.7308140993118286
1733461403713779000,10.881779052734375,-1.1585750579833984,-0.6749508380889893,-0.6801530122756958
1733461403723758300,10.89175830078125,-0.8901243209838867,-0.7592425346374512,-0.6083322763442993
1733461403733768200,10.901768310546874,-0.6654548645019531,-0.9144039154052734,-0.44186270236968994
1733461403743777800,10.91177783203125,-0.45748043060302734,-0.9851326942443848,-0.446100652217865
1733461403753757000,10.9217568359375,-0.06967639923095703,-0.9214394092559814,-0.2365119457244873
1733461403763766800,10.931766845703125,0.21284770965576172,-0.8570337295532227,-0.1381089687347412
1733461403773776600,10.941776611328125,0.27980709075927734,-0.7733333110809326,-0.08894920349121094
1733461403783755800,10.951755859375,0.23934364318847656,-0.6553487777709961,-0.014443576335906982
1733461403793765600,10.961765625,0.22612762451171875,-0.5214934349060059,0.03167015314102173
1733461403803775200,10.971775146484376,0.18329238891601562,-0.4233067035675049,0.001868903636932373
1733461403813754600,10.981754638671875,0.08419990539550781,-0.22766613960266113,-0.1443239450454712
1733461403823764500,10.991764404296875,0.4404134750366211,-0.004679679870605469,-0.3809276819229126
1733461403833774000,11.001774169921875,0.7652778625488281,0.12745189666748047,-0.5185402035713196
1733461403843784000,11.011783935546875,0.6988315582275391,0.17479610443115234,-0.39895379543304443
1733461403853763300,11.021763427734374,0.2667064666748047,0.228041410446167,-0.2598549723625183
1733461403863773000,11.03177294921875,0.1997537612915039,0.27455592155456543,-0.3551063537597656
1733461403873782800,11.04178271484375,0.32146644592285156,0.2142009735107422,-0.24022483825683594
1733461403883762000,11.051761962890625,0.53466796875,0.06142568588256836,-0.0161130428314209
1733461403893771500,11.061771484375,0.7480897903442383,-0.08166384696960449,0.3286054730415344
1733461403903781400,11.071781494140625,1.2450122833251953,0.4369196891784668,-0.15017622709274292
1733461403913760800,11.0817607421875,1.4231157302856445,0.27521395683288574,-0.22429049015045166
1733461403923770400,11.091770263671876,1.413564682006836,0.2615993022918701,-0.2017209529876709
1733461403933780200,11.1017802734375,1.5140047073364258,0.1972489356994629,-0.3530614972114563
1733461403943759600,11.111759521484375,1.4824581146240234,-0.231062650680542,-0.6200208067893982
1733461403953769500,11.12176953125,1.6451425552368164,-0.8533715009689331,-0.7708715200424194
1733461403963779000,11.131779052734375,2.489773750305176,-1.7116997241973877,-0.8349152207374573
1733461403973758200,11.14175830078125,4.200336456298828,-2.513451337814331,-0.8683862686157227
1733461403983768000,11.15176806640625,7.039000511169434,-3.2256691455841064,-0.7784276008605957
1733461403993777700,11.161777587890626,8.958646774291992,-3.427055597305298,-0.7530534267425537
1733461404003757000,11.171757080078125,9.318961143493652,-3.1582610607147217,-0.914002537727356
1733461404013767000,11.181766845703125,7.9693193435668945,-2.7017483711242676,-1.2044870853424072
1733461404023776500,11.191776611328125,5.091378211975098,-2.4225778579711914,-0.9899951815605164
1733461404033756000,11.201755859375,2.1105880737304688,-2.352198839187622,-0.8731793761253357
1733461404043765800,11.211765869140624,-1.139449119567871,-2.455228805541992,-1.1481772661209106
1733461404053775400,11.221775390625,-3.5786256790161133,-2.5648903846740723,-1.3540836572647095
1733461404063754500,11.23175439453125,-5.20781946182251,-2.6058201789855957,-1.3615946769714355
1733461404073764400,11.241764404296875,-6.020552635192871,-2.708564519882202,-1.5786709785461426
1733461404083774200,11.251774169921875,-6.32106351852417,-2.730764150619507,-1.856017827987671
1733461404093783800,11.26178369140625,-6.3959641456604,-2.667705535888672,-2.2037034034729004
1733461404103763200,11.27176318359375,-6.223959922790527,-2.6379590034484863,-2.291086435317993
1733461404113772800,11.281772705078126,-5.892333984375,-2.798785924911499,-1.5912543535232544
1733461404123782700,11.29178271484375,-5.363685607910156,-2.760535717010498,-0.5881929397583008
1733461404133762300,11.30176220703125,-3.7269062995910645,-2.7402892112731934,0.30817192792892456
1733461404143772000,11.31177197265625,-1.664621353149414,-2.642904281616211,0.6985341906547546
1733461404153781500,11.321781494140625,0.7133197784423828,-2.242297887802124,0.5755205154418945
1733461404163760600,11.3317607421875,2.4826526641845703,-1.711800456047058,0.13550832867622375
1733461404173770500,11.3417705078125,3.8985681533813477,-1.152171015739441,-0.27086448669433594
1733461404183780000,11.351780029296876,4.413752555847168,-0.6573083400726318,-0.6085301041603088
1733461404193759500,11.361759521484375,4.091896057128906,-0.4114203453063965,-0.4215840995311737
1733461404203769300,11.371769287109375,3.2622861862182617,-0.36196470260620117,0.0933406800031662
1733461404213779000,11.381779052734375,2.5732288360595703,-0.44408583641052246,0.737227201461792
1733461404223758300,11.39175830078125,1.5442380905151367,-0.5777187347412109,1.4447306394577026
1733461404233768200,11.401768310546874,0.7550296783447266,-0.706057071685791,2.065518856048584
1733461404243777800,11.41177783203125,0.1924152374267578,-0.9199974536895752,2.591148853302002
1733461404253757000,11.4217568359375,-0.05394172668457031,-1.0679322481155396,2.5842437744140625
1733461404263766800,11.431766845703125,-0.13728809356689453,-1.1430644989013672,2.5151119232177734
1733461404273776600,11.441776611328125,-0.12705135345458984,-1.191138744354248,2.369523525238037
1733461404283755800,11.451755859375,-0.1346721649169922,-1.048193097114563,1.7160961627960205
1733461404293765600,11.461765625,0.025160789489746094,-0.8474284410476685,1.9167743921279907
1733461404303775200,11.471775146484376,-0.4494333267211914,-0.9993780851364136,1.6626827716827393
1733461404313754600,11.481754638671875,-0.5808992385864258,-0.9466216564178467,1.8971346616744995
1733461404323764500,11.491764404296875,-0.9293050765991211,-0.9647245407104492,1.5344980955123901
1733461404333774300,11.5017744140625,-1.0585870742797852,-1.0029401779174805,1.3792978525161743
1733461404343784000,11.511783935546875,-1.169041633605957,-1.1155951023101807,1.356705904006958
1733461404353763300,11.521763427734374,-1.2183303833007812,-1.2716246843338013,1.1491420269012451
1733461404363773000,11.53177294921875,-0.8294992446899414,-1.452626347541809,1.2929002046585083
1733461404373782800,11.54178271484375,-0.24053668975830078,-1.6198852062225342,1.4982452392578125
1733461404383762000,11.551761962890625,0.3203573226928711,-1.7811423540115356,1.4419758319854736
1733461404393771800,11.561771728515625,0.7615137100219727,-1.75998055934906,1.2921278476715088
1733461404403781400,11.571781494140625,0.8031673431396484,-1.7972166538238525,1.1590964794158936
1733461404413760800,11.5817607421875,0.5404882431030273,-1.8743891716003418,1.0821794271469116
1733461404423770400,11.591770263671876,0.15140533447265625,-1.9147509336471558,1.0572285652160645
1733461404433780200,11.6017802734375,-0.115142822265625,-1.9130090475082397,0.9333826899528503
1733461404443759600,11.611759521484375,-0.053832054138183594,-1.7687327861785889,0.5643665194511414
1733461404453769500,11.62176953125,0.13558673858642578,-1.8468841314315796,0.4856167137622833
1733461404463779000,11.631779052734375,0.20653820037841797,-1.8096208572387695,0.2523123025894165
1733461404473758200,11.64175830078125,0.5406198501586914,-1.7953871488571167,0.05842173099517822
1733461404483768000,11.65176806640625,1.0662355422973633,-1.95082688331604,-0.006856352090835571
1733461404493777700,11.661777587890626,1.6795682907104492,-2.120119333267212,-0.005395442247390747
1733461404503757000,11.671757080078125,2.3704090118408203,-2.274549722671509,0.015079885721206665
1733461404513767000,11.681766845703125,3.2240638732910156,-2.320981979370117,0.028362303972244263
1733461404523776500,11.691776611328125,3.6931638717651367,-2.3684322834014893,0.11783432960510254
1733461404533756000,11.701755859375,3.7210445404052734,-2.2516908645629883,0.1591540277004242
1733461404543765800,11.711765869140624,2.943545341491699,-2.00813889503479,0.001979231834411621
1733461404553775400,11.721775390625,1.5176773071289062,-1.6367912292480469,-0.18592166900634766
1733461404563754800,11.731754638671875,0.3483238220214844,-1.4546382427215576,-0.07610934972763062
1733461404573764400,11.741764404296875,-0.9338340759277344,-1.3469843864440918,0.03047478199005127
1733461404583774000,11.75177392578125,-1.9368982315063477,-1.3187681436538696,0.24265366792678833
1733461404593783800,11.76178369140625,-2.6044111251831055,-1.4797871112823486,0.5289565920829773
1733461404603763200,11.77176318359375,-2.5187454223632812,-1.6708855628967285,0.7007550001144409
1733461404613772800,11.781772705078126,-1.9972119331359863,-2.0474371910095215,0.8961390256881714
1733461404623782700,11.79178271484375,-1.264735221862793,-2.3952701091766357,0.9787312746047974
1733461404633762000,11.801761962890625,-0.44846153259277344,-2.5709030628204346,1.017042875289917
1733461404643771600,11.811771728515625,0.18871116638183594,-2.523817539215088,0.9035449624061584
1733461404653781500,11.821781494140625,0.5185203552246094,-2.5885114669799805,1.1381045579910278
1733461404663760600,11.8317607421875,0.5223836898803711,-2.581237554550171,1.659006953239441
1733461404673770200,11.841770263671876,0.27230167388916016,-2.4112513065338135,1.7643895149230957
1733461404683780000,11.851780029296876,-0.01837444305419922,-2.223094940185547,1.8333938121795654
1733461404693759500,11.861759521484375,-0.3258180618286133,-2.1143133640289307,1.8231149911880493
1733461404703769300,11.871769287109375,-0.4510650634765625,-2.082628011703491,2.0123369693756104
1733461404713779000,11.881779052734375,-0.6433229446411133,-1.662000060081482,1.8954849243164062
1733461404723758300,11.89175830078125,-0.7344980239868164,-1.4287413358688354,1.7713801860809326
1733461404733768200,11.901768310546874,-0.55487060546875,-1.5491442680358887,1.8532291650772095
1733461404743777800,11.91177783203125,-0.33926963806152344,-1.5413446426391602,1.6783419847488403
1733461404753757200,11.921757080078125,0.0057506561279296875,-1.5372018814086914,1.5112624168395996
1733461404763766800,11.931766845703125,0.28647518157958984,-1.4019008874893188,1.2274712324142456
1733461404773776600,11.941776611328125,0.24511146545410156,-0.6473627686500549,0.40502750873565674
1733461404783755800,11.951755859375,-0.06195068359375,-0.1729857325553894,-0.4200234115123749
1733461404793765600,11.961765625,-0.10997676849365234,0.26099592447280884,-1.0549225807189941
1733461404803775200,11.971775146484376,0.0285186767578125,0.40910202264785767,-1.3828332424163818
1733461404813754600,11.981754638671875,0.28362560272216797,0.5968671441078186,-1.439197301864624
1733461404823764500,11.991764404296875,0.4920682907104492,0.6523905992507935,-1.269888162612915
1733461404833774000,12.001774169921875,0.9049043655395508,0.7412528991699219,-1.408452033996582
1733461404843784000,12.011783935546875,1.116072654724121,0.8752695322036743,-1.6087937355041504
1733461404853763300,12.021763427734374,1.4752330780029297,1.063818335533142,-1.7674379348754883
1733461404863773000,12.03177294921875,1.845998764038086,1.2427096366882324,-2.015220880508423
1733461404873782800,12.04178271484375,2.092264175415039,1.3753035068511963,-2.189389228820801
1733461404883762000,12.051761962890625,2.341085433959961,1.4747146368026733,-2.359597682952881
1733461404893771500,12.061771484375,2.468057632446289,1.5770859718322754,-2.4279515743255615
1733461404903781400,12.071781494140625,2.3128747940063477,1.7446435689926147,-2.354069948196411
1733461404913760800,12.0817607421875,2.139225959777832,1.7353663444519043,-2.073976755142212
1733461404923770400,12.091770263671876,1.6309728622436523,1.7398152351379395,-1.7599947452545166
1733461404933780200,12.1017802734375,0.9273157119750977,1.6667497158050537,-1.3460396528244019
1733461404943759600,12.111759521484375,0.3155698776245117,1.464916467666626,-0.9559104442596436
1733461404953769500,12.12176953125,-0.49877071380615234,1.393095850944519,-0.7018004655838013
1733461404963779000,12.131779052734375,-0.9556112289428711,1.2766841650009155,-0.45765724778175354
1733461404973758200,12.14175830078125,-1.3044214248657227,1.0940816402435303,-0.32884007692337036
1733461404983768000,12.15176806640625,-1.7349424362182617,1.0612518787384033,-0.2513149380683899
1733461404993777700,12.161777587890626,-2.096256732940674,1.1085999011993408,-0.08862853050231934
1733461405003757000,12.171757080078125,-2.3575892448425293,1.0786871910095215,0.05777132511138916
1733461405013767000,12.181766845703125,-2.574275493621826,1.0070350170135498,0.12353402376174927
1733461405023776500,12.191776611328125,-2.549952507019043,1.0073037147521973,0.18266379833221436
1733461405033756000,12.201755859375,-2.413850784301758,1.0142784118652344,0.14325904846191406
1733461405043765800,12.211765869140624,-2.13002872467041,1.019203782081604,0.03909289836883545
1733461405053775400,12.221775390625,-2.0552501678466797,1.0260716676712036,0.013649821281433105
1733461405063754500,12.23175439453125,-1.9543981552124023,0.97855544090271,-0.038349807262420654
1733461405073764400,12.241764404296875,-1.796600341796875,0.9485242366790771,-0.18838822841644287
1733461405083774200,12.251774169921875,-1.352264404296875,1.0920851230621338,-0.4123225510120392
1733461405093783800,12.26178369140625,-0.9543619155883789,1.2778180837631226,-0.829916775226593
1733461405103763200,12.27176318359375,-0.5811481475830078,1.3465789556503296,-1.252497911453247
1733461405113772800,12.281772705078126,-0.08155059814453125,1.4697474241256714,-1.4682421684265137
1733461405123782700,12.29178271484375,0.50885009765625,1.6241106986999512,-1.8384451866149902
1733461405133762000,12.301761962890625,0.9788293838500977,1.7722877264022827,-2.116305112838745
1733461405143772000,12.31177197265625,1.4012422561645508,1.946932315826416,-2.3914246559143066
1733461405153781500,12.321781494140625,1.7494010925292969,1.6412675380706787,-2.3588380813598633
1733461405163760600,12.3317607421875,1.9383106231689453,1.8395333290100098,-3.029463291168213
1733461405173770500,12.3417705078125,1.9065265655517578,1.8473142385482788,-2.4743423461914062
1733461405183780000,12.351780029296876,1.9975194931030273,1.8021265268325806,-2.0609772205352783
1733461405193759500,12.361759521484375,2.056537628173828,2.005156993865967,-2.620455741882324
1733461405203769300,12.371769287109375,1.8828458786010742,2.300723075866699,-2.7375009059906006
1733461405213779000,12.381779052734375,1.4394207000732422,2.4799249172210693,-2.5164380073547363
1733461405223758300,12.39175830078125,0.8311176300048828,2.5972084999084473,-2.4277915954589844
1733461405233768200,12.401768310546874,0.054958343505859375,2.5501976013183594,-2.1493520736694336
1733461405243777800,12.41177783203125,-0.4589719772338867,2.2771108150482178,-1.8429951667785645
1733461405253757200,12.421757080078125,-0.3786945343017578,1.7139558792114258,-1.4550459384918213
1733461405263766800,12.431766845703125,0.34074878692626953,1.069213628768921,-1.3906805515289307
1733461405273776600,12.441776611328125,1.4439401626586914,0.23906219005584717,-1.4420671463012695
1733461405283755800,12.451755859375,3.153076171875,-0.5687521696090698,-1.376114845275879
1733461405293765600,12.461765625,4.669419288635254,-1.1601877212524414,-1.1316078901290894
1733461405303775200,12.471775146484376,5.759746551513672,-1.6253657341003418,-0.7634013891220093
1733461405313754600,12.481754638671875,5.889182090759277,-1.7138054370880127,-0.7663706541061401
1733461405323764500,12.491764404296875,5.219339370727539,-1.4065405130386353,-1.0107091665267944
1733461405333774300,12.5017744140625,3.9830856323242188,-1.2335678339004517,-1.055572271347046
1733461405343784000,12.511783935546875,2.312349319458008,-1.0601353645324707,-1.146063208580017
1733461405353763300,12.521763427734374,0.8071804046630859,-0.8845924735069275,-1.359410047531128
1733461405363773000,12.53177294921875,-0.5800333023071289,-0.7529963254928589,-1.6687779426574707
1733461405373782800,12.54178271484375,-1.442758560180664,-0.7846655249595642,-1.9189376831054688
1733461405383762000,12.551761962890625,-1.8082690238952637,-0.9707604050636292,-2.0936193466186523
1733461405393771800,12.561771728515625,-2.0196094512939453,-1.2048354148864746,-2.379941463470459
1733461405403781400,12.571781494140625,-2.246281623840332,-1.3570793867111206,-2.4974939823150635
1733461405413760800,12.5817607421875,-2.796597957611084,-1.588425636291504,-2.5698530673980713
1733461405423770600,12.5917705078125,-3.512240409851074,-1.8768064975738525,-2.4864449501037598
1733461405433780200,12.6017802734375,-4.304732322692871,-2.2369606494903564,-2.111476182937622
1733461405443759600,12.611759521484375,-4.802131652832031,-2.509883165359497,-1.6728861331939697
1733461405453769500,12.62176953125,-4.900162696838379,-2.7249042987823486,-1.366618037223816
1733461405463779000,12.631779052734375,-4.53987455368042,-2.762089490890503,-1.4647949934005737
1733461405473758200,12.64175830078125,-3.657066822052002,-2.5394673347473145,-1.8194807767868042
1733461405483768000,12.65176806640625,-2.677614688873291,-2.2383596897125244,-2.171720266342163
1733461405493777700,12.661777587890626,-1.886688232421875,-1.8976651430130005,-2.5430424213409424
1733461405503757000,12.671757080078125,-0.7478265762329102,-1.4356703758239746,-2.9729716777801514
1733461405513767000,12.681766845703125,0.32781410217285156,-1.1052216291427612,-3.290820360183716
