time,seconds_elapsed,z,y,x
1733461393033860900,0.20186083984375,0.02687807008624077,0.16249015927314758,-0.12034045159816742
1733461393043564000,0.21156396484375,0.01038470957428217,0.08857546001672745,-0.08735372871160507
1733461393054287400,0.222287353515625,-0.013439035043120384,-0.03176499158143997,-0.030543262138962746
1733461393063884800,0.231884765625,-0.022602014243602753,-0.10690141469240189,0.04581489413976669
1733461393073842200,0.24184228515625,-0.018325956538319588,-0.10384709388017654,0.11728613078594208
1733461393083873000,0.251873046875,-0.004886921960860491,-0.03298672288656235,0.16249015927314758
1733461393093862000,0.26186181640625,0.019547687843441963,0.07024950534105301,0.1771509200334549
1733461393103862000,0.271862060546875,0.08918632566928864,0.2535090744495392,0.14966198801994324
1733461393113849900,0.281849853515625,0.07880161702632904,0.3396410644054413,0.1014036312699318
1733461393123881500,0.291881591796875,0.0708603709936142,0.3274237811565399,0.03420845419168472
1733461393133839000,0.301839111328125,0.054367005825042725,0.2577851414680481,-0.03726277872920036
1733461393143871000,0.31187109375,0.01710422709584236,0.15515977144241333,-0.10445795953273773
1733461393153858800,0.32185888671875,-0.02321287989616394,0.04764748737215996,-0.16065755486488342
1733461393163860000,0.33185986328125,-0.0555887371301651,-0.05192354694008827,-0.19364428520202637
1733461393173847800,0.341847900390625,-0.08552113175392151,-0.2021963894367218,-0.19058994948863983
1733461393183878700,0.351878662109375,-0.08857546001672745,-0.2871066629886627,-0.1667662113904953
1733461393193836800,0.3618369140625,-0.08429940044879913,-0.33292156457901,-0.14782938361167908
1733461393203868000,0.371867919921875,-0.07880161702632904,-0.33658674359321594,-0.15454891324043274
1733461393213856800,0.381856689453125,-0.07696902006864548,-0.3017674386501312,-0.17776179313659668
1733461393223857200,0.391857177734375,-0.07880161702632904,-0.2321287989616394,-0.21319197118282318
1733461393233845800,0.401845703125,-0.07452555745840073,-0.15943582355976105,-0.24129177629947662
1733461393243876600,0.411876708984375,-0.07330382615327835,-0.1160643994808197,-0.24556782841682434
1733461393253834800,0.421834716796875,-0.06902777403593063,-0.10934487730264664,-0.2278527319431305
1733461393263866400,0.431866455078125,-0.059864792972803116,-0.09346238523721695,-0.2064724564552307
1733461393273854500,0.4418544921875,-0.05192354694008827,-0.08124507963657379,-0.182648703455925
1733461393283855400,0.45185546875,-0.04459316283464432,-0.07330382615327835,-0.15271630883216858
1733461393293843200,0.46184326171875,-0.027488935738801956,-0.06414084881544113,-0.12950342893600464
1733461393303875000,0.471875,-0.01710422709584236,-0.04703662544488907,-0.11178833991289139
1733461393313832400,0.48183251953125,-0.015271631069481373,-0.036041051149368286,-0.10018189996480942
1733461393323864000,0.491864013671875,-0.021991148591041565,-0.03420845419168472,-0.0861319974064827
1733461393333852000,0.501851806640625,-0.015271631069481373,-0.014049900695681572,-0.08124507963657379
1733461393343883500,0.511883544921875,-0.006719517521560192,0.04948008432984352,-0.07330382615327835
1733461393353841200,0.521841064453125,0.00427605677396059,0.10018189996480942,-0.06475171446800232
1733461393363872500,0.53187255859375,0.00733038317412138,0.11789698898792267,-0.042760565876960754
1733461393373860600,0.541860595703125,0.012828170321881771,0.1062905490398407,-0.01771509274840355
1733461393383861500,0.551861572265625,0.018325956538319588,0.07635815441608429,0
1733461393393849300,0.561849365234375,0.01038470957428217,0.029932396486401558,0.015271631069481373
1733461393403881000,0.571880859375,0.012217304669320583,0.009773843921720982,0.01038470957428217
1733461393413838600,0.581838623046875,0.014049900695681572,0.0012217304902151227,0.0012217304902151227
1733461393423870000,0.591869873046875,0.014049900695681572,-0.015271631069481373,-0.00427605677396059
1733461393433858000,0.601858154296875,0.016493361443281174,-0.03176499158143997,-0.006108652334660292
1733461393443859200,0.611859130859375,0.02321287989616394,-0.027488935738801956,-0.012828170321881771
1733461393453847000,0.621846923828125,0.039706241339445114,-0.024434609338641167,-0.021380282938480377
1733461393463878400,0.63187841796875,0.06291911751031876,-0.0403171069920063,-0.036651913076639175
1733461393473835800,0.641835693359375,0.06352998316287994,-0.04642575979232788,-0.04214970022439957
1733461393483867600,0.65186767578125,0.06902777403593063,-0.03787364438176155,-0.04153883829712868
1733461393493855500,0.66185546875,0.0708603709936142,-0.025656340643763542,-0.03237585723400116
1733461393503857000,0.67185693359375,0.07024950534105301,-0.013439035043120384,-0.013439035043120384
1733461393513844500,0.681844482421875,0.07330382615327835,-0.009162978269159794,0.005497787147760391
1733461393523876400,0.69187646484375,0.07513642311096191,-0.016493361443281174,0.019547687843441963
1733461393533833700,0.701833740234375,0.07147123664617538,-0.02871066704392433,0.021991148591041565
1733461393543865000,0.711864990234375,0.05925392732024193,-0.0354301854968071,-0.0006108652451075613
1733461393553853200,0.721853271484375,0.0507018156349659,-0.04092797264456749,-0.025656340643763542
1733461393563854000,0.73185400390625,0.04459316283464432,-0.027488935738801956,-0.045204028487205505
1733461393573842200,0.74184228515625,0.04703662544488907,-0.0024434609804302454,-0.05497787147760391
1733461393583873500,0.75187353515625,0.05375614017248154,0.015882495790719986,-0.04764748737215996
1733461393593861600,0.761861572265625,0.06169738993048668,0.025656340643763542,-0.022602014243602753
1733461393603862500,0.771862548828125,0.06902777403593063,0.021380282938480377,0.012217304669320583
1733461393613850600,0.7818505859375,0.07147123664617538,0.02321287989616394,0.04703662544488907
1733461393623882200,0.79188232421875,0.07147123664617538,0.03848451003432274,0.05253441259264946
1733461393633839600,0.801839599609375,0.06963863968849182,0.042760565876960754,0.04459316283464432
1733461393643871200,0.811871337890625,0.06230825558304787,0.024434609338641167,0.030543262138962746
1733461393653859000,0.821859130859375,0.051312681287527084,-0.004886921960860491,0.007941247895359993
1733461393663860500,0.831860595703125,0.042760565876960754,-0.02076941914856434,-0.02015855349600315
1733461393673848300,0.841848388671875,0.04886921867728233,-0.018325956538319588,-0.04948008432984352
1733461393683880000,0.8518798828125,0.06291911751031876,-0.02321287989616394,-0.08124507963657379
1733461393693837300,0.86183740234375,0.06108652427792549,-0.03481931984424591,-0.08735372871160507
1733461393703869000,0.871868896484375,0.05009094998240471,-0.051312681287527084,-0.08307767659425735
1733461393713856800,0.881856689453125,0.033597588539123535,-0.07269296050071716,-0.07819075137376785
1733461393723857700,0.891857666015625,0.015271631069481373,-0.08857546001672745,-0.06963863968849182
1733461393733845800,0.901845703125,-0.016493361443281174,-0.09285151958465576,-0.060475658625364304
1733461393743877400,0.91187744140625,-0.05803219974040985,-0.09834930300712585,-0.04214970022439957
1733461393753834800,0.921834716796875,-0.09896016865968704,-0.09896016865968704,-0.02932153269648552
1733461393763865900,0.931865966796875,-0.15332718193531036,-0.0959058403968811,-0.025656340643763542
1733461393773854500,0.9418544921875,-0.17104226350784302,-0.1062905490398407,-0.04642575979232788
1733461393783854800,0.951854736328125,-0.17043140530586243,-0.1215621829032898,-0.08429940044879913
1733461393793843200,0.96184326171875,-0.16310101747512817,-0.1466076523065567,-0.14294247329235077
1733461393803874300,0.971874267578125,-0.13866640627384186,-0.15332718193531036,-0.2168571650981903
1733461393813832400,0.98183251953125,-0.0910189226269722,-0.12461651116609573,-0.29504790902137756
1733461393823863800,0.99186376953125,-0.04153883829712868,-0.04642575979232788,-0.36224308609962463
1733461393833852000,1.001851806640625,-0.014049900695681572,0.1111774742603302,-0.4080579876899719
1733461393843883500,1.011883544921875,-0.03237585723400116,0.19792033731937408,-0.3988949954509735
1733461393853841000,1.0218408203125,-0.06963863968849182,0.26450464129447937,-0.37751471996307373
1733461393863872000,1.0318720703125,-0.08429940044879913,0.3292563557624817,-0.3530801236629486
1733461393873860600,1.041860595703125,-0.07819075137376785,0.37201693654060364,-0.32498031854629517
1733461393883861000,1.051861083984375,-0.07452555745840073,0.3543018400669098,-0.2877175211906433
1733461393893849300,1.061849365234375,-0.07513642311096191,0.28588494658470154,-0.2577851414680481
1733461393903880700,1.071880615234375,-0.07880161702632904,0.1411098688840866,-0.242513507604599
1733461393913868800,1.081868896484375,-0.07513642311096191,0.07635815441608429,-0.23273965716362
1733461393923869700,1.09186962890625,-0.05864306539297104,0.027488935738801956,-0.20402899384498596
1733461393933858000,1.101858154296875,-0.036651913076639175,-0.02015855349600315,-0.15271630883216858
1733461393943858700,1.111858642578125,-0.015271631069481373,-0.033597588539123535,-0.07330382615327835
1733461393953847300,1.121847412109375,0.00733038317412138,-0.0354301854968071,0.02321287989616394
1733461393963878000,1.1318779296875,0.02687807008624077,-0.02382374368607998,0.13072516024112701
1733461393973836000,1.1418359375,0.04886921867728233,-0.033597588539123535,0.23029619455337524
1733461393983867000,1.151866943359375,0.060475658625364304,-0.1111774742603302,0.34025195240974426
1733461393993855500,1.16185546875,0.0555887371301651,-0.17409659922122955,0.3744603991508484
1733461394003856100,1.171856201171875,0.0507018156349659,-0.21930062770843506,0.3787364661693573
1733461394013844700,1.1818447265625,0.0403171069920063,-0.22907446324825287,0.36163222789764404
1733461394023875800,1.191875732421875,0.036651913076639175,-0.20097467303276062,0.32986724376678467
1733461394033833700,1.201833740234375,0.06963863968849182,-0.14782938361167908,0.29138273000717163
1733461394043864800,1.21186474609375,0.07208210229873657,-0.10018189996480942,0.2541199326515198
1733461394053853400,1.221853515625,0.05619960278272629,-0.05864306539297104,0.1918116807937622
1733461394063853800,1.231853759765625,0.04459316283464432,-0.006719517521560192,0.1411098688840866
1733461394073842200,1.24184228515625,0.02076941914856434,0.07208210229873657,0.08491026610136032
1733461394083873300,1.251873291015625,-0.01160643994808197,0.14233160018920898,0.030543262138962746
1733461394093861600,1.261861572265625,-0.05497787147760391,0.17959438264369965,-0.01038470957428217
1733461394103862300,1.2718623046875,-0.10323622822761536,0.1814269721508026,-0.042760565876960754
1733461394113849900,1.281849853515625,-0.14905111491680145,0.16737708449363708,-0.06352998316287994
1733461394123881700,1.2918818359375,-0.192422553896904,0.13866640627384186,-0.08368854224681854
1733461394133839400,1.30183935546875,-0.1973094791173935,0.13316862285137177,-0.09468411654233932
1733461394143870500,1.311870361328125,-0.18631389737129211,0.1313360333442688,-0.11178833991289139
1733461394153858600,1.321858642578125,-0.17409659922122955,0.13744467496871948,-0.13439035415649414
1733461394163859500,1.331859375,-0.16004669666290283,0.14477506279945374,-0.1508837193250656
1733461394173847800,1.341847900390625,-0.15027284622192383,0.14966198801994324,-0.1563815027475357
1733461394183879000,1.35187890625,-0.13866640627384186,0.152105450630188,-0.14782938361167908
1733461394193836800,1.3618369140625,-0.12278391420841217,0.15882496535778046,-0.12522737681865692
1733461394203868200,1.3718681640625,-0.11301007121801376,0.17531833052635193,-0.07941248267889023
1733461394213856800,1.381856689453125,-0.10934487730264664,0.20341812074184418,-0.039706241339445114
1733461394223857400,1.391857421875,-0.10262536257505417,0.22968533635139465,0.009162978269159794
1733461394233845800,1.401845703125,-0.08979719132184982,0.24007004499435425,0.06230825558304787
1733461394243876900,1.411876953125,-0.07391469180583954,0.22479841113090515,0.11972958594560623
1733461394253834800,1.421834716796875,-0.07269296050071716,0.17531833052635193,0.17959438264369965
1733461394263865900,1.431865966796875,-0.07941248267889023,0.10995574295520782,0.23273965716362
1733461394273854200,1.441854248046875,-0.08735372871160507,0.0659734457731247,0.2675589919090271
1733461394283854800,1.451854736328125,-0.08674286305904388,0.07269296050071716,0.2632829248905182
1733461394293843200,1.46184326171875,-0.07391469180583954,0.09834930300712585,0.23884831368923187
1733461394303874600,1.47187451171875,-0.0507018156349659,0.1264491081237793,0.19608774781227112
1733461394313832400,1.48183251953125,-0.02932153269648552,0.15577064454555511,0.13988813757896423
1733461394323863600,1.491863525390625,-0.016493361443281174,0.18448130786418915,0.08918632566928864
1733461394333852000,1.501851806640625,-0.0024434609804302454,0.20586158335208893,0.05009094998240471
1733461394343883000,1.511883056640625,0.022602014243602753,0.22663100063800812,0.024434609338641167
1733461394353841000,1.5218408203125,0.04153883829712868,0.2272418737411499,0.02687807008624077
1733461394363872000,1.5318720703125,0.06108652427792549,0.21868975460529327,0.04214970022439957
1733461394373860600,1.541860595703125,0.06963863968849182,0.20830504596233368,0.060475658625364304
1733461394383861000,1.551861083984375,0.06536258012056351,0.1973094791173935,0.07819075137376785
1733461394393849600,1.561849609375,0.056810468435287476,0.17470745742321014,0.08246681094169617
1733461394403880400,1.57188037109375,0.04764748737215996,0.1362229436635971,0.07208210229873657
1733461394413838600,1.581838623046875,0.06230825558304787,0.11362093687057495,0.05009094998240471
1733461394423869400,1.591869384765625,0.1062905490398407,0.09224065393209457,-0.0024434609804302454
1733461394433858000,1.601858154296875,0.1014036312699318,0.05803219974040985,-0.04398229718208313
1733461394443858700,1.611858642578125,0.08918632566928864,0.01466076634824276,-0.09468411654233932
1733461394453847000,1.621846923828125,0.06536258012056351,-0.016493361443281174,-0.15332718193531036
1733461394463877600,1.631877685546875,0.033597588539123535,-0.021991148591041565,-0.20525072515010834
1733461394473835800,1.641835693359375,-0.00427605677396059,-0.014049900695681572,-0.24007004499435425
1733461394483867600,1.65186767578125,-0.028099801391363144,0.0024434609804302454,-0.2571742534637451
1733461394493855500,1.66185546875,-0.01038470957428217,0.005497787147760391,-0.25534167885780334
1733461394503856400,1.6718564453125,0.0403171069920063,-0.025045474991202354,-0.2278527319431305
1733461394513844500,1.681844482421875,0.0959058403968811,-0.05925392732024193,-0.1563815027475357
1733461394523876000,1.6918759765625,0.12217304855585098,-0.17837265133857727,-0.02687807008624077
1733461394533834000,1.701833984375,0.08674286305904388,-0.4343251883983612,0.14538592100143433
1733461394543865300,1.711865234375,0.00366519158706069,-0.7110471725463867,0.3286454975605011
1733461394553853200,1.721853271484375,-0.045204028487205505,-0.8448266386985779,0.4954117238521576
1733461394563853000,1.73185302734375,0.09407325088977814,-0.7360926270484924,0.6957755088806152
1733461394573842200,1.74184228515625,0.22357667982578278,-0.5907067060470581,0.8118399381637573
1733461394583872500,1.75187255859375,0.33536502718925476,-0.5002986192703247,0.8808676600456238
1733461394593861600,1.761861572265625,0.4043927788734436,-0.5027421116828918,0.8845328688621521
1733461394603861500,1.771861572265625,0.4386012554168701,-0.5296201705932617,0.8326093554496765
1733461394613850600,1.7818505859375,0.44776421785354614,-0.5412266254425049,0.7531968355178833
1733461394623881000,1.791880859375,0.44104471802711487,-0.53328537940979,0.6707300543785095
1733461394633839600,1.801839599609375,0.4288274049758911,-0.5057964324951172,0.5992587804794312
1733461394643870000,1.811869873046875,0.39767327904701233,-0.4056145250797272,0.4966334402561188
1733461394653859300,1.821859375,0.3549126982688904,-0.30604347586631775,0.41599923372268677
1733461394663860000,1.83185986328125,0.2816088795661926,-0.18631389737129211,0.31642818450927734
1733461394673848300,1.841848388671875,0.19853121042251587,-0.0354301854968071,0.19120082259178162
1733461394683879200,1.851879150390625,0.1264491081237793,0.1466076523065567,0.05803219974040985
1733461394693837300,1.86183740234375,0.08002334833145142,0.34147366881370544,-0.06963863968849182
1733461394703868400,1.871868408203125,0.05864306539297104,0.4593706727027893,-0.1612684279680252
1733461394713856800,1.881856689453125,0.04398229718208313,0.41661009192466736,-0.22052235901355743
1733461394723857400,1.891857421875,0.0403171069920063,0.30482175946235657,-0.21991148591041565
1733461394733845800,1.901845703125,0.07269296050071716,0.2125810980796814,-0.19914206862449646
1733461394743876900,1.911876953125,0.08735372871160507,0.14355333149433136,-0.17104226350784302
1733461394753834800,1.921834716796875,0.08552113175392151,0.11911872029304504,-0.1411098688840866
1733461394763865900,1.931865966796875,0.06963863968849182,0.09346238523721695,-0.10262536257505417
1733461394773854500,1.9418544921875,0.04092797264456749,0.0555887371301651,-0.07024950534105301
1733461394783854600,1.9518544921875,0.036651913076639175,0.056810468435287476,-0.0659734457731247
1733461394793843200,1.96184326171875,0.07391469180583954,0.051312681287527084,-0.08429940044879913
1733461394803874600,1.97187451171875,0.11545353382825851,0.02076941914856434,-0.09834930300712585
1733461394813832400,1.98183251953125,0.15271630883216858,0.024434609338641167,-0.10506882518529892
1733461394823863800,1.99186376953125,0.1820378452539444,-0.006108652334660292,-0.09162978827953339
1733461394833852000,2.001851806640625,0.18448130786418915,-0.0861319974064827,-0.07330382615327835
1733461394843883300,2.01188330078125,0.17287486791610718,-0.14049901068210602,-0.06719517707824707
1733461394853841000,2.0218408203125,0.16859880089759827,-0.13072516024112701,-0.07391469180583954
1733461394863872000,2.0318720703125,0.17043140530586243,-0.07880161702632904,-0.08368854224681854
1733461394873860400,2.0418603515625,0.16737708449363708,-0.025656340643763542,-0.08918632566928864
1733461394883861200,2.051861328125,0.1618792861700058,0.04886921867728233,-0.09224065393209457
1733461394893849300,2.061849365234375,0.16371189057826996,0.13866640627384186,-0.08796459436416626
1733461394903880700,2.071880615234375,0.16920967400074005,0.22052235901355743,-0.0708603709936142
1733461394913838600,2.081838623046875,0.16859880089759827,0.2736676335334778,-0.0403171069920063
1733461394923869700,2.09186962890625,0.14782938361167908,0.2877175211906433,0.00427605677396059
1733461394933858000,2.101858154296875,0.10873401165008545,0.27977627515792847,0.08796459436416626
1733461394943858700,2.111858642578125,0.0959058403968811,0.24556782841682434,0.14966198801994324
1733461394953847300,2.121847412109375,0.07757988572120667,0.17592918872833252,0.2021963894367218
1733461394963878400,2.13187841796875,0.06902777403593063,0.1417207419872284,0.22418753802776337
1733461394973836000,2.1418359375,0.09162978827953339,0.17592918872833252,0.20097467303276062
1733461394983867100,2.1518671875,0.1313360333442688,0.25534167885780334,0.12889257073402405
1733461394993855500,2.16185546875,0.16554448008537292,0.3121521472930908,0.03420845419168472
1733461395003856100,2.171856201171875,0.18387043476104736,0.3243694305419922,-0.13439035415649414
1733461395013844700,2.1818447265625,0.18631389737129211,0.3585779070854187,-0.2620611786842346
1733461395023875600,2.19187548828125,0.17959438264369965,0.4434881806373596,-0.37629300355911255
1733461395033833700,2.201833740234375,0.15760323405265808,0.5448917746543884,-0.4404338300228119
1733461395043864800,2.21186474609375,0.13439035415649414,0.6145304441452026,-0.45265114307403564
1733461395053853200,2.221853271484375,0.09407325088977814,0.5968153476715088,-0.4153883755207062
1733461395063853600,2.231853515625,0.04092797264456749,0.45753806829452515,-0.33658674359321594
1733461395073842000,2.241842041015625,-0.02687807008624077,0.20586158335208893,-0.22663100063800812
1733461395083873000,2.251873046875,-0.1270599663257599,-0.23335053026676178,-0.04459316283464432
1733461395093861600,2.261861572265625,-0.18997909128665924,-0.43249258399009705,0.05253441259264946
1733461395103862300,2.2718623046875,-0.24373523890972137,-0.4697553813457489,0.10201449692249298
1733461395113849900,2.281849853515625,-0.28466320037841797,-0.4080579876899719,0.10262536257505417
1733461395123881700,2.2918818359375,-0.3121521472930908,-0.3090978264808655,0.0708603709936142
1733461395133839400,2.30183935546875,-0.31581732630729675,-0.23151792585849762,0.03848451003432274
1733461395143871000,2.31187109375,-0.29504790902137756,-0.21624629199504852,0.06414084881544113
1733461395153858600,2.321858642578125,-0.25473082065582275,-0.3439171314239502,0.26022860407829285
1733461395163860000,2.33185986328125,-0.29504790902137756,-0.4990769028663635,0.4648684561252594
1733461395173847800,2.341847900390625,-0.2718350291252136,-0.6640105247497559,0.6524040699005127
1733461395183879400,2.35187939453125,-0.22540926933288574,-0.7434229850769043,0.807563841342926
1733461395193836800,2.3618369140625,-0.21991148591041565,-0.7458664774894714,0.9132435321807861
1733461395203868400,2.371868408203125,-0.2376265823841095,-0.6707300543785095,0.960280179977417
1733461395213856800,2.381856689453125,-0.2474004179239273,-0.5668829679489136,0.9627236127853394
1733461395223857200,2.391857177734375,-0.18325957655906677,-0.3579670190811157,0.8613200187683105
1733461395233845800,2.401845703125,-0.01038470957428217,-0.11484266817569733,0.6707300543785095
1733461395243876900,2.411876953125,0.17043140530586243,0.19364428520202637,0.3878994286060333
1733461395253835000,2.4218349609375,0.2871066629886627,0.3689626157283783,0.08002334833145142
1733461395263865300,2.431865234375,0.3090978264808655,0.34636059403419495,-0.16798794269561768
1733461395273854500,2.4418544921875,0.24923302233219147,0.23457226157188416,-0.3396410644054413
1733461395283854300,2.451854248046875,0.1362229436635971,0.15515977144241333,-0.45753806829452515
1733461395293843500,2.461843505859375,-0.01466076634824276,0.21013765037059784,-0.5174028873443604
1733461395303875000,2.471875,-0.21135938167572021,0.5167919993400574,-0.4593706727027893
1733461395313832400,2.48183251953125,-0.2376265823841095,0.7556403279304504,-0.3341432809829712
1733461395323863600,2.491863525390625,-0.23457226157188416,0.9071348905563354,-0.16554448008537292
1733461395333852000,2.501851806640625,-0.24129177629947662,0.9431759119033813,0.007941247895359993
1733461395343883000,2.511883056640625,-0.2730567753314972,0.8692612648010254,0.1417207419872284
1733461395353841000,2.5218408203125,-0.313373863697052,0.7232644557952881,0.19425514340400696
1733461395363872000,2.5318720703125,-0.3579670190811157,0.5455026626586914,0.14416420459747314
1733461395373860400,2.5418603515625,-0.4080579876899719,0.2779437005519867,-0.06719517707824707
1733461395383861200,2.551861328125,-0.413555771112442,0.15271630883216858,-0.24495697021484375
1733461395393849300,2.561849365234375,-0.40256020426750183,0.07635815441608429,-0.4031710624694824
1733461395403880700,2.571880615234375,-0.375071257352829,0.022602014243602753,-0.5125159621238708
1733461395413838300,2.58183837890625,-0.3225368559360504,-0.006108652334660292,-0.5729916095733643
1733461395423869400,2.591869384765625,-0.2535090744495392,-0.009773843921720982,-0.5900958180427551
1733461395433858000,2.601858154296875,-0.19303341209888458,-0.03481931984424591,-0.5632177591323853
1733461395443858400,2.6118583984375,-0.1722639948129654,-0.1160643994808197,-0.45631635189056396
1733461395453847000,2.621846923828125,-0.11728613078594208,-0.15943582355976105,-0.37201693654060364
1733461395463878000,2.6318779296875,-0.0708603709936142,-0.1411098688840866,-0.2883284091949463
1733461395473836000,2.6418359375,-0.05742133408784866,-0.10873401165008545,-0.21441370248794556
1733461395483867000,2.651866943359375,-0.05925392732024193,-0.08979719132184982,-0.14782938361167908
1733461395493855500,2.66185546875,-0.05925392732024193,-0.08368854224681854,-0.09407325088977814
1733461395503856000,2.671856201171875,-0.06841690838336945,-0.059864792972803116,-0.05009094998240471
1733461395513844500,2.681844482421875,-0.08491026610136032,-0.00733038317412138,0.024434609338641167
1733461395523876000,2.6918759765625,-0.08491026610136032,0.04764748737215996,0.08429940044879913
1733461395533833700,2.701833740234375,-0.08124507963657379,0.11239920556545258,0.15943582355976105
1733461395543864800,2.71186474609375,-0.07513642311096191,0.15943582355976105,0.24862214922904968
1733461395553853000,2.72185302734375,-0.07208210229873657,0.17348572611808777,0.33292156457901
1733461395563853600,2.731853515625,-0.06230825558304787,0.1716531366109848,0.384845107793808
1733461395573842000,2.741842041015625,-0.045204028487205505,0.18570303916931152,0.38179078698158264
1733461395583873000,2.751873046875,-0.03420845419168472,0.22663100063800812,0.3090978264808655
1733461395593861600,2.761861572265625,-0.056810468435287476,0.2528982162475586,0.06841690838336945
1733461395603862300,2.7718623046875,-0.09040805697441101,0.2669481039047241,-0.13072516024112701
1733461395613850600,2.7818505859375,-0.11728613078594208,0.3170390725135803,-0.3017674386501312
1733461395623881700,2.7918818359375,-0.13377949595451355,0.37568211555480957,-0.3897320330142975
1733461395633839600,2.801839599609375,-0.1411098688840866,0.47219884395599365,-0.3536909818649292
1733461395643870500,2.811870361328125,-0.11850785464048386,0.6243042945861816,-0.20036379992961884
1733461395653859300,2.821859375,-0.06291911751031876,0.8020660877227783,0.007941247895359993
1733461395663859200,2.831859130859375,0.03848451003432274,1.0378600358963013,0.24862214922904968
1733461395673848300,2.841848388671875,0.05192354694008827,1.0512990951538086,0.26572638750076294
1733461395683878700,2.851878662109375,0.005497787147760391,0.8283332586288452,0.1563815027475357
1733461395693837300,2.86183740234375,-0.05009094998240471,0.33597588539123535,-0.021380282938480377
1733461395703867600,2.87186767578125,-0.07880161702632904,-0.3481931984424591,-0.16737708449363708
1733461395713856800,2.881856689453125,-0.10567969083786011,-1.0323622226715088,-0.1875356286764145
1733461395723856400,2.8918564453125,-0.12522737681865692,-1.528384804725647,-0.06963863968849182
1733461395733845800,2.901845703125,-0.15943582355976105,-1.7238616943359375,0.28099802136421204
1733461395743876000,2.9118759765625,-0.10812314599752426,-1.5070046186447144,0.5400048494338989
1733461395753834800,2.921834716796875,-0.07391469180583954,-1.0873401165008545,0.7678576111793518
1733461395763867400,2.931867431640625,-0.06291911751031876,-0.6157521605491638,0.9321803450584412
1733461395773854500,2.9418544921875,0.08674286305904388,-0.13927727937698364,1.0409144163131714
1733461395783856000,2.951856201171875,0.2736676335334778,0.28588494658470154,1.073290228843689
1733461395793843200,2.96184326171875,0.3891211748123169,0.5827654600143433,0.9633345007896423
1733461395803875800,2.971875732421875,0.4392121136188507,0.6627888083457947,0.6823364496231079
1733461395813832400,2.98183251953125,0.4294382631778717,0.3805690407752991,0.12034045159816742
1733461395823864300,2.9918642578125,0.3793473243713379,0.14966198801994324,-0.12095131725072861
1733461395833852000,3.001851806640625,0.25961771607398987,-0.23640485107898712,-0.23945917189121246
1733461395843883500,3.011883544921875,0.09407325088977814,-0.4703662395477295,-0.3029891550540924
1733461395853841200,3.021841064453125,-0.012828170321881771,-0.5338962078094482,-0.3243694305419922
1733461395863871200,3.031871337890625,-0.02626720629632473,-0.4434881806373596,-0.2987131178379059
1733461395873860400,3.0418603515625,0.007941247895359993,-0.3017674386501312,-0.23518311977386475
1733461395883860200,3.051860107421875,0.05742133408784866,-0.05314527451992035,-0.13011430203914642
1733461395893849300,3.061849365234375,0.10567969083786011,0.08552113175392151,-0.08491026610136032
1733461395903880400,3.07188037109375,0.16798794269561768,0.13805554807186127,-0.05864306539297104
1733461395913868800,3.081868896484375,0.19975294172763824,0.08002334833145142,-0.03420845419168472
1733461395923870000,3.091869873046875,0.19608774781227112,-0.054367005825042725,-0.018936822190880775
1733461395933858000,3.101858154296875,0.19486601650714874,-0.17287486791610718,-0.033597588539123535
1733461395943858700,3.111858642578125,0.1814269721508026,-0.2431243658065796,-0.07635815441608429
1733461395953847000,3.121846923828125,0.1459967941045761,-0.2840523421764374,-0.1716531366109848
1733461395963878100,3.131878173828125,0.1459967941045761,-0.17898350954055786,-0.23151792585849762
1733461395973836000,3.1418359375,0.18387043476104736,-0.10873401165008545,-0.2577851414680481
1733461395983867100,3.1518671875,0.22418753802776337,-0.11301007121801376,-0.27611109614372253
1733461395993855500,3.16185546875,0.2376265823841095,-0.056810468435287476,-0.29016098380088806
1733461396003856100,3.171856201171875,0.2638937830924988,0.00366519158706069,-0.27977627515792847
1733461396013844700,3.1818447265625,0.2993239760398865,0.02932153269648552,-0.2382374405860901
1733461396023875800,3.191875732421875,0.32498031854629517,0.054367005825042725,-0.18570303916931152
1733461396033833700,3.201833740234375,0.35552358627319336,0.11239920556545258,-0.10690141469240189
1733461396043865000,3.211864990234375,0.3579670190811157,0.12950342893600464,-0.0507018156349659
1733461396053853200,3.221853271484375,0.3439171314239502,0.1313360333442688,0.00427605677396059
1733461396063854000,3.23185400390625,0.31642818450927734,0.12278391420841217,0.04459316283464432
1733461396073842200,3.24184228515625,0.2791654169559479,0.1270599663257599,0.06169738993048668
1733461396083873500,3.25187353515625,0.24068090319633484,0.13866640627384186,0.04581489413976669
1733461396093861600,3.261861572265625,0.2217440903186798,0.16432274878025055,-0.003054326167330146
1733461396103862500,3.271862548828125,0.21135938167572021,0.17898350954055786,-0.11789698898792267
1733461396113849900,3.281849853515625,0.19486601650714874,0.1875356286764145,-0.20830504596233368
1733461396123881200,3.291881103515625,0.1771509200334549,0.24373523890972137,-0.2742784917354584
1733461396133839400,3.30183935546875,0.13561208546161652,0.3170390725135803,-0.27488934993743896
1733461396143871000,3.31187109375,0.06414084881544113,0.3677408695220947,-0.21807889640331268
1733461396153858600,3.321858642578125,-0.015882495790719986,0.3689626157283783,-0.13011430203914642
1733461396163859200,3.331859130859375,-0.08796459436416626,0.323147714138031,-0.036041051149368286
1733461396173847800,3.341847900390625,-0.16982053220272064,0.20036379992961884,0.07941248267889023
1733461396183879000,3.35187890625,-0.20463985204696655,0.1014036312699318,0.12950342893600464
1733461396193836800,3.3618369140625,-0.2168571650981903,0.04153883829712868,0.1319468915462494
1733461396203868700,3.37186865234375,-0.22052235901355743,0.02015855349600315,0.08857546001672745
1733461396213856800,3.381856689453125,-0.19792033731937408,0.02382374368607998,0.036651913076639175
1733461396223858200,3.391858154296875,-0.17837265133857727,-0.009773843921720982,0.01710422709584236
1733461396233845800,3.401845703125,-0.18875735998153687,-0.06414084881544113,0.06108652427792549
1733461396243877400,3.41187744140625,-0.22540926933288574,-0.17348572611808777,0.15454891324043274
1733461396253835000,3.4218349609375,-0.3017674386501312,-0.3677408695220947,0.32498031854629517
1733461396263866400,3.431866455078125,-0.32498031854629517,-0.4343251883983612,0.41233405470848083
1733461396273854500,3.4418544921875,-0.32009339332580566,-0.4355469346046448,0.4599815309047699
1733461396283855400,3.45185546875,-0.2718350291252136,-0.3292563557624817,0.46181413531303406
1733461396293843200,3.46184326171875,-0.18081611394882202,-0.2474004179239273,0.4337143301963806
1733461396303874600,3.47187451171875,-0.0806342139840126,-0.13500121235847473,0.3500257730484009
1733461396313832400,3.48183251953125,0.019547687843441963,0.03787364438176155,0.21807889640331268
1733461396323864000,3.491864013671875,0.14782938361167908,0.20891591906547546,-0.015271631069481373
1733461396333852000,3.501851806640625,0.1667662113904953,0.21624629199504852,-0.17959438264369965
1733461396343882200,3.51188232421875,0.13011430203914642,0.17470745742321014,-0.34147366881370544
1733461396353841000,3.5218408203125,0.04153883829712868,0.10751228034496307,-0.4746423065662384
1733461396363871000,3.53187109375,-0.08735372871160507,0.016493361443281174,-0.5650503635406494
1733461396373860400,3.5418603515625,-0.2474004179239273,-0.05497787147760391,-0.617584764957428
1733461396383861500,3.551861572265625,-0.4196644127368927,-0.08552113175392151,-0.6114761233329773
1733461396393849300,3.561849365234375,-0.5656611919403076,0.10995574295520782,-0.46547931432724
1733461396403881500,3.571881591796875,-0.6029239892959595,0.2382374405860901,-0.25595253705978394
1733461396413838300,3.58183837890625,-0.6279694437980652,0.2828305959701538,-0.0012217304902151227
1733461396423869000,3.591868896484375,-0.6139195561408997,0.30604347586631775,0.21441370248794556
1733461396433858000,3.601858154296875,-0.5711590051651001,0.3286454975605011,0.32986724376678467
1733461396443858200,3.611858154296875,-0.513737678527832,0.3378084897994995,0.33536502718925476
1733461396453847000,3.621846923828125,-0.45875978469848633,0.29016098380088806,0.2577851414680481
1733461396463877600,3.631877685546875,-0.4105014503002167,0.18936823308467865,0.13377949595451355
1733461396473836000,3.6418359375,-0.33719760179519653,0.02626720629632473,-0.05742133408784866
1733461396483866400,3.651866455078125,-0.2773328125476837,-0.048258353024721146,-0.152105450630188
1733461396493855500,3.66185546875,-0.20586158335208893,-0.07757988572120667,-0.21380282938480377
1733461396503856000,3.671856201171875,-0.13072516024112701,-0.06963863968849182,-0.23884831368923187
1733461396513844500,3.681844482421875,-0.06658431142568588,-0.059864792972803116,-0.2272418737411499
1733461396523875800,3.691875732421875,-0.029932396486401558,-0.0555887371301651,-0.18875735998153687
1733461396533833700,3.701833740234375,-0.012217304669320583,-0.03848451003432274,-0.13927727937698364
1733461396543864800,3.71186474609375,-0.009773843921720982,0.010995574295520782,-0.0659734457731247
1733461396553853000,3.72185302734375,0.0006108652451075613,0.059864792972803116,-0.02932153269648552
1733461396563854000,3.73185400390625,0.02076941914856434,0.08124507963657379,-0.0006108652451075613
1733461396573842200,3.74184228515625,0.04581489413976669,0.05619960278272629,0.02321287989616394
1733461396583873000,3.751873046875,0.0708603709936142,-0.00427605677396059,0.045204028487205505
1733461396593861600,3.761861572265625,0.10201449692249298,-0.0555887371301651,0.06536258012056351
1733461396603862300,3.7718623046875,0.13927727937698364,-0.07819075137376785,0.08735372871160507
1733461396613850600,3.7818505859375,0.18570303916931152,-0.08185594528913498,0.1313360333442688
1733461396623881700,3.7918818359375,0.18631389737129211,-0.07452555745840073,0.15577064454555511
1733461396633839600,3.801839599609375,0.18325957655906677,-0.0354301854968071,0.15577064454555511
1733461396643871000,3.81187109375,0.1722639948129654,0.045204028487205505,0.1160643994808197
1733461396653859300,3.821859375,0.1368338167667389,0.12095131725072861,0.04886921867728233
1733461396663859700,3.831859619140625,0.07330382615327835,0.16249015927314758,-0.03726277872920036
1733461396673848300,3.841848388671875,-0.0006108652451075613,0.1875356286764145,-0.1258382350206375
1733461396683879200,3.851879150390625,-0.051312681287527084,0.1918116807937622,-0.18814650177955627
1733461396693837300,3.86183740234375,-0.1062905490398407,0.04337143152952194,-0.1563815027475357
1733461396703868400,3.871868408203125,-0.11789698898792267,-0.06963863968849182,-0.036041051149368286
1733461396713856800,3.881856689453125,-0.1062905490398407,-0.10873401165008545,0.1362229436635971
1733461396723856400,3.8918564453125,-0.07391469180583954,-0.07452555745840073,0.2779437005519867
1733461396733845800,3.901845703125,-0.02626720629632473,0.018325956538319588,0.29504790902137756
1733461396743876000,3.9118759765625,0.08918632566928864,0.2168571650981903,0.14233160018920898
1733461396753835000,3.9218349609375,0.3090978264808655,0.35063666105270386,-0.07269296050071716
1733461396763864800,3.93186474609375,0.5626068711280823,0.23029619455337524,-0.1661553531885147
1733461396773854500,3.9418544921875,0.607810914516449,-0.09529497474431992,-0.010995574295520782
1733461396783855600,3.951855712890625,0.5693264007568359,-0.4129449129104614,0.23029619455337524
1733461396793843200,3.96184326171875,0.46547931432724,-0.5778785347938538,0.48258355259895325
1733461396803875000,3.971875,0.3433062732219696,-0.5571091175079346,0.7061602473258972
1733461396813832400,3.98183251953125,0.2626720666885376,-0.35124751925468445,0.8698720932006836
1733461396823863000,3.991863037109375,0.2742784917354584,-0.0757472887635231,0.9437867999076843
1733461396833852000,4.001851806640625,0.3286454975605011,0.35063666105270386,0.8747590184211731
1733461396843884500,4.011884521484375,0.34758231043815613,0.45814892649650574,0.7293730974197388
1733461396853841000,4.0218408203125,0.403781920671463,0.4502076804637909,0.5222898125648499
1733461396863873500,4.03187353515625,0.4502076804637909,0.3695734739303589,0.24190263450145721
1733461396873860600,4.041860595703125,0.4758640229701996,0.1875356286764145,-0.07452555745840073
1733461396883860500,4.051860595703125,0.4660901725292206,-0.07330382615327835,-0.3597996234893799
1733461396893849300,4.061849365234375,0.40683624148368835,-0.2840523421764374,-0.578489363193512
1733461396903881200,4.071881103515625,0.323147714138031,-0.33719760179519653,-0.7092145681381226
1733461396913838600,4.081838623046875,0.2076941877603531,-0.17837265133857727,-0.6976081132888794
1733461396923870000,4.091869873046875,0.15515977144241333,-0.06902777403593063,-0.5607742667198181
1733461396933858000,4.101858154296875,0.12400564551353455,0.02076941914856434,-0.3738495409488678
1733461396943858700,4.111858642578125,0.11362093687057495,0.11362093687057495,-0.18814650177955627
1733461396953847000,4.121846923828125,0.12034045159816742,0.19303341209888458,-0.04886921867728233
1733461396963878100,4.131878173828125,0.14049901068210602,0.2223549485206604,0.015882495790719986
1733461396973836000,4.1418359375,0.14966198801994324,0.20097467303276062,0.00855211354792118
1733461396983867100,4.1518671875,0.1508837193250656,0.09773843735456467,-0.0708603709936142
1733461396993855500,4.16185546875,0.14905111491680145,0.04153883829712868,-0.1417207419872284
1733461397003856100,4.171856201171875,0.14538592100143433,0.007941247895359993,-0.2119702398777008
1733461397013844700,4.1818447265625,0.14844025671482086,0,-0.2687807083129883
1733461397023875800,4.191875732421875,0.1661553531885147,-0.01038470957428217,-0.2919935882091522
1733461397033833700,4.201833740234375,0.20036379992961884,-0.04153883829712868,-0.29138273000717163
1733461397043864800,4.21186474609375,0.23640485107898712,-0.07819075137376785,-0.28466320037841797
1733461397053853200,4.221853271484375,0.25473082065582275,-0.09773843735456467,-0.26145032048225403
1733461397063853800,4.231853759765625,0.2321287989616394,-0.10262536257505417,-0.22602014243602753
1733461397073842200,4.24184228515625,0.17898350954055786,-0.0959058403968811,-0.192422553896904
1733461397083873300,4.251873291015625,0.1111774742603302,-0.07941248267889023,-0.16004669666290283
1733461397093861600,4.261861572265625,0.042760565876960754,-0.07513642311096191,-0.12095131725072861
1733461397103862300,4.2718623046875,-0.015882495790719986,-0.05375614017248154,-0.08002334833145142
1733461397113849900,4.281849853515625,-0.0659734457731247,-0.016493361443281174,-0.04764748737215996
1733461397123881700,4.2918818359375,-0.1062905490398407,0.00427605677396059,-0.019547687843441963
1733461397133839400,4.30183935546875,-0.14355333149433136,-0.0507018156349659,0.031154127791523933
1733461397143870500,4.311870361328125,-0.15393804013729095,-0.13866640627384186,0.060475658625364304
1733461397153858600,4.321858642578125,-0.1459967941045761,-0.21380282938480377,0.03848451003432274
1733461397163859200,4.331859130859375,-0.13866640627384186,-0.21624629199504852,-0.03420845419168472
1733461397173847800,4.341847900390625,-0.15332718193531036,-0.16737708449363708,-0.11178833991289139
1733461397183878700,4.351878662109375,-0.17592918872833252,-0.06352998316287994,-0.1765400618314743
1733461397193836800,4.3618369140625,-0.20952677726745605,0.06230825558304787,-0.2217440903186798
1733461397203868000,4.371867919921875,-0.28588494658470154,0.18875735998153687,-0.2174680233001709
1733461397213856800,4.381856689453125,-0.31642818450927734,0.23640485107898712,-0.1612684279680252
1733461397223858000,4.39185791015625,-0.33597588539123535,0.21868975460529327,-0.056810468435287476
1733461397233845800,4.401845703125,-0.3549126982688904,0.13927727937698364,0.0659734457731247
1733461397243877400,4.41187744140625,-0.3640756905078888,0.00733038317412138,0.15882496535778046
1733461397253835000,4.4218349609375,-0.3585779070854187,-0.15027284622192383,0.20586158335208893
1733461397263866600,4.43186669921875,-0.3500257730484009,-0.3335324227809906,0.26572638750076294
1733461397273854500,4.4418544921875,-0.3029891550540924,-0.5791002511978149,0.455705463886261
1733461397283855600,4.451855712890625,-0.2541199326515198,-0.6548475623130798,0.617584764957428
1733461397293843200,4.46184326171875,-0.2321287989616394,-0.6145304441452026,0.7648032903671265
1733461397303875000,4.471875,-0.182648703455925,-0.4343251883983612,0.8509352803230286
1733461397313832400,4.48183251953125,-0.1215621829032898,-0.1765400618314743,0.8503243923187256
1733461397323863300,4.49186328125,-0.06169738993048668,0.04948008432984352,0.750142514705658
1733461397333852000,4.501851806640625,0.0012217304902151227,0.22418753802776337,0.5400048494338989
1733461397343883500,4.511883544921875,0.06902777403593063,0.3445279896259308,0.23579397797584534
1733461397353841000,4.5218408203125,0.05497787147760391,0.24984388053417206,-0.2272418737411499
1733461397363872500,4.53187255859375,-0.018936822190880775,0.09162978827953339,-0.455705463886261
1733461397373860400,4.5418603515625,-0.14294247329235077,-0.08491026610136032,-0.5797111392021179
1733461397383861500,4.551861572265625,-0.2620611786842346,-0.15577064454555511,-0.607810914516449
1733461397393849300,4.561849365234375,-0.3225368559360504,-0.08307767659425735,-0.5467243790626526
1733461397403881000,4.571880859375,-0.3494149148464203,0.04703662544488907,-0.41722095012664795
1733461397413838300,4.58183837890625,-0.3585779070854187,0.15760323405265808,-0.25961771607398987
1733461397423869400,4.591869384765625,-0.3634648323059082,0.22663100063800812,-0.07269296050071716
1733461397433858000,4.601858154296875,-0.3738495409488678,0.21868975460529327,-0.01160643994808197
1733461397443853300,4.611853271484375,-0.3744603991508484,0.15760323405265808,0.009773843921720982
1733461397453841700,4.621841552734375,-0.36590829491615295,0.0555887371301651,0.009162978269159794
1733461397463872800,4.631872802734375,-0.3500257730484009,-0.045204028487205505,-0.014049900695681572
1733461397473831000,4.641830810546875,-0.33169981837272644,-0.12400564551353455,-0.04764748737215996
1733461397483862000,4.651862060546875,-0.32009339332580566,-0.19120082259178162,-0.06963863968849182
1733461397493850400,4.661850341796875,-0.28955012559890747,-0.21563543379306793,-0.08002334833145142
1733461397503851300,4.671851318359375,-0.2565633952617645,-0.19486601650714874,-0.08246681094169617
1733461397513839400,4.68183935546875,-0.2064724564552307,-0.15332718193531036,-0.0806342139840126
1733461397523870500,4.691870361328125,-0.15882496535778046,-0.09712757170200348,-0.06780604273080826
1733461397533828400,4.701828369140625,-0.1160643994808197,-0.04337143152952194,-0.04153883829712868
1733461397543859500,4.711859375,-0.08429940044879913,-0.0024434609804302454,-0.015882495790719986
1733461397553847800,4.721847900390625,-0.07757988572120667,0.03787364438176155,-0.02076941914856434
1733461397563848400,4.731848388671875,-0.08368854224681854,0.07757988572120667,-0.07269296050071716
1733461397573836800,4.7418369140625,-0.09957103431224823,0.1160643994808197,-0.20525072515010834
1733461397583868000,4.751867919921875,-0.11301007121801376,0.13500121235847473,-0.27488934993743896
1733461397593856500,4.7618564453125,-0.11911872029304504,0.18509216606616974,-0.3139847218990326
1733461397603857000,4.77185693359375,-0.11239920556545258,0.22296582162380219,-0.30482175946235657
1733461397613845500,4.781845458984375,-0.09712757170200348,0.242513507604599,-0.2571742534637451
1733461397623876600,4.791876708984375,-0.08735372871160507,0.2687807083129883,-0.1869247704744339
1733461397633834200,4.801834228515625,-0.08124507963657379,0.2834414839744568,-0.10262536257505417
1733461397643865600,4.811865478515625,-0.06658431142568588,0.2834414839744568,0.022602014243602753
1733461397653854000,4.82185400390625,-0.06352998316287994,0.2779437005519867,0.07452555745840073
1733461397663854600,4.8318544921875,-0.0354301854968071,0.2840523421764374,0.07513642311096191
1733461397673843000,4.841843017578125,-0.00855211354792118,0.25534167885780334,0.03481931984424591
1733461397683874000,4.8518740234375,0,0.18997909128665924,-0.02626720629632473
1733461397693832200,4.861832275390625,-0.001832595793530345,0.11362093687057495,-0.09529497474431992
1733461397703863000,4.871863037109375,-0.006719517521560192,0.04581489413976669,-0.15454891324043274
1733461397713851400,4.881851318359375,-0.0006108652451075613,0.03481931984424591,-0.1417207419872284
1733461397723852800,4.891852783203125,0.00855211354792118,0.09346238523721695,-0.045204028487205505
1733461397733840400,4.90184033203125,0.03237585723400116,0.19120082259178162,0.09162978827953339
1733461397743871500,4.91187158203125,0.07880161702632904,0.26511552929878235,0.23640485107898712
1733461397753829400,4.921829345703125,0.13805554807186127,0.30054569244384766,0.3530801236629486
1733461397763860000,4.93185986328125,0.18875735998153687,0.27000242471694946,0.40683624148368835
1733461397773849000,4.94184912109375,0.2217440903186798,0.192422553896904,0.3640756905078888
1733461397783848700,4.9518486328125,0.22113321721553802,0.029932396486401558,0.26022860407829285
1733461397793838000,4.961838134765625,0.19792033731937408,-0.2638937830924988,0.10934487730264664
1733461397803869700,4.97186962890625,0.1869247704744339,-0.4746423065662384,0.12095131725072861
1733461397813827000,4.9818271484375,0.16432274878025055,-0.646295428276062,0.2535090744495392
1733461397823859000,4.99185888671875,0.14966198801994324,-0.6695083379745483,0.4447098970413208
1733461397833846500,5.001846435546875,0.14844025671482086,-0.5082398653030396,0.6291912198066711
1733461397843877000,5.011877197265625,0.18448130786418915,-0.2272418737411499,0.7586946487426758
1733461397853835500,5.02183544921875,0.21502456068992615,0.07024950534105301,0.807563841342926
1733461397863866400,5.031866455078125,0.26633724570274353,0.4300491213798523,0.6640105247497559
1733461397873855200,5.041855224609375,0.2565633952617645,0.49357911944389343,0.423329621553421
1733461397883857200,5.051857177734375,0.251676470041275,0.44654250144958496,0.08002334833145142
1733461397893844200,5.06184423828125,0.2474004179239273,0.2669481039047241,-0.2926044464111328
1733461397903874300,5.071874267578125,0.20830504596233368,0.0024434609804302454,-0.6010913848876953
1733461397913861600,5.081861572265625,0.13927727937698364,-0.22418753802776337,-0.7837401032447815
1733461397923864800,5.09186474609375,0.07819075137376785,-0.29077184200286865,-0.8252789378166199
1733461397933853000,5.10185302734375,0.03237585723400116,-0.1368338167667389,-0.6585127115249634
1733461397943854000,5.11185400390625,0.02626720629632473,-0.01466076634824276,-0.45326200127601624
1733461397953842000,5.121842041015625,0.02687807008624077,0.06414084881544113,-0.252287358045578
1733461397963873000,5.131873046875,0.028099801391363144,0.09040805697441101,-0.10873401165008545
1733461397973831000,5.141830810546875,0.03298672288656235,0.04642575979232788,-0.0354301854968071
1733461397983862000,5.151862060546875,0.03787364438176155,-0.05864306539297104,-0.03237585723400116
1733461397993850400,5.161850341796875,0.03848451003432274,-0.2064724564552307,-0.06291911751031876
1733461398003851000,5.17185107421875,0.03787364438176155,-0.35613444447517395,-0.0910189226269722
1733461398013839600,5.181839599609375,0.04092797264456749,-0.4899139404296875,-0.11362093687057495
1733461398023870500,5.191870361328125,0.06352998316287994,-0.5021312236785889,-0.11789698898792267
1733461398033828400,5.201828369140625,0.08735372871160507,-0.484416127204895,-0.1111774742603302
1733461398043859500,5.211859375,0.10934487730264664,-0.4447098970413208,-0.10567969083786011
1733461398053847800,5.221847900390625,0.1368338167667389,-0.3885102868080139,-0.1111774742603302
1733461398063848400,5.231848388671875,0.1716531366109848,-0.3017674386501312,-0.13377949595451355
1733461398073837000,5.241837158203125,0.18936823308467865,-0.21868975460529327,-0.15821409225463867
1733461398083868200,5.2518681640625,0.17837265133857727,-0.16432274878025055,-0.14416420459747314
1733461398093856500,5.2618564453125,0.17898350954055786,-0.13316862285137177,-0.10934487730264664
1733461398103857200,5.271857177734375,0.18509216606616974,-0.09651670604944229,-0.07391469180583954
1733461398113844700,5.2818447265625,0.19425514340400696,-0.06352998316287994,-0.05192354694008827
1733461398123876000,5.2918759765625,0.19792033731937408,-0.05253441259264946,-0.04337143152952194
1733461398133834000,5.301833984375,0.1918116807937622,-0.05803219974040985,-0.04703662544488907
1733461398143865300,5.311865234375,0.17409659922122955,-0.06352998316287994,-0.04581489413976669
1733461398153853400,5.321853515625,0.14782938361167908,-0.051312681287527084,-0.039706241339445114
1733461398163854000,5.33185400390625,0.1417207419872284,-0.02015855349600315,-0.051312681287527084
1733461398173842700,5.3418427734375,0.14355333149433136,0.01710422709584236,-0.08674286305904388
1733461398183873800,5.351873779296875,0.14049901068210602,0.033597588539123535,-0.13866640627384186
1733461398193831700,5.361831787109375,0.1264491081237793,0.02871066704392433,-0.19914206862449646
1733461398203862500,5.371862548828125,0.10445795953273773,0.03481931984424591,-0.2577851414680481
1733461398213851600,5.3818515625,0.09162978827953339,0.0555887371301651,-0.29626965522766113
1733461398223852500,5.3918525390625,0.07880161702632904,0.09162978827953339,-0.30604347586631775
1733461398233840400,5.40184033203125,0.04764748737215996,0.1362229436635971,-0.2583959996700287
1733461398243872000,5.4118720703125,0.00733038317412138,0.1264491081237793,-0.19120082259178162
1733461398253829600,5.42182958984375,-0.04398229718208313,0.07391469180583954,-0.10384709388017654
1733461398263860700,5.43186083984375,-0.09040805697441101,-0.021380282938480377,0.0006108652451075613
1733461398273849000,5.44184912109375,-0.1258382350206375,-0.11789698898792267,0.10201449692249298
1733461398283849700,5.451849609375,-0.14844025671482086,-0.15332718193531036,0.16737708449363708
1733461398293838000,5.461838134765625,-0.15332718193531036,-0.11789698898792267,0.16432274878025055
1733461398303870000,5.471869873046875,-0.13316862285137177,-0.04153883829712868,0.04886921867728233
1733461398313827000,5.4818271484375,-0.11789698898792267,-0.02871066704392433,-0.048258353024721146
1733461398323859000,5.49185888671875,-0.10506882518529892,-0.07941248267889023,-0.08918632566928864
1733461398333846500,5.501846435546875,-0.09346238523721695,-0.1966986060142517,-0.02382374368607998
1733461398343878100,5.511878173828125,-0.059864792972803116,-0.34208452701568604,0.14905111491680145
1733461398353835800,5.521835693359375,-0.036651913076639175,-0.5222898125648499,0.4031710624694824
1733461398363867400,5.531867431640625,-0.04764748737215996,-0.7141014933586121,0.6927211880683899
1733461398373855200,5.541855224609375,-0.21380282938480377,-0.9254608750343323,1.035416603088379
1733461398383856000,5.551856201171875,-0.33597588539123535,-1.0482447147369385,1.0971139669418335
1733461398393844200,5.56184423828125,-0.22602014243602753,-0.949895441532135,1.0293079614639282
1733461398403874600,5.57187451171875,-0.13927727937698364,-0.5558874011039734,0.8484918475151062
1733461398413833200,5.581833251953125,-0.05375614017248154,-0.025045474991202354,0.5406157374382019
1733461398423863600,5.591863525390625,0.0354301854968071,0.4703662395477295,0.15027284622192383
1733461398433852700,5.601852783203125,0.11545353382825851,0.7422012686729431,-0.21380282938480377
1733461398443854000,5.61185400390625,0.15760323405265808,0.7678576111793518,-0.5149593949317932
1733461398453841700,5.621841552734375,0.09346238523721695,0.5558874011039734,-0.7855727076530457
1733461398463873500,5.63187353515625,-0.02015855349600315,0.4056145250797272,-0.8307767510414124
1733461398473831000,5.641830810546875,-0.0861319974064827,0.3927863538265228,-0.7849618196487427
1733461398483862300,5.6518623046875,-0.1160643994808197,0.45204028487205505,-0.6432411074638367
1733461398493850400,5.661850341796875,-0.14477506279945374,0.5461135506629944,-0.4398229718208313
1733461398503851500,5.6718515625,-0.17776179313659668,0.5717698931694031,-0.21441370248794556
1733461398513839400,5.68183935546875,-0.22663100063800812,0.5210680365562439,-0.019547687843441963
1733461398523870500,5.691870361328125,-0.27611109614372253,0.42638394236564636,0.11972958594560623
1733461398533828400,5.701828369140625,-0.27611109614372253,0.3225368559360504,0.11362093687057495
1733461398543859500,5.711859375,-0.27000242471694946,0.18509216606616974,0.06475171446800232
1733461398553847800,5.721847900390625,-0.25045475363731384,0.051312681287527084,-0.0012217304902151227
1733461398563848000,5.731847900390625,-0.2174680233001709,-0.07147123664617538,-0.0555887371301651
1733461398573836800,5.7418369140625,-0.15027284622192383,-0.14416420459747314,-0.09285151958465576
1733461398583868200,5.7518681640625,-0.09712757170200348,-0.18448130786418915,-0.11362093687057495
1733461398593856500,5.7618564453125,-0.015271631069481373,-0.18020524084568024,-0.13011430203914642
1733461398603857000,5.77185693359375,0.04092797264456749,-0.12950342893600464,-0.14294247329235077
1733461398613845500,5.781845458984375,0.09468411654233932,-0.0354301854968071,-0.16004669666290283
1733461398623876600,5.791876708984375,0.12950342893600464,0.06414084881544113,-0.16371189057826996
1733461398633834200,5.801834228515625,0.1472185254096985,0.13744467496871948,-0.13744467496871948
1733461398643865300,5.811865234375,0.15332718193531036,0.16982053220272064,-0.0959058403968811
1733461398653854000,5.82185400390625,0.1417207419872284,0.16493362188339233,-0.06169738993048668
1733461398663854600,5.8318544921875,0.11362093687057495,0.14477506279945374,-0.04581489413976669
1733461398673843000,5.841843017578125,0.06902777403593063,0.09834930300712585,-0.045204028487205505
1733461398683874000,5.8518740234375,0.03787364438176155,0.09162978827953339,-0.06108652427792549
1733461398693832200,5.861832275390625,0.012217304669320583,0.09834930300712585,-0.07024950534105301
1733461398703863300,5.87186328125,-0.0006108652451075613,0.11667526513338089,-0.06658431142568588
1733461398713851600,5.8818515625,-0.00427605677396059,0.14233160018920898,-0.045204028487205505
1733461398723852000,5.89185205078125,-0.006108652334660292,0.1618792861700058,-0.016493361443281174
1733461398733840400,5.90184033203125,-0.005497787147760391,0.1814269721508026,0.021380282938480377
1733461398743871500,5.91187158203125,0.012217304669320583,0.19608774781227112,0.06475171446800232
1733461398753829400,5.921829345703125,0.018325956538319588,0.19425514340400696,0.05009094998240471
1733461398763860700,5.93186083984375,0.01038470957428217,0.19364428520202637,-0.010995574295520782
1733461398773849000,5.94184912109375,-0.007941247895359993,0.18448130786418915,-0.11178833991289139
1733461398783849500,5.951849365234375,-0.021380282938480377,0.16249015927314758,-0.23029619455337524
1733461398793838000,5.961838134765625,-0.04153883829712868,0.1459967941045761,-0.34513887763023376
1733461398803869700,5.97186962890625,-0.07941248267889023,0.14844025671482086,-0.42271876335144043
1733461398813827000,5.9818271484375,-0.14782938361167908,0.2217440903186798,-0.4343251883983612
1733461398823859000,5.99185888671875,-0.1771509200334549,0.32498031854629517,-0.37568211555480957
1733461398833846800,6.0018466796875,-0.17592918872833252,0.4434881806373596,-0.2626720666885376
1733461398843878400,6.01187841796875,-0.1667662113904953,0.5021312236785889,-0.11178833991289139
1733461398853835500,6.02183544921875,-0.18448130786418915,0.48869219422340393,0.031154127791523933
1733461398863866600,6.03186669921875,-0.34025195240974426,0.37751471996307373,0.10445795953273773
1733461398873855200,6.041855224609375,-0.323147714138031,0.3952298164367676,0.036651913076639175
1733461398883855400,6.05185546875,-0.24190263450145721,0.5125159621238708,-0.1362229436635971
1733461398893844200,6.06184423828125,-0.06230825558304787,0.5186246037483215,-0.37568211555480957
1733461398903875800,6.071875732421875,0.001832595793530345,0.313373863697052,-0.3982841372489929
1733461398913833500,6.08183349609375,-0.01160643994808197,-0.06841690838336945,-0.24495697021484375
1733461398923864800,6.09186474609375,-0.05375614017248154,-0.5112941861152649,0.08552113175392151
1733461398933853000,6.10185302734375,-0.1215621829032898,-0.8833111524581909,0.5387831330299377
1733461398943854000,6.11185400390625,-0.17592918872833252,-1.1288789510726929,1.016479730606079
1733461398953842000,6.121842041015625,-0.20341812074184418,-1.1575896739959717,1.4025466442108154
1733461398963872300,6.131872314453125,-0.2675589919090271,-0.9859365224838257,1.7177530527114868
1733461398973831000,6.141830810546875,-0.20097467303276062,-0.7953465580940247,1.777006983757019
1733461398983863300,6.15186328125,-0.13805554807186127,-0.5357288122177124,1.7299703359603882
1733461398993850600,6.1618505859375,-0.05497787147760391,-0.29016098380088806,1.5644259452819824
1733461399003850200,6.171850341796875,0.05192354694008827,-0.08796459436416626,1.2712105512619019
1733461399013839600,6.181839599609375,0.1508837193250656,0.05925392732024193,0.8387179970741272
1733461399023921200,6.191921142578125,0.24068090319633484,0.08185594528913498,0.3488040566444397
1733461399033828400,6.201828369140625,0.3500257730484009,-0.04214970022439957,-0.28955012559890747
1733461399043859000,6.21185888671875,0.24984388053417206,-0.2217440903186798,-0.6243042945861816
1733461399053847800,6.221847900390625,0.02626720629632473,-0.3390302062034607,-0.856433093547821
1733461399063849000,6.231848876953125,-0.19303341209888458,-0.37568211555480957,-0.941343367099762
1733461399073836800,6.2418369140625,-0.2968805134296417,-0.24434609711170197,-0.9004153609275818
1733461399083868400,6.251868408203125,-0.3182607889175415,-0.039095375686883926,-0.7739662528038025
1733461399093856500,6.2618564453125,-0.32131510972976685,0.11484266817569733,-0.5931501388549805
1733461399103857400,6.271857421875,-0.31093040108680725,0.19058994948863983,-0.41172316670417786
1733461399113844700,6.2818447265625,-0.33047810196876526,0.21930062770843506,-0.23640485107898712
1733461399123876900,6.291876953125,-0.38606682419776917,0.20036379992961884,-0.182648703455925
1733461399133834000,6.301833984375,-0.46303585171699524,0.12217304855585098,-0.15577064454555511
1733461399143865000,6.311864990234375,-0.5283984541893005,0.0006108652451075613,-0.13805554807186127
1733461399153853700,6.321853759765625,-0.5925393104553223,-0.12889257073402405,-0.11362093687057495
1733461399163854000,6.33185400390625,-0.6432411074638367,-0.24434609711170197,-0.07452555745840073
1733461399173842700,6.3418427734375,-0.675616979598999,-0.31581732630729675,-0.01160643994808197
1733461399183873500,6.35187353515625,-0.6908885836601257,-0.34086281061172485,0.10262536257505417
1733461399193831700,6.361831787109375,-0.694553792476654,-0.31459560990333557,0.17776179313659668
1733461399203862800,6.37186279296875,-0.7018841505050659,-0.2742784917354584,0.23884831368923187
1733461399213851400,6.381851318359375,-0.6994407176971436,-0.1716531366109848,0.2773328125476837
1733461399223852300,6.391852294921875,-0.6670648455619812,-0.0708603709936142,0.3023782968521118
1733461399233840400,6.40184033203125,-0.6243042945861816,-0.030543262138962746,0.31642818450927734
1733461399243871700,6.411871826171875,-0.5949827432632446,-0.05375614017248154,0.31093040108680725
1733461399253829400,6.421829345703125,-0.5632177591323853,-0.17898350954055786,0.26083946228027344
1733461399263860700,6.43186083984375,-0.5479460954666138,-0.2822197377681732,0.21135938167572021
1733461399273849000,6.44184912109375,-0.5503895878791809,-0.3536909818649292,0.16371189057826996
1733461399283850000,6.45185009765625,-0.5681046843528748,-0.3683517575263977,0.1264491081237793
1733461399293838300,6.46183837890625,-0.6023131608963013,-0.32498031854629517,0.10201449692249298
1733461399303869400,6.471869384765625,-0.6438519954681396,-0.23518311977386475,0.08491026610136032
1733461399313827300,6.481827392578125,-0.685390830039978,-0.14355333149433136,0.07391469180583954
1733461399323858700,6.491858642578125,-0.7202101349830627,-0.0806342139840126,0.07635815441608429
1733461399333846800,6.5018466796875,-0.7312057018280029,-0.05375614017248154,0.08674286305904388
1733461399343877600,6.511877685546875,-0.720820963382721,-0.06291911751031876,0.07757988572120667
1733461399353835500,6.52183544921875,-0.7055493593215942,-0.05619960278272629,0.0354301854968071
1733461399363867000,6.531866943359375,-0.6860016584396362,-0.02871066704392433,-0.036041051149368286
1733461399373855200,6.541855224609375,-0.6646214127540588,0.02321287989616394,-0.11423180252313614
1733461399383855400,6.55185546875,-0.6340781450271606,0.07513642311096191,-0.16371189057826996
1733461399393844200,6.56184423828125,-0.608421802520752,0.08674286305904388,-0.16432274878025055
1733461399403874800,6.571874755859375,-0.5809328556060791,0.06230825558304787,-0.09773843735456467
1733461399413833200,6.581833251953125,-0.5797111392021179,0.02932153269648552,-0.033597588539123535
1733461399423864300,6.5918642578125,-0.7006624341011047,-0.018325956538319588,0.033597588539123535
1733461399433853000,6.60185302734375,-0.7299839854240417,0.021380282938480377,0.0708603709936142
1733461399443853300,6.611853271484375,-0.7263187766075134,0.15454891324043274,0.06169738993048668
1733461399453841700,6.621841552734375,-0.7061602473258972,0.33658674359321594,-0.03481931984424591
1733461399463872500,6.63187255859375,-0.6133087277412415,0.5619960427284241,-0.25961771607398987
1733461399473831000,6.641830810546875,-0.38179078698158264,0.921795666217804,-0.7525860071182251
1733461399483862500,6.651862548828125,-0.3536909818649292,0.9327912330627441,-0.9926560521125793
1733461399493850400,6.661850341796875,-0.3488040566444397,0.7428121566772461,-1.0714576244354248
1733461399503851500,6.6718515625,-0.36651915311813354,0.3995058834552765,-0.9492846131324768
1733461399513839400,6.68183935546875,-0.3677408695220947,-0.010995574295520782,-0.6285803318023682
1733461399523871000,6.69187109375,-0.3732386529445648,-0.46792277693748474,-0.1514945775270462
1733461399533828400,6.701828369140625,-0.3891211748123169,-0.8258898258209229,0.3885102868080139
1733461399543860000,6.71185986328125,-0.41172316670417786,-1.0268645286560059,0.8509352803230286
1733461399553847800,6.721847900390625,-0.4306600093841553,-0.9162978529930115,1.2406673431396484
1733461399563847700,6.73184765625,-0.39767327904701233,-0.6322455406188965,1.2773191928863525
1733461399573836800,6.7418369140625,-0.3286454975605011,-0.25595253705978394,1.1545352935791016
1733461399583867400,6.751867431640625,-0.27061331272125244,0.06963863968849182,0.9297369122505188
1733461399593856500,6.7618564453125,-0.2565633952617645,0.22113321721553802,0.6603453159332275
1733461399603856100,6.771856201171875,-0.29565876722335815,0.18020524084568024,0.40194934606552124
1733461399613845500,6.781845458984375,-0.33536502718925476,0.06352998316287994,0.18081611394882202
1733461399623876000,6.7918759765625,-0.3897320330142975,-0.15821409225463867,-0.04092797264456749
1733461399633834200,6.801834228515625,-0.4544837474822998,-0.28649580478668213,-0.09346238523721695
1733461399643866400,6.811866455078125,-0.5094616413116455,-0.33536502718925476,-0.08307767659425735
1733461399653854000,6.82185400390625,-0.5271766781806946,-0.2981022298336029,-0.042760565876960754
1733461399663855000,6.831855224609375,-0.5894849896430969,-0.2321287989616394,0.01466076634824276
1733461399673843000,6.841843017578125,-0.6218608021736145,-0.11239920556545258,0.06780604273080826
1733461399683875000,6.851875,-0.627358615398407,0.02871066704392433,0.1007927656173706
1733461399693832200,6.861832275390625,-0.6499606370925903,0.14416420459747314,0.06963863968849182
1733461399703862800,6.87186279296875,-0.7263187766075134,0.06291911751031876,-0.056810468435287476
1733461399713851400,6.881851318359375,-0.8234463334083557,0.08246681094169617,-0.24678955972194672
1733461399723851500,6.8918515625,-0.8729264140129089,0.02932153269648552,-0.42149701714515686
1733461399733840400,6.90184033203125,-0.9077457785606384,-0.02871066704392433,-0.5534439086914062
1733461399743872500,6.91187255859375,-0.9511171579360962,-0.09468411654233932,-0.6395758986473083
1733461399753829400,6.921829345703125,-1.0024298429489136,-0.15577064454555511,-0.675616979598999
1733461399763861200,6.931861328125,-1.0769554376602173,-0.20463985204696655,-0.6505714654922485
1733461399773849000,6.94184912109375,-1.166752576828003,-0.19914206862449646,-0.5345070958137512
1733461399783850200,6.951850341796875,-1.2803735733032227,-0.1618792861700058,-0.3897320330142975
1733461399793838000,6.961838134765625,-1.3555099964141846,-0.09712757170200348,-0.22113321721553802
1733461399803870000,6.971869873046875,-1.4220943450927734,0.010995574295520782,-0.0403171069920063
1733461399813827000,6.9818271484375,-1.4489723443984985,0.12767083942890167,0.15943582355976105
1733461399823859000,6.99185888671875,-1.4227051734924316,0.08979719132184982,0.29504790902137756
1733461399833846800,7.0018466796875,-1.4538593292236328,-0.015882495790719986,0.3280346393585205
1733461399843878400,7.01187841796875,-1.5894713401794434,-0.09468411654233932,0.2730567753314972
1733461399853835500,7.02183544921875,-1.6236798763275146,-0.2382374405860901,0.2168571650981903
1733461399863867400,7.031867431640625,-1.6395623683929443,-0.39706242084503174,0.13377949595451355
1733461399873855200,7.041855224609375,-1.6792685985565186,-0.4948008358478546,0.04948008432984352
1733461399883856400,7.0518564453125,-1.72935950756073,-0.5833762884140015,0.01160643994808197
1733461399893844200,7.06184423828125,-1.7556266784667969,-0.6688974499702454,0.019547687843441963
1733461399903876000,7.0718759765625,-1.7666223049163818,-0.7367035150527954,0.03481931984424591
1733461399913861400,7.081861328125,-1.8368717432022095,-0.7660250067710876,0.028099801391363144
1733461399923863800,7.09186376953125,-1.949881911277771,-0.7757988572120667,-0.03481931984424591
1733461399933853000,7.10185302734375,-1.9706512689590454,-0.8093964457511902,-0.14416420459747314
1733461399943852800,7.111852783203125,-1.9810359477996826,-0.7470881938934326,-0.2773328125476837
1733461399953841700,7.121841552734375,-2.0256290435791016,-0.6817256212234497,-0.4031710624694824
1733461399963872500,7.13187255859375,-2.1148154735565186,-0.665232241153717,-0.49724429845809937
1733461399973831000,7.141830810546875,-2.1905627250671387,-0.6682865619659424,-0.5442809462547302
1733461399983862500,7.151862548828125,-2.219273328781128,-0.6444628238677979,-0.5455026626586914
1733461399993850400,7.161850341796875,-2.2290472984313965,-0.5870414972305298,-0.45875978469848633
1733461400003851800,7.171851806640625,-2.2241604328155518,-0.5271766781806946,-0.3500257730484009
1733461400013839400,7.18183935546875,-2.2101104259490967,-0.4697553813457489,-0.22479841113090515
1733461400023871200,7.191871337890625,-2.1991147994995117,-0.4043927788734436,-0.10934487730264664
1733461400033828400,7.201828369140625,-2.263866662979126,-0.35063666105270386,-0.015271631069481373
1733461400043860200,7.211860107421875,-2.3151793479919434,-0.2779437005519867,0.03481931984424591
1733461400053847800,7.221847900390625,-2.299907684326172,-0.16249015927314758,0.03787364438176155
1733461400063849500,7.231849365234375,-2.244929790496826,-0.02932153269648552,-0.0012217304902151227
1733461400073836800,7.2418369140625,-2.2204952239990234,-0.014049900695681572,-0.039706241339445114
1733461400083868700,7.25186865234375,-2.22171688079834,-0.06719517707824707,-0.07819075137376785
1733461400093856800,7.261856689453125,-2.2711970806121826,-0.19792033731937408,-0.11728613078594208
1733461400103857700,7.271857666015625,-2.3793201446533203,-0.3793473243713379,-0.1459967941045761
1733461400113844500,7.281844482421875,-2.4856107234954834,-0.5827654600143433,-0.16554448008537292
1733461400123876900,7.291876953125,-2.563190460205078,-0.7556403279304504,-0.17470745742321014
1733461400133834000,7.301833984375,-2.5705208778381348,-0.8741481900215149,-0.1716531366109848
1733461400143865900,7.311865966796875,-2.4947736263275146,-0.8307767510414124,-0.15821409225463867
1733461400153853700,7.321853759765625,-2.378098487854004,-0.7079927921295166,-0.13805554807186127
1733461400163854800,7.331854736328125,-2.2400429248809814,-0.5302310585975647,-0.11239920556545258
1733461400173842700,7.3418427734375,-2.1068742275238037,-0.3689626157283783,-0.09040805697441101
1733461400183874300,7.351874267578125,-1.9871445894241333,-0.23273965716362,-0.05803219974040985
1733461400193831700,7.361831787109375,-1.8857409954071045,-0.11545353382825851,-0.015271631069481373
1733461400203863300,7.37186328125,-1.806328535079956,-0.02871066704392433,0.028099801391363144
1733461400213851400,7.381851318359375,-1.7140878438949585,0.004886921960860491,0.08429940044879913
1733461400223852800,7.391852783203125,-1.6487252712249756,-0.06169738993048668,0.10201449692249298
1733461400233840400,7.40184033203125,-1.642616629600525,-0.22357667982578278,0.09773843735456467
1733461400243872300,7.411872314453125,-1.6780468225479126,-0.4147774875164032,0.06230825558304787
1733461400253829400,7.421829345703125,-1.6658295392990112,-0.49785518646240234,-0.009162978269159794
1733461400263861500,7.431861572265625,-1.5986343622207642,-0.4538728892803192,-0.10262536257505417
1733461400273849000,7.44184912109375,-1.4868459701538086,-0.3280346393585205,-0.19364428520202637
1733461400283850200,7.451850341796875,-1.3127493858337402,-0.10201449692249298,-0.2675589919090271
1733461400293838000,7.461838134765625,-1.236391305923462,0.027488935738801956,-0.25595253705978394
1733461400303870000,7.471869873046875,-1.1496484279632568,0.12828169763088226,-0.21074850857257843
1733461400313827000,7.4818271484375,-1.0561859607696533,0.19608774781227112,-0.14905111491680145
1733461400323857700,7.491857666015625,-0.9651671051979065,0.22846360504627228,-0.08124507963657379
1733461400333846800,7.5018466796875,-0.8808676600456238,0.21441370248794556,-0.02687807008624077
1733461400343877400,7.51187744140625,-0.8051204085350037,0.17104226350784302,0.00733038317412138
1733461400353835500,7.52183544921875,-0.7128797173500061,0.1062905490398407,0.003054326167330146
1733461400363866400,7.531866455078125,-0.655458390712738,0.08918632566928864,-0.03298672288656235
1733461400373855200,7.541855224609375,-0.6047565937042236,0.08796459436416626,-0.08552113175392151
1733461400383855400,7.55185546875,-0.5589417219161987,0.08979719132184982,-0.13805554807186127
1733461400393844200,7.56184423828125,-0.5216789245605469,0.08857546001672745,-0.1875356286764145
1733461400403874600,7.57187451171875,-0.4954117238521576,0.07696902006864548,-0.22663100063800812
1733461400413833500,7.58183349609375,-0.475253164768219,0.04886921867728233,-0.2541199326515198
1733461400423863800,7.59186376953125,-0.46242499351501465,0.006108652334660292,-0.27488934993743896
1733461400433853000,7.60185302734375,-0.4086688458919525,-0.02871066704392433,-0.2938261926174164
1733461400443852800,7.611852783203125,-0.34208452701568604,-0.031154127791523933,-0.30115658044815063
1733461400453841700,7.621841552734375,-0.24434609711170197,0.00366519158706069,-0.3066543638706207
1733461400463872800,7.631872802734375,-0.152105450630188,0.04398229718208313,-0.29626965522766113
1733461400473831000,7.641830810546875,-0.09712757170200348,0.07819075137376785,-0.2577851414680481
1733461400483861800,7.65186181640625,-0.05375614017248154,0.11423180252313614,-0.19364428520202637
1733461400493850400,7.661850341796875,-0.019547687843441963,0.1722639948129654,-0.11056660860776901
1733461400503850800,7.671850830078125,0.042760565876960754,0.2785545587539673,0.03176499158143997
1733461400513839400,7.68183935546875,0.07208210229873657,0.3488040566444397,0.13316862285137177
1733461400523870500,7.691870361328125,0.0959058403968811,0.4190535545349121,0.23457226157188416
1733461400533828400,7.701828369140625,0.1411098688840866,0.48380526900291443,0.32559117674827576
1733461400543859500,7.711859375,0.19058994948863983,0.5357288122177124,0.3995058834552765
1733461400553847800,7.721847900390625,0.2217440903186798,0.5638286471366882,0.42149701714515686
1733461400563848400,7.731848388671875,0.22907446324825287,0.5534439086914062,0.3488040566444397
1733461400573836800,7.7418369140625,0.21319197118282318,0.5027421116828918,-0.005497787147760391
1733461400583867400,7.751867431640625,0.24190263450145721,0.44165557622909546,-0.38179078698158264
1733461400593856500,7.7618564453125,0.3634648323059082,0.3433062732219696,-0.7727445363998413
1733461400603857400,7.771857421875,0.4398229718208313,0.13866640627384186,-1.0286970138549805
1733461400613845500,7.781845458984375,0.4660901725292206,-0.10018189996480942,-1.073290228843689
1733461400623876900,7.791876953125,0.4251621961593628,-0.3182607889175415,-0.9034696817398071
1733461400633834500,7.80183447265625,0.3744603991508484,-0.47280970215797424,-0.5485569834709167
1733461400643865900,7.811865966796875,0.22968533635139465,-0.4691445231437683,-0.1007927656173706
1733461400653854000,7.82185400390625,-0.13255776464939117,-0.3903428912162781,0.588263213634491
1733461400663854800,7.831854736328125,-0.2724458873271942,-0.3084869384765625,0.9657779335975647
1733461400673843000,7.841843017578125,-0.2742784917354584,-0.17531833052635193,1.2205088138580322
1733461400683873500,7.85187353515625,-0.1569923609495163,0.004886921960860491,1.3353514671325684
1733461400693832200,7.861832275390625,-0.0507018156349659,0.12461651116609573,1.3432927131652832
1733461400703862300,7.8718623046875,0.03726277872920036,0.14905111491680145,1.2736539840698242
1733461400713851400,7.881851318359375,0.09346238523721695,0.09224065393209457,1.1398745775222778
1733461400723851300,7.891851318359375,0.1264491081237793,-0.022602014243602753,0.8411614298820496
1733461400733840400,7.90184033203125,0.13072516024112701,-0.04459316283464432,0.6298020482063293
1733461400743871000,7.91187109375,0.17531833052635193,-0.09529497474431992,0.44654250144958496
1733461400753829400,7.921829345703125,0.18570303916931152,-0.17287486791610718,0.2773328125476837
1733461400763861200,7.931861328125,0.1160643994808197,-0.2577851414680481,0.12522737681865692
1733461400773849000,7.94184912109375,0.05192354694008827,-0.24923302233219147,-0.00733038317412138
1733461400783850000,7.95185009765625,0.012217304669320583,-0.13011430203914642,-0.11301007121801376
1733461400793838000,7.961838134765625,-0.039706241339445114,0.13377949595451355,-0.17531833052635193
1733461400803868400,7.971868408203125,-0.05253441259264946,0.2785545587539673,-0.15271630883216858
1733461400813827000,7.9818271484375,-0.05925392732024193,0.3695734739303589,-0.11056660860776901
1733461400823857400,7.991857421875,-0.08552113175392151,0.3805690407752991,-0.06108652427792549
1733461400833846800,8.0018466796875,-0.12339477986097336,0.2987131178379059,-0.018325956538319588
1733461400843877000,8.011877197265624,-0.15271630883216858,0.1569923609495163,0.0024434609804302454
1733461400853835500,8.02183544921875,-0.17776179313659668,0.01038470957428217,-0.00855211354792118
1733461400863866400,8.031866455078125,-0.19608774781227112,-0.09040805697441101,-0.05742133408784866
1733461400873855200,8.041855224609375,-0.1722639948129654,-0.14355333149433136,-0.16737708449363708
1733461400883855400,8.05185546875,-0.1417207419872284,-0.1362229436635971,-0.23273965716362
1733461400893844200,8.06184423828125,-0.1014036312699318,-0.09529497474431992,-0.2779437005519867
1733461400903874600,8.07187451171875,-0.060475658625364304,-0.018325956538319588,-0.303600013256073
1733461400913833500,8.08183349609375,-0.029932396486401558,0.08735372871160507,-0.3023782968521118
1733461400923863800,8.09186376953125,-0.013439035043120384,0.18020524084568024,-0.2687807083129883
1733461400933852700,8.101852783203125,0,0.27550023794174194,-0.21074850857257843
1733461400943852800,8.111852783203124,0.02076941914856434,0.4447098970413208,-0.08552113175392151
1733461400953841700,8.121841552734375,0.03176499158143997,0.5100724697113037,0.00855211354792118
1733461400963872300,8.131872314453124,0.02382374368607998,0.5051855444908142,0.09529497474431992
1733461400973831000,8.141830810546875,-0.00366519158706069,0.43737950921058655,0.15271630883216858
1733461400983862000,8.151862060546875,-0.030543262138962746,0.3237585723400116,0.17531833052635193
1733461400993850400,8.161850341796875,-0.05619960278272629,0.18081611394882202,0.15271630883216858
1733461401003851000,8.17185107421875,-0.07819075137376785,0.039706241339445114,0.10384709388017654
1733461401013839400,8.18183935546875,-0.06414084881544113,-0.028099801391363144,0.02015855349600315
1733461401023870700,8.19187060546875,-0.03481931984424591,-0.0708603709936142,0.018325956538319588
1733461401033828400,8.201828369140625,0.04398229718208313,-0.17287486791610718,0.04214970022439957
1733461401043859700,8.211859619140625,0.09957103431224823,-0.21624629199504852,0.07208210229873657
1733461401053847800,8.221847900390625,0.09346238523721695,-0.22357667982578278,0.10567969083786011
1733461401063848400,8.231848388671875,0.07147123664617538,-0.22540926933288574,0.14355333149433136
1733461401073837000,8.241837158203126,0.03481931984424591,-0.22113321721553802,0.1869247704744339
1733461401083868000,8.251867919921875,-0.025656340643763542,-0.21380282938480377,0.23335053026676178
1733461401093856500,8.2618564453125,-0.07696902006864548,-0.20586158335208893,0.2883284091949463
1733461401103857200,8.271857177734375,-0.06719517707824707,-0.18570303916931152,0.2981022298336029
1733461401113844500,8.281844482421874,-0.054367005825042725,-0.17776179313659668,0.27122417092323303
1733461401123876000,8.2918759765625,-0.02871066704392433,-0.19792033731937408,0.20036379992961884
1733461401133834000,8.301833984375,-0.004886921960860491,-0.2278527319431305,0.09651670604944229
1733461401143865000,8.311864990234374,0,-0.2632829248905182,-0.01710422709584236
1733461401153853700,8.321853759765625,-0.010995574295520782,-0.26939156651496887,-0.12339477986097336
1733461401163854000,8.33185400390625,-0.06475171446800232,-0.2590068578720093,-0.24923302233219147
1733461401173842700,8.3418427734375,-0.1313360333442688,-0.27122417092323303,-0.29565876722335815
1733461401183873500,8.35187353515625,-0.21380282938480377,-0.32131510972976685,-0.3072652220726013
1733461401193831700,8.361831787109375,-0.27550023794174194,-0.4288274049758911,-0.30054569244384766
1733461401203862500,8.371862548828124,-0.30604347586631775,-0.5436700582504272,-0.30115658044815063
1733461401213851400,8.381851318359375,-0.3176499307155609,-0.6145304441452026,-0.3335324227809906
1733461401223852500,8.3918525390625,-0.30054569244384766,-0.6017022728919983,-0.4086688458919525
1733461401233840400,8.40184033203125,-0.2028072625398636,-0.40133845806121826,-0.5320636034011841
1733461401243872000,8.4118720703125,-0.09407325088977814,-0.23273965716362,-0.5485569834709167
1733461401253829400,8.421829345703125,-0.059864792972803116,-0.2015855312347412,-0.45814892649650574
1733461401263861200,8.431861328125,-0.07757988572120667,-0.30115658044815063,-0.26083946228027344
1733461401273849000,8.44184912109375,-0.1007927656173706,-0.4105014503002167,0.012828170321881771
1733461401283850200,8.451850341796876,-0.18814650177955627,-0.4917465150356293,0.32681289315223694
1733461401293838000,8.461838134765625,-0.12400564551353455,-0.655458390712738,0.5925393104553223
1733461401303870000,8.471869873046876,-0.11484266817569733,-0.627358615398407,0.8924741148948669
1733461401313827300,8.481827392578126,-0.18020524084568024,-0.5900958180427551,0.988990843296051
1733461401323857400,8.491857421875,-0.23335053026676178,-0.5204572081565857,0.970054030418396
1733461401333846800,8.5018466796875,-0.2565633952617645,-0.3640756905078888,0.8381071090698242
1733461401343877000,8.511877197265624,-0.2541199326515198,-0.14049901068210602,0.6010913848876953
1733461401353835500,8.52183544921875,-0.2278527319431305,0.07696902006864548,0.31154128909111023
1733461401363867100,8.5318671875,-0.18325957655906677,0.2638937830924988,0.012828170321881771
1733461401373855200,8.541855224609375,-0.10995574295520782,0.5210680365562439,-0.2376265823841095
1733461401383854800,8.551854736328124,-0.0354301854968071,0.5265658497810364,-0.41661009192466736
1733461401393844200,8.56184423828125,-0.0659734457731247,0.40133845806121826,-0.46181413531303406
1733461401403875800,8.571875732421875,-0.14782938361167908,0.2968805134296417,-0.47342056035995483
1733461401413833500,8.58183349609375,-0.21013765037059784,0.2528982162475586,-0.45692721009254456
1733461401423864800,8.59186474609375,-0.24007004499435425,0.25473082065582275,-0.4147774875164032
1733461401433852700,8.601852783203125,-0.25045475363731384,0.3445279896259308,-0.36224308609962463
1733461401443853300,8.611853271484375,-0.2583959996700287,0.4764748811721802,-0.3017674386501312
1733461401453841700,8.621841552734375,-0.2993239760398865,0.5821545720100403,-0.2064724564552307
1733461401463872800,8.631872802734375,-0.3378084897994995,0.5791002511978149,-0.15515977144241333
1733461401473831000,8.641830810546875,-0.39217549562454224,0.4758640229701996,-0.11667526513338089
1733461401483862000,8.651862060546875,-0.45631635189056396,0.2968805134296417,-0.0910189226269722
1733461401493850400,8.661850341796875,-0.49357911944389343,0.12034045159816742,-0.08368854224681854
1733461401503851000,8.67185107421875,-0.5051855444908142,-0.0354301854968071,-0.08979719132184982
1733461401513839400,8.68183935546875,-0.4862487316131592,-0.15271630883216858,-0.0959058403968811
1733461401523870500,8.691870361328125,-0.38240164518356323,-0.23396138846874237,-0.10018189996480942
1733461401533828400,8.701828369140625,-0.2919935882091522,-0.2174680233001709,-0.09651670604944229
1733461401543859200,8.711859130859375,-0.1966986060142517,-0.15027284622192383,-0.08429940044879913
1733461401553847800,8.721847900390625,-0.10262536257505417,-0.03848451003432274,-0.06963863968849182
1733461401563848700,8.7318486328125,-0.012217304669320583,0.09346238523721695,-0.045204028487205505
1733461401573836800,8.7418369140625,0.06169738993048668,0.17348572611808777,-0.00855211354792118
1733461401583868200,8.7518681640625,0.09896016865968704,0.17470745742321014,0.029932396486401558
1733461401593856500,8.7618564453125,0.10934487730264664,0.13744467496871948,0.06352998316287994
1733461401603856600,8.771856689453125,0.07147123664617538,0.004886921960860491,0.1062905490398407
1733461401613845500,8.781845458984375,0.039095375686883926,-0.10018189996480942,0.14049901068210602
1733461401623876400,8.79187646484375,0.015882495790719986,-0.1569923609495163,0.18081611394882202
1733461401633834200,8.801834228515625,0.006719517521560192,-0.13316862285137177,0.2223549485206604
1733461401643866000,8.8118662109375,0.007941247895359993,-0.03176499158143997,0.26145032048225403
1733461401653854000,8.82185400390625,0.02015855349600315,0.11667526513338089,0.2987131178379059
1733461401663854800,8.831854736328125,0.045204028487205505,0.2834414839744568,0.3286454975605011
1733461401673843000,8.841843017578125,0.08735372871160507,0.46242499351501465,0.3597996234893799
1733461401683874600,8.85187451171875,0.1111774742603302,0.494189977645874,0.384845107793808
1733461401693832200,8.861832275390626,0.1319468915462494,0.4660901725292206,0.4300491213798523
1733461401703863600,8.871863525390625,0.13561208546161652,0.3549126982688904,0.5070181488990784
1733461401713851400,8.881851318359375,0.12767083942890167,0.20830504596233368,0.5827654600143433
1733461401723851800,8.891851806640625,0.11545353382825851,0.10201449692249298,0.6029239892959595
1733461401733840400,8.90184033203125,0.10995574295520782,0.07452555745840073,0.5363397002220154
1733461401743871500,8.91187158203125,0.1313360333442688,0.11789698898792267,0.3121521472930908
1733461401753829400,8.921829345703125,0.16982053220272064,0.17470745742321014,0.14538592100143433
1733461401763860000,8.93185986328125,0.22663100063800812,0.2480112910270691,-0.022602014243602753
1733461401773849000,8.94184912109375,0.2687807083129883,0.36590829491615295,-0.20525072515010834
1733461401783849000,8.951848876953125,0.2730567753314972,0.4960225820541382,-0.40622538328170776
1733461401793838300,8.96183837890625,0.2535090744495392,0.5351179838180542,-0.5974262356758118
1733461401803869700,8.97186962890625,0.20891591906547546,0.39767327904701233,-0.7257078886032104
1733461401813827300,8.981827392578126,0.14049901068210602,0.09957103431224823,-0.7214318513870239
1733461401823859000,8.99185888671875,0.05253441259264946,-0.4911356568336487,-0.44226643443107605
1733461401833846800,9.0018466796875,0.009773843921720982,-0.7764097452163696,-0.11789698898792267
1733461401843877000,9.011877197265624,-0.015882495790719986,-0.9101892113685608,0.23090706765651703
1733461401853835500,9.02183544921875,0.013439035043120384,-0.9364564418792725,0.5412266254425049
1733461401863866000,9.0318662109375,0.06963863968849182,-0.8326093554496765,0.7953465580940247
1733461401873855200,9.041855224609375,0.16065755486488342,-0.6200281977653503,0.9645562171936035
1733461401883857400,9.051857421875,0.30054569244384766,-0.3677408695220947,1.0488556623458862
1733461401893844200,9.06184423828125,0.5180137157440186,-0.10018189996480942,1.0348057746887207
1733461401903874600,9.07187451171875,0.6395758986473083,-0.08979719132184982,0.9199630618095398
1733461401913860000,9.081860107421875,0.7037167549133301,-0.13561208546161652,0.6823364496231079
1733461401923865000,9.091864990234376,0.685390830039978,-0.1215621829032898,0.2877175211906433
1733461401933853000,9.10185302734375,0.6090326309204102,-0.13805554807186127,-0.13316862285137177
1733461401943854300,9.111854248046875,0.513737678527832,-0.2168571650981903,-0.44837507605552673
1733461401953841700,9.121841552734375,0.41599923372268677,-0.2431243658065796,-0.6285803318023682
1733461401963873300,9.131873291015625,0.3029891550540924,-0.0659734457731247,-0.6615670323371887
1733461401973831000,9.141830810546875,0.27000242471694946,0.10567969083786011,-0.5516113042831421
1733461401983862500,9.151862548828126,0.252287358045578,0.2577851414680481,-0.37568211555480957
1733461401993850400,9.161850341796875,0.2431243658065796,0.3549126982688904,-0.17409659922122955
1733461402003851500,9.1718515625,0.22907446324825287,0.3683517575263977,0.02015855349600315
1733461402013839600,9.181839599609376,0.2070833146572113,0.31520646810531616,0.1618792861700058
1733461402023870500,9.191870361328125,0.17959438264369965,0.2480112910270691,0.22602014243602753
1733461402033828400,9.201828369140625,0.1618792861700058,0.16798794269561768,0.2278527319431305
1733461402043859500,9.211859375,0.15882496535778046,0.022602014243602753,0.18570303916931152
1733461402053847800,9.221847900390625,0.17043140530586243,-0.07757988572120667,0.14233160018920898
1733461402063848400,9.231848388671875,0.18325957655906677,-0.14049901068210602,0.08674286305904388
1733461402073837000,9.241837158203126,0.19914206862449646,-0.1411098688840866,0.02015855349600315
1733461402083868200,9.2518681640625,0.2217440903186798,-0.09834930300712585,-0.04581489413976669
1733461402093856500,9.2618564453125,0.24556782841682434,-0.02626720629632473,-0.09712757170200348
1733461402103857200,9.271857177734375,0.26450464129447937,0.06230825558304787,-0.11911872029304504
1733461402113844500,9.281844482421874,0.2767219543457031,0.22296582162380219,-0.1007927656173706
1733461402123876400,9.29187646484375,0.2687807083129883,0.3323107063770294,-0.07147123664617538
1733461402133834000,9.301833984375,0.23945917189121246,0.4294382631778717,-0.04153883829712868
1733461402143865000,9.311864990234374,0.2028072625398636,0.48685958981513977,-0.02382374368607998
1733461402153853700,9.321853759765625,0.1612684279680252,0.4911356568336487,-0.02382374368607998
1733461402163854000,9.33185400390625,0.11423180252313614,0.4386012554168701,-0.025656340643763542
1733461402173842700,9.3418427734375,0.07696902006864548,0.34025195240974426,-0.03176499158143997
1733461402183873800,9.351873779296875,0.04886921867728233,0.17287486791610718,-0.05742133408784866
1733461402193831700,9.361831787109375,0.09712757170200348,-0.44165557622909546,-0.07452555745840073
1733461402203862800,9.37186279296875,0.054367005825042725,-0.9419541954994202,-0.2638937830924988
1733461402213851400,9.381851318359375,0.004886921960860491,-0.43737950921058655,-0.7635815739631653
1733461402223851800,9.391851806640625,0.01160643994808197,-0.18509216606616974,-1.0409144163131714
1733461402233840400,9.40184033203125,-0.006719517521560192,-0.1368338167667389,-1.1020009517669678
1733461402243872000,9.4118720703125,-0.01038470957428217,0.09040805697441101,-1.1007791757583618
1733461402253829400,9.421829345703125,0.005497787147760391,0.39767327904701233,-1.0696250200271606
1733461402263861200,9.431861328125,-0.045204028487205505,0.7727445363998413,-1.0335839986801147
1733461402273849000,9.44184912109375,-0.10690141469240189,0.8943067193031311,-1.0219775438308716
1733461402283850000,9.45185009765625,-0.13377949595451355,0.9193521738052368,-1.0097602605819702
1733461402293838000,9.461838134765625,-0.2217440903186798,0.8723155856132507,-0.9773843884468079
1733461402303869700,9.47186962890625,-0.32498031854629517,0.7128797173500061,-0.8875871896743774
1733461402313827300,9.481827392578126,-0.3891211748123169,0.4862487316131592,-0.7165449261665344
1733461402323859000,9.49185888671875,-0.42088615894317627,0.23273965716362,-0.47769662737846375
1733461402333846800,9.5018466796875,-0.44776421785354614,-0.10262536257505417,-0.06780604273080826
1733461402343878700,9.511878662109375,-0.4453207552433014,-0.27000242471694946,0.17348572611808777
1733461402353835500,9.52183544921875,-0.4355469346046448,-0.45326200127601624,0.3836233615875244
1733461402363867400,9.531867431640626,-0.4147774875164032,-0.6499606370925903,0.5833762884140015
1733461402373855200,9.541855224609375,-0.3787364661693573,-0.7800748944282532,0.7910705208778381
1733461402383856400,9.5518564453125,-0.3084869384765625,-0.8002334833145142,1.0152580738067627
1733461402393844200,9.56184423828125,-0.26083946228027344,-0.7849618196487427,1.2565498352050781
1733461402403875800,9.571875732421875,-0.2974913716316223,-0.7391469478607178,1.5778648853302002
1733461402413833500,9.58183349609375,-0.33719760179519653,-0.6505714654922485,1.7006487846374512
1733461402423864800,9.59186474609375,-0.36163222789764404,-0.5277875661849976,1.7140878438949585
1733461402433853000,9.60185302734375,-0.35613444447517395,-0.34574973583221436,1.5546520948410034
1733461402443852800,9.611852783203124,-0.33658674359321594,-0.1160643994808197,1.1905763149261475
1733461402453841700,9.621841552734375,-0.29504790902137756,0.045204028487205505,0.7086036801338196
1733461402463872000,9.6318720703125,-0.24190263450145721,0.06230825558304787,0.18631389737129211
1733461402473831000,9.641830810546875,-0.20891591906547546,-0.025045474991202354,-0.3090978264808655
1733461402483861200,9.651861328125,-0.21930062770843506,-0.22602014243602753,-0.8283332586288452
1733461402493850400,9.661850341796875,-0.3078760802745819,-0.28527405858039856,-0.970054030418396
1733461402503851500,9.6718515625,-0.3891211748123169,-0.2223549485206604,-0.9779952764511108
1733461402513839400,9.68183935546875,-0.413555771112442,-0.06230825558304787,-0.8833111524581909
1733461402523871000,9.69187109375,-0.43615779280662537,0.10690141469240189,-0.7134906053543091
1733461402533828400,9.701828369140625,-0.44226643443107605,0.2070833146572113,-0.48258355259895325
1733461402543859000,9.71185888671875,-0.46181413531303406,0.2431243658065796,-0.21807889640331268
1733461402553847800,9.721847900390625,-0.5198463201522827,0.19914206862449646,0.11850785464048386
1733461402563848000,9.731847900390624,-0.5473352670669556,0.11484266817569733,0.24434609711170197
1733461402573836800,9.7418369140625,-0.5626068711280823,0.03726277872920036,0.2938261926174164
1733461402583867400,9.751867431640624,-0.5516113042831421,-0.012828170321881771,0.2736676335334778
1733461402593856500,9.7618564453125,-0.5265658497810364,-0.04886921867728233,0.2070833146572113
1733461402603857200,9.771857177734375,-0.4966334402561188,-0.08552113175392151,0.12034045159816742
1733461402613845500,9.781845458984375,-0.45631635189056396,-0.11178833991289139,0.025656340643763542
1733461402623876900,9.791876953125,-0.3689626157283783,-0.14416420459747314,-0.1111774742603302
1733461402633834200,9.801834228515625,-0.29565876722335815,-0.15821409225463867,-0.18081611394882202
1733461402643865900,9.811865966796875,-0.2223549485206604,-0.15760323405265808,-0.22602014243602753
1733461402653854000,9.82185400390625,-0.15332718193531036,-0.1313360333442688,-0.24495697021484375
1733461402663854300,9.831854248046875,-0.09040805697441101,-0.07513642311096191,-0.24068090319633484
1733461402673843000,9.841843017578125,-0.03176499158143997,0.005497787147760391,-0.2174680233001709
1733461402683874000,9.8518740234375,0.012828170321881771,0.08735372871160507,-0.18997909128665924
1733461402693832200,9.861832275390626,0.03237585723400116,0.16249015927314758,-0.16982053220272064
1733461402703863000,9.871863037109375,0.00855211354792118,0.20891591906547546,-0.15882496535778046
1733461402713851400,9.881851318359375,-0.024434609338641167,0.19364428520202637,-0.15760323405265808
1733461402723851800,9.891851806640625,-0.060475658625364304,0.1667662113904953,-0.15393804013729095
1733461402733840600,9.901840576171875,-0.1007927656173706,0.1368338167667389,-0.1466076523065567
1733461402743871500,9.91187158203125,-0.13805554807186127,0.08552113175392151,-0.1258382350206375
1733461402753829400,9.921829345703125,-0.1508837193250656,0.04948008432984352,-0.10567969083786011
1733461402763860700,9.93186083984375,-0.15454891324043274,0.060475658625364304,-0.10445795953273773
1733461402773849000,9.94184912109375,-0.09957103431224823,0.16982053220272064,-0.15943582355976105
1733461402783850200,9.951850341796876,-0.03298672288656235,0.25595253705978394,-0.21991148591041565
1733461402793838000,9.961838134765625,0.04337143152952194,0.33292156457901,-0.2883284091949463
1733461402803869700,9.97186962890625,0.10995574295520782,0.4141666293144226,-0.3585779070854187
1733461402813827300,9.981827392578126,0.1618792861700058,0.4990769028663635,-0.4092797040939331
1733461402823859000,9.99185888671875,0.18936823308467865,0.5577199459075928,-0.41233405470848083
1733461402833846800,10.0018466796875,0.19975294172763824,0.5839871764183044,-0.37079519033432007
1733461402843878400,10.01187841796875,0.24923302233219147,0.5827654600143433,-0.27488934993743896
1733461402853835500,10.02183544921875,0.28588494658470154,0.5736024379730225,-0.2119702398777008
1733461402863866400,10.031866455078125,0.303600013256073,0.5797111392021179,-0.17409659922122955
1733461402873855200,10.041855224609375,0.30115658044815063,0.6304129362106323,-0.2021963894367218
1733461402883855000,10.051855224609374,0.28038713335990906,0.675006091594696,-0.31031954288482666
1733461402893844200,10.06184423828125,0.252287358045578,0.6542366743087769,-0.46547931432724
1733461402903874600,10.07187451171875,0.2028072625398636,0.4746423065662384,-0.5949827432632446
1733461402913833500,10.08183349609375,0.14477506279945374,0.07391469180583954,-0.5992587804794312
1733461402923864800,10.09186474609375,0.03848451003432274,-0.7849618196487427,-0.2174680233001709
1733461402933853000,10.10185302734375,-0.012217304669320583,-1.2345587015151978,0.24678955972194672
1733461402943852500,10.1118525390625,-0.01710422709584236,-1.4666874408721924,0.7538077235221863
1733461402953842000,10.121842041015626,-0.00427605677396059,-1.5070046186447144,1.2302825450897217
1733461402963872300,10.131872314453124,0.04092797264456749,-1.3713924884796143,1.6255123615264893
1733461402973831000,10.141830810546875,0.13072516024112701,-1.0604621171951294,1.8863518238067627
1733461402983863300,10.15186328125,0.23335053026676178,-0.5772676467895508,1.9804251194000244
1733461402993850400,10.161850341796875,0.40683624148368835,0.1411098688840866,1.8179349899291992
1733461403003852500,10.1718525390625,0.5326744914054871,0.394618958234787,1.560760736465454
1733461403013839600,10.181839599609376,0.6450737118721008,0.4184426963329315,1.2498302459716797
1733461403023871000,10.19187109375,0.6890559792518616,0.27550023794174194,0.9065240025520325
1733461403033828400,10.201828369140625,0.6298020482063293,0.1270599663257599,0.4893030524253845
1733461403043860200,10.211860107421876,0.5302310585975647,-0.05619960278272629,0.0354301854968071
1733461403053847800,10.221847900390625,0.44287729263305664,-0.32986724376678467,-0.32498031854629517
1733461403063849200,10.23184912109375,0.35185837745666504,-0.5778785347938538,-0.6511823534965515
1733461403073836800,10.2418369140625,0.3078760802745819,-0.5558874011039734,-0.7183775305747986
1733461403083868400,10.251868408203125,0.26450464129447937,-0.46303585171699524,-0.6731734871864319
1733461403093856500,10.2618564453125,0.22357667982578278,-0.32070425152778625,-0.5473352670669556
1733461403103857700,10.271857666015626,0.17776179313659668,-0.13011430203914642,-0.3646865487098694
1733461403113844500,10.281844482421874,0.12950342893600464,0.05803219974040985,-0.16982053220272064
1733461403123876900,10.291876953125,0.08368854224681854,0.21013765037059784,0.00366519158706069
1733461403133834000,10.301833984375,0.04153883829712868,0.304210901260376,0.14477506279945374
1733461403143864800,10.31186474609375,0.010995574295520782,0.3390302062034607,0.2926044464111328
1733461403153853700,10.321853759765625,0.016493361443281174,0.2791654169559479,0.3536909818649292
1733461403163854000,10.33185400390625,0.039706241339445114,0.1466076523065567,0.3830125033855438
1733461403173842700,10.3418427734375,0.07696902006864548,-0.025045474991202354,0.36529740691185
1733461403183873800,10.351873779296875,0.11178833991289139,-0.17104226350784302,0.2938261926174164
1733461403193831700,10.361831787109375,0.1319468915462494,-0.2675589919090271,0.18081611394882202
1733461403203862800,10.37186279296875,0.13561208546161652,-0.3121521472930908,0.060475658625364304
1733461403213851600,10.3818515625,0.13072516024112701,-0.21074850857257843,-0.08857546001672745
1733461403223851800,10.391851806640625,0.13011430203914642,-0.09468411654233932,-0.12034045159816742
1733461403233840600,10.401840576171875,0.1264491081237793,0.006719517521560192,-0.09224065393209457
1733461403243871500,10.41187158203125,0.11301007121801376,0.08491026610136032,-0.01771509274840355
1733461403253829400,10.421829345703125,0.09346238523721695,0.14538592100143433,0.0757472887635231
1733461403263860700,10.43186083984375,0.06841690838336945,0.152105450630188,0.16493362188339233
1733461403273849000,10.44184912109375,0.030543262138962746,0.12461651116609573,0.2272418737411499
1733461403283849700,10.451849609375,-0.04886921867728233,0.08185594528913498,0.22357667982578278
1733461403293838000,10.461838134765625,-0.10567969083786011,0.08429940044879913,0.1368338167667389
1733461403303869200,10.471869140625,-0.14416420459747314,0.12217304855585098,0.009773843921720982
1733461403313827300,10.481827392578126,-0.15577064454555511,0.14538592100143433,-0.10690141469240189
1733461403323858200,10.491858154296875,-0.1508837193250656,0.13500121235847473,-0.2015855312347412
1733461403333846800,10.5018466796875,-0.14905111491680145,0.10445795953273773,-0.2791654169559479
1733461403343878400,10.51187841796875,-0.13011430203914642,0.12767083942890167,-0.33047810196876526
1733461403353835500,10.52183544921875,-0.12522737681865692,0.21074850857257843,-0.3188716471195221
1733461403363867400,10.531867431640626,-0.1459967941045761,0.4098905920982361,-0.19853121042251587
1733461403373855200,10.541855224609375,-0.15760323405265808,0.504574716091156,-0.06902777403593063
1733461403383856400,10.5518564453125,-0.1869247704744339,0.46242499351501465,0.059864792972803116
1733461403393844200,10.56184423828125,-0.21441370248794556,0.30604347586631775,0.13316862285137177
1733461403403876000,10.5718759765625,-0.24678955972194672,0.12278391420841217,0.12034045159816742
1733461403413833200,10.581833251953125,-0.28955012559890747,-0.018325956538319588,0.027488935738801956
1733461403423865000,10.591864990234376,-0.3390302062034607,-0.11239920556545258,-0.11239920556545258
1733461403433852700,10.601852783203125,-0.3683517575263977,-0.2278527319431305,-0.26511552929878235
1733461403443854000,10.61185400390625,-0.3597996234893799,-0.34636059403419495,-0.21013765037059784
1733461403453841700,10.621841552734375,-0.3488040566444397,-0.4789183437824249,-0.012828170321881771
1733461403463873500,10.63187353515625,-0.33475416898727417,-0.6090326309204102,0.2718350291252136
1733461403473831000,10.641830810546875,-0.3292563557624817,-0.7238753437995911,0.5729916095733643
1733461403483862500,10.651862548828126,-0.3323107063770294,-0.8112290501594543,0.8142833709716797
1733461403493850400,10.661850341796875,-0.3536909818649292,-0.8216137290000916,0.93095862865448
1733461403503851500,10.6718515625,-0.3982841372489929,-0.5326744914054871,0.8497135639190674
1733461403513839400,10.68183935546875,-0.3885102868080139,-0.19486601650714874,0.684779942035675
1733461403523871000,10.69187109375,-0.3604104816913605,0.1472185254096985,0.4813618063926697
1733461403533828400,10.701828369140625,-0.33108896017074585,0.4349360466003418,0.2828305959701538
1733461403543858700,10.711858642578125,-0.33719760179519653,0.6096435189247131,0.1313360333442688
1733461403553847800,10.721847900390625,-0.3903428912162781,0.6701191663742065,0.03481931984424591
1733461403563849000,10.731848876953125,-0.44654250144958496,0.6664539575576782,-0.03237585723400116
1733461403573836800,10.7418369140625,-0.5265658497810364,0.5900958180427551,-0.08674286305904388
1733461403583868700,10.75186865234375,-0.6591235995292664,0.4196644127368927,-0.12767083942890167
1733461403593856500,10.7618564453125,-0.6805039048194885,0.3604104816913605,-0.11728613078594208
1733461403603856400,10.7718564453125,-0.6664539575576782,0.30970868468284607,-0.07269296050071716
1733461403613845500,10.781845458984375,-0.6359107494354248,0.22846360504627228,-0.00855211354792118
1733461403623876000,10.7918759765625,-0.5968153476715088,0.14416420459747314,0.04948008432984352
1733461403633834200,10.801834228515625,-0.5510004758834839,0.0757472887635231,0.09834930300712585
1733461403643865000,10.811864990234374,-0.5009095072746277,0.033597588539123535,0.13988813757896423
1733461403653854000,10.82185400390625,-0.4398229718208313,-0.01771509274840355,0.16065755486488342
1733461403663854000,10.83185400390625,-0.4050036668777466,-0.03237585723400116,0.14233160018920898
1733461403673843000,10.841843017578125,-0.3701843321323395,-0.04764748737215996,0.11178833991289139
1733461403683874300,10.851874267578125,-0.34086281061172485,-0.06963863968849182,0.08307767659425735
1733461403693832200,10.861832275390626,-0.3072652220726013,-0.08307767659425735,0.06475171446800232
1733461403703863600,10.871863525390625,-0.2583959996700287,-0.07757988572120667,0.04459316283464432
1733461403713851600,10.8818515625,-0.20463985204696655,-0.039095375686883926,0.01771509274840355
1733461403723852500,10.8918525390625,-0.11056660860776901,0.0555887371301651,-0.02382374368607998
1733461403733840600,10.901840576171875,-0.05192354694008827,0.11789698898792267,-0.03420845419168472
1733461403743871700,10.911871826171875,0.00855211354792118,0.19547687470912933,-0.04153883829712868
1733461403753829400,10.921829345703125,0.06108652427792549,0.2474004179239273,-0.045204028487205505
1733461403763860700,10.93186083984375,0.08857546001672745,0.23335053026676178,-0.036651913076639175
1733461403773849000,10.94184912109375,0.1062905490398407,0.20097467303276062,-0.01160643994808197
1733461403783849700,10.951849609375,0.11911872029304504,0.182648703455925,0.02932153269648552
1733461403793838000,10.961838134765625,0.12400564551353455,0.19303341209888458,0.08185594528913498
1733461403803869200,10.971869140625,0.11667526513338089,0.26511552929878235,0.182648703455925
1733461403813827300,10.981827392578126,0.11728613078594208,0.3646865487098694,0.24617868661880493
1733461403823858200,10.991858154296875,0.13255776464939117,0.47219884395599365,0.2822197377681732
1733461403833846800,11.0018466796875,0.15393804013729095,0.49296826124191284,0.31459560990333557
1733461403843877600,11.011877685546875,0.16493362188339233,0.4251621961593628,0.34574973583221436
1733461403853835500,11.02183544921875,0.1661553531885147,0.304210901260376,0.3396410644054413
1733461403863866600,11.03186669921875,0.16432274878025055,0.16982053220272064,0.27488934993743896
1733461403873855200,11.041855224609375,0.1716531366109848,-0.0403171069920063,0.11056660860776901
1733461403883856000,11.05185595703125,0.15943582355976105,-0.21074850857257843,0.00855211354792118
1733461403893844200,11.06184423828125,0.13744467496871948,-0.3701843321323395,-0.07819075137376785
1733461403903875300,11.071875244140625,0.11789698898792267,-0.4758640229701996,-0.14905111491680145
1733461403913863700,11.08186376953125,0.13377949595451355,-0.5400048494338989,-0.17287486791610718
1733461403923864300,11.0918642578125,0.15577064454555511,-0.5229006409645081,-0.19486601650714874
1733461403933853000,11.10185302734375,0.18997909128665924,-0.4178318381309509,-0.2480112910270691
1733461403943853300,11.111853271484375,0.24007004499435425,-0.2626720666885376,-0.37751471996307373
1733461403953842000,11.121842041015626,0.25961771607398987,-0.17531833052635193,-0.5161811113357544
1733461403963873500,11.13187353515625,0.2767219543457031,-0.05009094998240471,-0.6817256212234497
1733461403973831000,11.141830810546875,0.29138273000717163,0.09224065393209457,-0.8234463334083557
1733461403983862300,11.1518623046875,0.29993483424186707,0.16798794269561768,-0.8509352803230286
1733461403993850600,11.1618505859375,0.27611109614372253,0.08857546001672745,-0.6841690540313721
1733461404003851500,11.1718515625,0.22602014243602753,-0.15454891324043274,-0.33597588539123535
1733461404013839400,11.18183935546875,0.1814269721508026,-0.4453207552433014,0.12339477986097336
1733461404023871000,11.19187109375,0.14477506279945374,-0.79840087890625,0.8100073337554932
1733461404033828400,11.201828369140625,0.09773843735456467,-0.960280179977417,1.1368201971054077
1733461404043858700,11.211858642578125,0.05619960278272629,-1.045190453529358,1.3054190874099731
1733461404053847800,11.221847900390625,0.036651913076639175,-1.0103710889816284,1.3237450122833252
1733461404063848000,11.231847900390624,0.01710422709584236,-0.827722430229187,1.2211196422576904
1733461404073837000,11.241837158203126,0.003054326167330146,-0.5583308339118958,1.056796908378601
1733461404083869400,11.251869384765625,0.009162978269159794,-0.2583959996700287,0.8607091307640076
1733461404093856500,11.2618564453125,0.05619960278272629,0.10873401165008545,0.5290092825889587
1733461404103858700,11.271858642578126,0.11362093687057495,0.22602014243602753,0.26022860407829285
1733461404113844500,11.281844482421874,0.1765400618314743,0.26450464129447937,-0.028099801391363144
1733461404123875300,11.291875244140625,0.18570303916931152,0.251676470041275,-0.3488040566444397
1733461404133834500,11.30183447265625,0.12400564551353455,0.1966986060142517,-0.6908885836601257
1733461404143865600,11.311865478515625,0.018936822190880775,0.14966198801994324,-0.9541715383529663
1733461404153853700,11.321853759765625,-0.10812314599752426,0.10018189996480942,-1.0867292881011963
1733461404163854600,11.3318544921875,-0.27611109614372253,0.10323622822761536,-1.0054842233657837
1733461404173842700,11.3418427734375,-0.33658674359321594,0.1569923609495163,-0.7971791625022888
1733461404183874000,11.3518740234375,-0.34758231043815613,0.20830504596233368,-0.513126790523529
1733461404193831700,11.361831787109375,-0.3225368559360504,0.23640485107898712,-0.22479841113090515
1733461404203863600,11.371863525390625,-0.3078760802745819,0.1918116807937622,-0.006719517521560192
1733461404213851400,11.381851318359375,-0.3188716471195221,0.02687807008624077,0.10873401165008545
1733461404223852000,11.39185205078125,-0.36713001132011414,-0.22052235901355743,0.15577064454555511
1733461404233840600,11.401840576171875,-0.44104471802711487,-0.46364670991897583,0.1514945775270462
1733461404243871000,11.41187109375,-0.5681046843528748,-0.7110471725463867,0.08796459436416626
1733461404253829600,11.42182958984375,-0.645684540271759,-0.7819074988365173,0.0555887371301651
1733461404263860000,11.43185986328125,-0.6969972252845764,-0.7672467231750488,0.05803219974040985
1733461404273849000,11.44184912109375,-0.7257078886032104,-0.6627888083457947,0.0959058403968811
1733461404283850800,11.451850830078126,-0.7367035150527954,-0.5076290369033813,0.16798794269561768
1733461404293838000,11.461838134765625,-0.7220427393913269,-0.2779437005519867,0.2632829248905182
1733461404303868700,11.47186865234375,-0.7141014933586121,-0.07147123664617538,0.38667771220207214
1733461404313827300,11.481827392578126,-0.7586946487426758,0.1417207419872284,0.4917465150356293
1733461404323858400,11.4918583984375,-0.8362745046615601,0.18020524084568024,0.5082398653030396
1733461404333846800,11.5018466796875,-0.9059131741523743,0.16737708449363708,0.4740314185619354
1733461404343878000,11.5118779296875,-0.9841039180755615,0.10506882518529892,0.4129449129104614
1733461404353835500,11.52183544921875,-1.0671815872192383,0.0354301854968071,0.323147714138031
1733461404363867400,11.531867431640626,-1.140485405921936,-0.018325956538319588,0.21135938167572021
1733461404373855200,11.541855224609375,-1.2333369255065918,-0.11178833991289139,0.09407325088977814
1733461404383856400,11.5518564453125,-1.3952162265777588,-0.2877175211906433,-0.039706241339445114
1733461404393844200,11.56184423828125,-1.4996742010116577,-0.3805690407752991,-0.06963863968849182
1733461404403876000,11.5718759765625,-1.5851953029632568,-0.43799036741256714,-0.060475658625364304
1733461404413833200,11.581833251953125,-1.6597208976745605,-0.46853363513946533,-0.0403171069920063
1733461404423865000,11.591864990234376,-1.7269160747528076,-0.45326200127601624,-0.03298672288656235
1733461404433853000,11.60185302734375,-1.7873916625976562,-0.3878994286060333,-0.05009094998240471
1733461404443854000,11.61185400390625,-1.8362609148025513,-0.2968805134296417,-0.09773843735456467
1733461404453841700,11.621841552734375,-1.8784105777740479,-0.1973094791173935,-0.1459967941045761
1733461404463873800,11.631873779296875,-1.9394971132278442,-0.1508837193250656,-0.2376265823841095
1733461404473830700,11.64183056640625,-1.9657644033432007,-0.1264491081237793,-0.31031954288482666
1733461404483862500,11.651862548828126,-1.9804251194000244,-0.09346238523721695,-0.3738495409488678
1733461404493850400,11.661850341796875,-1.9926424026489258,-0.03848451003432274,-0.4153883755207062
1733461404503851500,11.6718515625,-2.006692409515381,0.01771509274840355,-0.43127086758613586
1733461404513839600,11.681839599609376,-2.0140228271484375,0.04764748737215996,-0.4092797040939331
1733461404523871200,11.691871337890625,-2.018298864364624,0.0006108652451075613,-0.33475416898727417
1733461404533828400,11.701828369140625,-2.029905319213867,-0.2168571650981903,-0.1258382350206375
1733461404543860200,11.711860107421876,-2.034792184829712,-0.413555771112442,0.04642575979232788
1733461404553847800,11.721847900390625,-2.018298864364624,-0.5516113042831421,0.1973094791173935
1733461404563849200,11.73184912109375,-1.9785925149917603,-0.6035348773002625,0.2968805134296417
1733461404573836800,11.7418369140625,-1.9370536804199219,-0.5949827432632446,0.34758231043815613
1733461404583869000,11.751868896484375,-1.890017032623291,-0.5381723046302795,0.3433062732219696
1733461404593856500,11.7618564453125,-1.842369556427002,-0.4502076804637909,0.27977627515792847
1733461404603857700,11.771857666015626,-1.778228759765625,-0.3286454975605011,0.09957103431224823
1733461404613845500,11.781845458984375,-1.7452419996261597,-0.27550023794174194,-0.02382374368607998
1733461404623877400,11.79187744140625,-1.7232508659362793,-0.2840523421764374,-0.13561208546161652
1733461404633834200,11.801834228515625,-1.7079792022705078,-0.30970868468284607,-0.2125810980796814
1733461404643866400,11.811866455078125,-1.6994271278381348,-0.3433062732219696,-0.24190263450145721
1733461404653854000,11.82185400390625,-1.6847662925720215,-0.3695734739303589,-0.23335053026676178
1733461404663855400,11.83185546875,-1.7049249410629272,-0.4141666293144226,-0.2119702398777008
1733461404673843000,11.841843017578125,-1.7647897005081177,-0.46547931432724,-0.1973094791173935
1733461404683874800,11.851874755859376,-1.8515325784683228,-0.5271766781806946,-0.19792033731937408
1733461404693832200,11.861832275390626,-1.8936822414398193,-0.5442809462547302,-0.2064724564552307
1733461404703863800,11.87186376953125,-1.9175059795379639,-0.5448917746543884,-0.2168571650981903
1733461404713851400,11.881851318359375,-1.9382754564285278,-0.5424483418464661,-0.2272418737411499
1733461404723851500,11.8918515625,-1.9639317989349365,-0.5412266254425049,-0.24007004499435425
1733461404733840600,11.901840576171875,-2.0030272006988525,-0.5375614166259766,-0.25473082065582275
1733461404743871000,11.91187109375,-2.0482311248779297,-0.5418374538421631,-0.26145032048225403
1733461404753829400,11.921829345703125,-2.10809588432312,-0.5516113042831421,-0.252287358045578
1733461404763861200,11.931861328125,-2.140471935272217,-0.5766568183898926,-0.22418753802776337
1733461404773849000,11.94184912109375,-2.163684606552124,-0.6139195561408997,-0.18448130786418915
1733461404783850200,11.951850341796876,-2.1624629497528076,-0.6139195561408997,-0.15515977144241333
1733461404793838000,11.961838134765625,-2.1093177795410156,-0.5583308339118958,-0.15027284622192383
1733461404803870000,11.971869873046876,-2.0323486328125,-0.485027015209198,-0.15821409225463867
1733461404813827300,11.981827392578126,-1.9492709636688232,-0.42760565876960754,-0.1716531366109848
1733461404823859000,11.99185888671875,-1.8319848775863647,-0.3396410644054413,-0.20525072515010834
1733461404833846800,12.0018466796875,-1.7654005289077759,-0.26450464129447937,-0.2321287989616394
1733461404843878700,12.011878662109375,-1.7055357694625854,-0.19608774781227112,-0.24984388053417206
1733461404853835500,12.02183544921875,-1.6560556888580322,-0.13439035415649414,-0.2669481039047241
1733461404863867600,12.03186767578125,-1.6175711154937744,-0.11178833991289139,-0.2681698501110077
1733461404873855200,12.041855224609375,-1.598023533821106,-0.11423180252313614,-0.24556782841682434
1733461404883856600,12.051856689453125,-1.5937473773956299,-0.12339477986097336,-0.2028072625398636
1733461404893844200,12.06184423828125,-1.5876387357711792,-0.1368338167667389,-0.13561208546161652
1733461404903876000,12.0718759765625,-1.5796974897384644,-0.15821409225463867,0.006719517521560192
1733461404913833500,12.08183349609375,-1.5839735269546509,-0.182648703455925,0.11056660860776901
1733461404923864300,12.0918642578125,-1.6047430038452148,-0.24190263450145721,0.2119702398777008
1733461404933853000,12.10185302734375,-1.6224581003189087,-0.2974913716316223,0.3017674386501312
1733461404943853600,12.111853515625,-1.6389514207839966,-0.3500257730484009,0.36224308609962463
1733461404953842000,12.121842041015626,-1.6468926668167114,-0.3878994286060333,0.39767327904701233
1733461404963872800,12.131872802734375,-1.6316211223602295,-0.3744603991508484,0.4080579876899719
1733461404973831000,12.141830810546875,-1.5864170789718628,-0.294437050819397,0.423329621553421
1733461404983862000,12.151862060546875,-1.5454890727996826,-0.2168571650981903,0.4386012554168701
1733461404993850400,12.161850341796875,-1.4892895221710205,-0.10445795953273773,0.4404338300228119
1733461405003851300,12.171851318359375,-1.4343116283416748,0,0.4178318381309509
1733461405013839400,12.18183935546875,-1.3903292417526245,0.06291911751031876,0.37201693654060364
1733461405023870700,12.19187060546875,-1.361007809638977,0.10384709388017654,0.3066543638706207
1733461405033828600,12.20182861328125,-1.341460108757019,0.1258382350206375,0.2370157092809677
1733461405043859700,12.211859619140625,-1.3213015794754028,0.11911872029304504,0.1459967941045761
1733461405053847800,12.221847900390625,-1.303586483001709,0.09224065393209457,0.09529497474431992
1733461405063848700,12.2318486328125,-1.292590856552124,0.09224065393209457,0.04214970022439957
1733461405073837000,12.241837158203126,-1.2870930433273315,0.11972958594560623,-0.015882495790719986
1733461405083868200,12.2518681640625,-1.2822061777114868,0.17043140530586243,-0.07635815441608429
1733461405093856500,12.2618564453125,-1.2693779468536377,0.22052235901355743,-0.12400564551353455
1733461405103857400,12.271857421875,-1.238223910331726,0.2577851414680481,-0.1612684279680252
1733461405113844500,12.281844482421874,-1.2101240158081055,0.3029891550540924,-0.19608774781227112
1733461405123876600,12.291876708984375,-1.1887437105178833,0.3396410644054413,-0.23029619455337524
1733461405133834000,12.301833984375,-1.1722503900527954,0.32559117674827576,-0.22663100063800812
1733461405143865300,12.311865234375,-1.149037480354309,0.2968805134296417,-0.20097467303276062
1733461405153853400,12.321853515625,-1.1191051006317139,0.252287358045578,-0.15454891324043274
1733461405163853600,12.331853515625,-1.0714576244354248,0.19425514340400696,-0.09285151958465576
1733461405173842700,12.3418427734375,-0.9181304574012756,0.1362229436635971,-0.024434609338641167
1733461405183873000,12.351873046875,-0.8210029006004333,0.192422553896904,0.05742133408784866
1733461405193831700,12.361831787109375,-0.8362745046615601,0.21135938167572021,0.16920967400074005
1733461405203862300,12.3718623046875,-0.7776314616203308,0.12400564551353455,0.23273965716362
1733461405213851600,12.3818515625,-0.7110471725463867,0.003054326167330146,0.2785545587539673
1733461405223851500,12.3918515625,-0.6591235995292664,-0.1319468915462494,0.2919935882091522
1733461405233840600,12.401840576171875,-0.6041457056999207,-0.2565633952617645,0.25045475363731384
1733461405243871000,12.41187109375,-0.5607742667198181,-0.34636059403419495,0.1514945775270462
1733461405253829400,12.421829345703125,-0.5345070958137512,-0.34758231043815613,0.0024434609804302454
1733461405263860700,12.43186083984375,-0.5186246037483215,-0.251676470041275,-0.26022860407829285
1733461405273849000,12.44184912109375,-0.49785518646240234,-0.1472185254096985,-0.4196644127368927
1733461405283850200,12.451850341796876,-0.46303585171699524,-0.05009094998240471,-0.5283984541893005
1733461405293838300,12.46183837890625,-0.4251621961593628,0,-0.5479460954666138
