time,seconds_elapsed,z,y,x
1733461393063956200,0.231956298828125,-0.07208210229873657,-0.15271630883216858,0.0659734457731247
1733461393073913300,0.241913330078125,-0.06780604273080826,-0.14966198801994324,0.13744467496871948
1733461393083944200,0.251944091796875,-0.054367005825042725,-0.07880161702632904,0.182648703455925
1733461393093933000,0.26193310546875,-0.029932396486401558,0.024434609338641167,0.1973094791173935
1733461393103933400,0.271933349609375,0.039706241339445114,0.2076941877603531,0.16982053220272064
1733461393113920000,0.281919921875,0.02932153269648552,0.2938261926174164,0.1215621829032898
1733461393123951900,0.291951904296875,0.021380282938480377,0.2816088795661926,0.054367005825042725
1733461393133910000,0.301909912109375,0.004886921960860491,0.2119702398777008,-0.01710422709584236
1733461393143941400,0.31194140625,-0.03237585723400116,0.10934487730264664,-0.08429940044879913
1733461393153929500,0.321929443359375,-0.07269296050071716,0.001832595793530345,-0.14049901068210602
1733461393163930600,0.3319306640625,-0.10506882518529892,-0.09773843735456467,-0.17348572611808777
1733461393173918500,0.34191845703125,-0.13500121235847473,-0.2480112910270691,-0.17043140530586243
1733461393183949300,0.35194921875,-0.13805554807186127,-0.33292156457901,-0.1466076523065567
1733461393193907500,0.361907470703125,-0.13377949595451355,-0.3787364661693573,-0.12767083942890167
1733461393203938300,0.371938232421875,-0.12828169763088226,-0.38240164518356323,-0.13439035415649414
1733461393213928000,0.381927978515625,-0.1264491081237793,-0.34758231043815613,-0.15760323405265808
1733461393223928300,0.39192822265625,-0.12828169763088226,-0.2779437005519867,-0.19303341209888458
1733461393233917000,0.4019169921875,-0.12400564551353455,-0.20525072515010834,-0.22113321721553802
1733461393243947800,0.41194775390625,-0.12278391420841217,-0.1618792861700058,-0.22540926933288574
1733461393253905700,0.42190576171875,-0.11850785464048386,-0.15515977144241333,-0.2076941877603531
1733461393263937500,0.4319375,-0.10934487730264664,-0.13927727937698364,-0.18631389737129211
1733461393273925400,0.44192529296875,-0.1014036312699318,-0.1270599663257599,-0.16249015927314758
1733461393283926500,0.451926513671875,-0.09407325088977814,-0.11911872029304504,-0.13255776464939117
1733461393293914400,0.461914306640625,-0.07696902006864548,-0.10995574295520782,-0.10934487730264664
1733461393303946200,0.4719462890625,-0.06658431142568588,-0.09285151958465576,-0.09162978827953339
1733461393313903600,0.481903564453125,-0.06475171446800232,-0.08185594528913498,-0.08002334833145142
1733461393323935200,0.491935302734375,-0.07147123664617538,-0.08002334833145142,-0.0659734457731247
1733461393333923000,0.501923095703125,-0.06475171446800232,-0.059864792972803116,-0.06108652427792549
1733461393343954700,0.51195458984375,-0.05619960278272629,0.00366519158706069,-0.05314527451992035
1733461393353912000,0.521912109375,-0.045204028487205505,0.054367005825042725,-0.04459316283464432
1733461393363943400,0.531943359375,-0.04214970022439957,0.07208210229873657,-0.022602014243602753
1733461393373931500,0.541931640625,-0.036651913076639175,0.060475658625364304,0.0024434609804302454
1733461393383932400,0.551932373046875,-0.031154127791523933,0.030543262138962746,0.02015855349600315
1733461393393920500,0.56192041015625,-0.039095375686883926,-0.015882495790719986,0.0354301854968071
1733461393403952000,0.5719521484375,-0.03726277872920036,-0.036041051149368286,0.030543262138962746
1733461393413909800,0.58190966796875,-0.0354301854968071,-0.04459316283464432,0.021380282938480377
1733461393423941400,0.59194140625,-0.0354301854968071,-0.06108652427792549,0.015882495790719986
1733461393433929500,0.601929443359375,-0.03298672288656235,-0.07757988572120667,0.014049900695681572
1733461393443930400,0.611930419921875,-0.02626720629632473,-0.07330382615327835,0.00733038317412138
1733461393453918000,0.62191796875,-0.009773843921720982,-0.07024950534105301,-0.0012217304902151227
1733461393463949300,0.63194921875,0.013439035043120384,-0.0861319974064827,-0.016493361443281174
1733461393473907200,0.6419072265625,0.014049900695681572,-0.09224065393209457,-0.021991148591041565
1733461393483938800,0.651938720703125,0.019547687843441963,-0.08368854224681854,-0.021380282938480377
1733461393493926700,0.6619267578125,0.021380282938480377,-0.07147123664617538,-0.012217304669320583
1733461393503927800,0.671927734375,0.02076941914856434,-0.05925392732024193,0.006719517521560192
1733461393513916000,0.681916015625,0.02382374368607998,-0.05497787147760391,0.025656340643763542
1733461393523947500,0.691947509765625,0.025656340643763542,-0.06230825558304787,0.039706241339445114
1733461393533904600,0.701904541015625,0.021991148591041565,-0.07452555745840073,0.04214970022439957
1733461393543936500,0.7119365234375,0.009773843921720982,-0.08124507963657379,0.019547687843441963
1733461393553924000,0.721924072265625,0.0012217304902151227,-0.08674286305904388,-0.005497787147760391
1733461393563925200,0.73192529296875,-0.004886921960860491,-0.07330382615327835,-0.025045474991202354
1733461393573913300,0.741913330078125,-0.0024434609804302454,-0.048258353024721146,-0.03481931984424591
1733461393583944700,0.75194482421875,0.00427605677396059,-0.029932396486401558,-0.027488935738801956
1733461393593932800,0.761932861328125,0.012217304669320583,-0.02015855349600315,-0.0024434609804302454
1733461393603933700,0.77193359375,0.019547687843441963,-0.024434609338641167,0.03237585723400116
1733461393613921800,0.781921875,0.021991148591041565,-0.022602014243602753,0.06719517707824707
1733461393623953400,0.791953369140625,0.021991148591041565,-0.00733038317412138,0.07269296050071716
1733461393633910800,0.801910888671875,0.02015855349600315,-0.003054326167330146,0.06475171446800232
1733461393643942400,0.8119423828125,0.012828170321881771,-0.021380282938480377,0.0507018156349659
1733461393653930200,0.82193017578125,0.001832595793530345,-0.0507018156349659,0.028099801391363144
1733461393663931400,0.831931396484375,-0.006719517521560192,-0.06658431142568588,0
1733461393673919200,0.841919189453125,-0.0006108652451075613,-0.06414084881544113,-0.02932153269648552
1733461393683950800,0.851950927734375,0.013439035043120384,-0.06902777403593063,-0.06108652427792549
1733461393693908500,0.861908447265625,0.01160643994808197,-0.0806342139840126,-0.06719517707824707
1733461393703940000,0.871940185546875,0.0006108652451075613,-0.09712757170200348,-0.06291911751031876
1733461393713928000,0.881927978515625,-0.015882495790719986,-0.11850785464048386,-0.05803219974040985
1733461393723929000,0.89192919921875,-0.03420845419168472,-0.13439035415649414,-0.04948008432984352
1733461393733917000,0.9019169921875,-0.0659734457731247,-0.13866640627384186,-0.0403171069920063
1733461393743948500,0.911948486328125,-0.10751228034496307,-0.14416420459747314,-0.021991148591041565
1733461393753906000,0.921906005859375,-0.14844025671482086,-0.14477506279945374,-0.009162978269159794
1733461393763937000,0.93193701171875,-0.2028072625398636,-0.1417207419872284,-0.005497787147760391
1733461393773925400,0.94192529296875,-0.22052235901355743,-0.152105450630188,-0.02626720629632473
1733461393783926300,0.95192626953125,-0.21991148591041565,-0.16737708449363708,-0.06414084881544113
1733461393793914600,0.96191455078125,-0.2125810980796814,-0.192422553896904,-0.12278391420841217
1733461393803945700,0.97194580078125,-0.18814650177955627,-0.19914206862449646,-0.1966986060142517
1733461393813903600,0.981903564453125,-0.14049901068210602,-0.17043140530586243,-0.27488934993743896
1733461393823935000,0.99193505859375,-0.0910189226269722,-0.09224065393209457,-0.34208452701568604
1733461393833923000,1.001923095703125,-0.06352998316287994,0.06536258012056351,-0.3878994286060333
1733461393843954700,1.01195458984375,-0.08185594528913498,0.152105450630188,-0.3787364661693573
1733461393853912000,1.021912109375,-0.11911872029304504,0.21868975460529327,-0.35735616087913513
1733461393863943000,1.03194287109375,-0.13377949595451355,0.2834414839744568,-0.33292156457901
1733461393873931500,1.041931640625,-0.12767083942890167,0.32620203495025635,-0.30482175946235657
1733461393883932200,1.05193212890625,-0.12400564551353455,0.3084869384765625,-0.2675589919090271
1733461393893920500,1.06192041015625,-0.12461651116609573,0.24007004499435425,-0.2376265823841095
1733461393903952000,1.071951904296875,-0.12828169763088226,0.09529497474431992,-0.2223549485206604
1733461393913940000,1.08193994140625,-0.12461651116609573,0.030543262138962746,-0.2125810980796814
1733461393923940900,1.09194091796875,-0.10812314599752426,-0.018325956538319588,-0.18387043476104736
1733461393933929200,1.10192919921875,-0.0861319974064827,-0.0659734457731247,-0.13255776464939117
1733461393943929900,1.111929931640625,-0.06475171446800232,-0.07941248267889023,-0.05314527451992035
1733461393953918500,1.12191845703125,-0.04214970022439957,-0.08124507963657379,0.04337143152952194
1733461393963949000,1.131948974609375,-0.022602014243602753,-0.06963863968849182,0.1508837193250656
1733461393973907200,1.1419072265625,-0.0006108652451075613,-0.07941248267889023,0.25045475363731384
1733461393983938300,1.151938232421875,0.010995574295520782,-0.1569923609495163,0.3604104816913605
1733461393993927000,1.161927001953125,0.006108652334660292,-0.21991148591041565,0.394618958234787
1733461394003927300,1.17192724609375,0.0012217304902151227,-0.26511552929878235,0.3988949954509735
1733461394013916000,1.181916015625,-0.009162978269159794,-0.27488934993743896,0.38179078698158264
1733461394023947000,1.191947021484375,-0.012828170321881771,-0.24678955972194672,0.3500257730484009
1733461394033905000,1.20190478515625,0.02015855349600315,-0.19364428520202637,0.31154128909111023
1733461394043936000,1.21193603515625,0.022602014243602753,-0.1459967941045761,0.2742784917354584
1733461394053924400,1.22192431640625,0.006719517521560192,-0.10445795953273773,0.2119702398777008
1733461394063925000,1.231925048828125,-0.004886921960860491,-0.05253441259264946,0.1612684279680252
1733461394073913300,1.241913330078125,-0.02871066704392433,0.02626720629632473,0.10506882518529892
1733461394083944400,1.2519443359375,-0.06108652427792549,0.09651670604944229,0.0507018156349659
1733461394093933000,1.26193310546875,-0.10445795953273773,0.13377949595451355,0.009773843921720982
1733461394103933400,1.271933349609375,-0.15271630883216858,0.13561208546161652,-0.022602014243602753
1733461394113920000,1.281919921875,-0.19853121042251587,0.1215621829032898,-0.04337143152952194
1733461394123952000,1.2919521484375,-0.24190263450145721,0.09285151958465576,-0.06352998316287994
1733461394133910000,1.301909912109375,-0.24678955972194672,0.08735372871160507,-0.07452555745840073
1733461394143941000,1.311941162109375,-0.23579397797584534,0.08552113175392151,-0.09162978827953339
1733461394153929500,1.321929443359375,-0.22357667982578278,0.09162978827953339,-0.11423180252313614
1733461394163930400,1.331930419921875,-0.20952677726745605,0.09896016865968704,-0.13072516024112701
1733461394173918500,1.34191845703125,-0.19975294172763824,0.10384709388017654,-0.1362229436635971
1733461394183949800,1.35194970703125,-0.18814650177955627,0.1062905490398407,-0.12767083942890167
1733461394193907500,1.361907470703125,-0.1722639948129654,0.11301007121801376,-0.10506882518529892
1733461394203938600,1.3719384765625,-0.16249015927314758,0.12950342893600464,-0.05925392732024193
1733461394213928000,1.381927978515625,-0.15882496535778046,0.15760323405265808,-0.019547687843441963
1733461394223928600,1.391928466796875,-0.152105450630188,0.18387043476104736,0.02932153269648552
1733461394233917000,1.4019169921875,-0.13927727937698364,0.19425514340400696,0.08246681094169617
1733461394243948000,1.411947998046875,-0.12339477986097336,0.17898350954055786,0.13988813757896423
1733461394253905700,1.42190576171875,-0.12217304855585098,0.12950342893600464,0.19975294172763824
1733461394263937000,1.43193701171875,-0.12889257073402405,0.06414084881544113,0.2528982162475586
1733461394273925400,1.44192529296875,-0.1368338167667389,0.02015855349600315,0.2877175211906433
1733461394283926000,1.451926025390625,-0.1362229436635971,0.02687807008624077,0.2834414839744568
1733461394293914400,1.461914306640625,-0.12339477986097336,0.05253441259264946,0.2590068578720093
1733461394303945700,1.47194580078125,-0.10018189996480942,0.0806342139840126,0.21624629199504852
1733461394313903600,1.481903564453125,-0.07880161702632904,0.10995574295520782,0.16004669666290283
1733461394323934700,1.491934814453125,-0.0659734457731247,0.13866640627384186,0.10934487730264664
1733461394333923000,1.501923095703125,-0.05192354694008827,0.16004669666290283,0.07024950534105301
1733461394343954000,1.511953857421875,-0.02687807008624077,0.18081611394882202,0.04459316283464432
1733461394353912000,1.521912109375,-0.007941247895359993,0.1814269721508026,0.04703662544488907
1733461394363943200,1.531943115234375,0.01160643994808197,0.17287486791610718,0.06230825558304787
1733461394373931500,1.541931640625,0.02015855349600315,0.16249015927314758,0.0806342139840126
1733461394383932200,1.55193212890625,0.015882495790719986,0.1514945775270462,0.09834930300712585
1733461394393920800,1.561920654296875,0.00733038317412138,0.12889257073402405,0.10262536257505417
1733461394403951900,1.571951904296875,-0.001832595793530345,0.09040805697441101,0.09224065393209457
1733461394413909800,1.58190966796875,0.012828170321881771,0.06780604273080826,0.07024950534105301
1733461394423940900,1.59194091796875,0.056810468435287476,0.04642575979232788,0.01771509274840355
1733461394433929200,1.60192919921875,0.05192354694008827,0.012217304669320583,-0.02382374368607998
1733461394443929900,1.611929931640625,0.039706241339445114,-0.031154127791523933,-0.07452555745840073
1733461394453918000,1.62191796875,0.015882495790719986,-0.06230825558304787,-0.13316862285137177
1733461394463948800,1.63194873046875,-0.015882495790719986,-0.06780604273080826,-0.18509216606616974
1733461394473907200,1.6419072265625,-0.05375614017248154,-0.059864792972803116,-0.21991148591041565
1733461394483938800,1.651938720703125,-0.07757988572120667,-0.04337143152952194,-0.2370157092809677
1733461394493926700,1.6619267578125,-0.059864792972803116,-0.0403171069920063,-0.23518311977386475
1733461394503927600,1.671927490234375,-0.009162978269159794,-0.0708603709936142,-0.2076941877603531
1733461394513916000,1.681916015625,0.04642575979232788,-0.10506882518529892,-0.1362229436635971
1733461394523947300,1.691947265625,0.07269296050071716,-0.22418753802776337,-0.006719517521560192
1733461394533905200,1.7019052734375,0.03726277872920036,-0.4801400899887085,0.16554448008537292
1733461394543936500,1.7119365234375,-0.04581489413976669,-0.7568620443344116,0.3488040566444397
1733461394553924000,1.721924072265625,-0.09468411654233932,-0.8906415104866028,0.5155702829360962
1733461394563924200,1.73192431640625,0.04459316283464432,-0.7819074988365173,0.7159340381622314
1733461394573913300,1.741913330078125,0.17409659922122955,-0.636521577835083,0.8319984674453735
1733461394583943700,1.751943603515625,0.28588494658470154,-0.5461135506629944,0.9010262489318848
1733461394593932800,1.761932861328125,0.3549126982688904,-0.5485569834709167,0.9046914577484131
1733461394603932400,1.771932373046875,0.3891211748123169,-0.5754350423812866,0.8527678847312927
1733461394613921800,1.781921875,0.3982841372489929,-0.5870414972305298,0.7733554244041443
1733461394623952100,1.7919521484375,0.39156460762023926,-0.5791002511978149,0.6908885836601257
1733461394633910800,1.801910888671875,0.3793473243713379,-0.5516113042831421,0.6194173693656921
1733461394643941000,1.811941162109375,0.3481931984424591,-0.45142942667007446,0.5167919993400574
1733461394653930200,1.82193017578125,0.30543261766433716,-0.35185837745666504,0.43615779280662537
1733461394663931000,1.831930908203125,0.2321287989616394,-0.2321287989616394,0.33658674359321594
1733461394673919200,1.841919189453125,0.14905111491680145,-0.08124507963657379,0.21135938167572021
1733461394683950300,1.851950439453125,0.07696902006864548,0.1007927656173706,0.07819075137376785
1733461394693908500,1.861908447265625,0.030543262138962746,0.29565876722335815,-0.04948008432984352
1733461394703939600,1.871939697265625,0.009162978269159794,0.413555771112442,-0.1411098688840866
1733461394713928000,1.881927978515625,-0.005497787147760391,0.37079519033432007,-0.20036379992961884
1733461394723928600,1.891928466796875,-0.009162978269159794,0.2590068578720093,-0.19975294172763824
1733461394733917000,1.9019169921875,0.02321287989616394,0.1667662113904953,-0.17898350954055786
1733461394743947800,1.91194775390625,0.03787364438176155,0.09773843735456467,-0.1508837193250656
1733461394753905700,1.92190576171875,0.036041051149368286,0.07330382615327835,-0.12095131725072861
1733461394763936800,1.931936767578125,0.02015855349600315,0.04764748737215996,-0.08246681094169617
1733461394773925400,1.94192529296875,-0.00855211354792118,0.009773843921720982,-0.05009094998240471
1733461394783926000,1.951926025390625,-0.012828170321881771,0.010995574295520782,-0.04581489413976669
1733461394793914400,1.961914306640625,0.024434609338641167,0.005497787147760391,-0.06414084881544113
1733461394803945700,1.97194580078125,0.0659734457731247,-0.025045474991202354,-0.07819075137376785
1733461394813903600,1.981903564453125,0.10323622822761536,-0.021380282938480377,-0.08491026610136032
1733461394823935000,1.99193505859375,0.13255776464939117,-0.05192354694008827,-0.07147123664617538
1733461394833923000,2.001923095703125,0.13500121235847473,-0.1319468915462494,-0.05314527451992035
1733461394843954200,2.0119541015625,0.12339477986097336,-0.18631389737129211,-0.04703662544488907
1733461394853911800,2.021911865234375,0.11911872029304504,-0.1765400618314743,-0.05375614017248154
1733461394863943200,2.031943115234375,0.12095131725072861,-0.12461651116609573,-0.06352998316287994
1733461394873931500,2.041931640625,0.11789698898792267,-0.07147123664617538,-0.06902777403593063
1733461394883932200,2.05193212890625,0.11239920556545258,0.003054326167330146,-0.07208210229873657
1733461394893920500,2.06192041015625,0.11423180252313614,0.09285151958465576,-0.06780604273080826
1733461394903952000,2.071951904296875,0.11972958594560623,0.17470745742321014,-0.0507018156349659
1733461394913909800,2.08190966796875,0.11911872029304504,0.2278527319431305,-0.02015855349600315
1733461394923940900,2.09194091796875,0.09834930300712585,0.24190263450145721,0.024434609338641167
1733461394933929200,2.10192919921875,0.05925392732024193,0.23396138846874237,0.10812314599752426
1733461394943929900,2.111929931640625,0.04642575979232788,0.19975294172763824,0.16982053220272064
1733461394953918200,2.121918212890625,0.028099801391363144,0.13011430203914642,0.2223549485206604
1733461394963949300,2.13194921875,0.019547687843441963,0.0959058403968811,0.24434609711170197
1733461394973907200,2.1419072265625,0.04214970022439957,0.13011430203914642,0.22113321721553802
1733461394983938300,2.151938232421875,0.08185594528913498,0.20952677726745605,0.14905111491680145
1733461394993927000,2.161927001953125,0.1160643994808197,0.26633724570274353,0.054367005825042725
1733461395003927300,2.17192724609375,0.13439035415649414,0.2785545587539673,-0.11423180252313614
1733461395013916000,2.181916015625,0.1368338167667389,0.3127630054950714,-0.24190263450145721
1733461395023946800,2.19194677734375,0.13011430203914642,0.39767327904701233,-0.35613444447517395
1733461395033904600,2.201904541015625,0.10812314599752426,0.4990769028663635,-0.4202753007411957
1733461395043936000,2.21193603515625,0.08491026610136032,0.5687155723571777,-0.43249258399009705
1733461395053924400,2.22192431640625,0.04459316283464432,0.5510004758834839,-0.3952298164367676
1733461395063924700,2.2319248046875,-0.00855211354792118,0.41172316670417786,-0.31642818450927734
1733461395073913300,2.241913330078125,-0.07635815441608429,0.16004669666290283,-0.2064724564552307
1733461395083944400,2.2519443359375,-0.1765400618314743,-0.2791654169559479,-0.024434609338641167
1733461395093932800,2.261932861328125,-0.23945917189121246,-0.47830748558044434,0.07269296050071716
1733461395103933400,2.271933349609375,-0.2932153046131134,-0.5155702829360962,0.12217304855585098
1733461395113920000,2.281919921875,-0.3341432809829712,-0.4538728892803192,0.12278391420841217
1733461395123952400,2.291952392578125,-0.36163222789764404,-0.3549126982688904,0.0910189226269722
1733461395133910000,2.301909912109375,-0.36529740691185,-0.2773328125476837,0.05864306539297104
1733461395143941600,2.311941650390625,-0.3445279896259308,-0.2620611786842346,0.08429940044879913
1733461395153929500,2.321929443359375,-0.304210901260376,-0.3897320330142975,0.28038713335990906
1733461395163930600,2.3319306640625,-0.3445279896259308,-0.5448917746543884,0.485027015209198
1733461395173918500,2.34191845703125,-0.32131510972976685,-0.7098253965377808,0.6725626587867737
1733461395183950000,2.3519501953125,-0.27488934993743896,-0.789237916469574,0.827722430229187
1733461395193907500,2.361907470703125,-0.26939156651496887,-0.7916813492774963,0.9334021210670471
1733461395203939300,2.371939208984375,-0.2871066629886627,-0.7165449261665344,0.9804387092590332
1733461395213928000,2.381927978515625,-0.2968805134296417,-0.6126978397369385,0.9828822016716003
1733461395223928300,2.39192822265625,-0.23273965716362,-0.403781920671463,0.8814785480499268
1733461395233917000,2.4019169921875,-0.059864792972803116,-0.16065755486488342,0.6908885836601257
1733461395243947800,2.41194775390625,0.12095131725072861,0.14782938361167908,0.4080579876899719
1733461395253906000,2.421906005859375,0.2376265823841095,0.323147714138031,0.10018189996480942
1733461395263936500,2.4319365234375,0.25961771607398987,0.30054569244384766,-0.14782938361167908
1733461395273925400,2.44192529296875,0.19975294172763824,0.18875735998153687,-0.3194825351238251
1733461395283925200,2.45192529296875,0.08674286305904388,0.10934487730264664,-0.43737950921058655
1733461395293914600,2.46191455078125,-0.06414084881544113,0.16432274878025055,-0.49724429845809937
1733461395303946000,2.471946044921875,-0.26083946228027344,0.4709770977497101,-0.4392121136188507
1733461395313903600,2.481903564453125,-0.2871066629886627,0.7098253965377808,-0.3139847218990326
1733461395323934500,2.4919345703125,-0.2840523421764374,0.8613200187683105,-0.14538592100143433
1733461395333923000,2.501923095703125,-0.29077184200286865,0.8973610401153564,0.028099801391363144
1733461395343954000,2.511953857421875,-0.3225368559360504,0.8234463334083557,0.1618792861700058
1733461395353912000,2.521912109375,-0.3628539443016052,0.6774495840072632,0.21441370248794556
1733461395363943000,2.53194287109375,-0.40744712948799133,0.4996877610683441,0.16432274878025055
1733461395373931500,2.541931640625,-0.45753806829452515,0.2321287989616394,-0.04703662544488907
1733461395383932400,2.551932373046875,-0.46303585171699524,0.10690141469240189,-0.22479841113090515
1733461395393920500,2.56192041015625,-0.45204028487205505,0.030543262138962746,-0.3830125033855438
1733461395403951900,2.571951904296875,-0.4245513379573822,-0.02321287989616394,-0.49235737323760986
1733461395413909800,2.58190966796875,-0.37201693654060364,-0.05192354694008827,-0.5528330206871033
1733461395423940600,2.591940673828125,-0.3029891550540924,-0.0555887371301651,-0.5699372887611389
1733461395433929000,2.601928955078125,-0.242513507604599,-0.0806342139840126,-0.543059229850769
1733461395443929600,2.6119296875,-0.2217440903186798,-0.1618792861700058,-0.43615779280662537
1733461395453918000,2.62191796875,-0.1667662113904953,-0.20525072515010834,-0.35185837745666504
1733461395463949000,2.631948974609375,-0.12034045159816742,-0.1869247704744339,-0.2681698501110077
1733461395473907200,2.6419072265625,-0.10690141469240189,-0.15454891324043274,-0.19425514340400696
1733461395483938000,2.65193798828125,-0.10873401165008545,-0.13561208546161652,-0.12767083942890167
1733461395493926700,2.6619267578125,-0.10873401165008545,-0.12950342893600464,-0.07391469180583954
1733461395503927300,2.67192724609375,-0.11789698898792267,-0.10567969083786011,-0.029932396486401558
1733461395513915600,2.68191552734375,-0.13439035415649414,-0.05314527451992035,0.04459316283464432
1733461395523947300,2.691947265625,-0.13439035415649414,0.001832595793530345,0.10445795953273773
1733461395533904600,2.701904541015625,-0.13072516024112701,0.06658431142568588,0.17959438264369965
1733461395543935700,2.711935791015625,-0.12461651116609573,0.11362093687057495,0.2687807083129883
1733461395553924000,2.721924072265625,-0.1215621829032898,0.12767083942890167,0.3530801236629486
1733461395563924700,2.7319248046875,-0.11178833991289139,0.1258382350206375,0.4050036668777466
1733461395573913000,2.7419130859375,-0.09468411654233932,0.13988813757896423,0.40194934606552124
1733461395583944200,2.751944091796875,-0.08368854224681854,0.18081611394882202,0.3292563557624817
1733461395593932800,2.761932861328125,-0.1062905490398407,0.2070833146572113,0.08857546001672745
1733461395603933400,2.771933349609375,-0.13988813757896423,0.22113321721553802,-0.11056660860776901
1733461395613921800,2.781921875,-0.1667662113904953,0.27122417092323303,-0.2816088795661926
1733461395623952600,2.79195263671875,-0.18325957655906677,0.32986724376678467,-0.3695734739303589
1733461395633910800,2.801910888671875,-0.19058994948863983,0.42638394236564636,-0.3335324227809906
1733461395643941600,2.811941650390625,-0.16798794269561768,0.578489363193512,-0.18020524084568024
1733461395653930200,2.82193017578125,-0.11239920556545258,0.7562511563301086,0.028099801391363144
1733461395663930400,2.831930419921875,-0.010995574295520782,0.9920451641082764,0.2687807083129883
1733461395673919200,2.841919189453125,0.0024434609804302454,1.0054842233657837,0.28588494658470154
1733461395683949600,2.851949462890625,-0.04398229718208313,0.7825183868408203,0.1765400618314743
1733461395693908500,2.861908447265625,-0.09957103431224823,0.29016098380088806,-0.0012217304902151227
1733461395703938600,2.8719384765625,-0.12828169763088226,-0.394008070230484,-0.1472185254096985
1733461395713928000,2.881927978515625,-0.15515977144241333,-1.0781772136688232,-0.16737708449363708
1733461395723927600,2.891927490234375,-0.17470745742321014,-1.5741997957229614,-0.04948008432984352
1733461395733917000,2.9019169921875,-0.20891591906547546,-1.7696765661239624,0.30115658044815063
1733461395743947300,2.911947265625,-0.15760323405265808,-1.5528194904327393,0.5601634383201599
1733461395753906000,2.921906005859375,-0.12339477986097336,-1.1331549882888794,0.788016140460968
1733461395763938300,2.931938232421875,-0.11239920556545258,-0.6615670323371887,0.9523389339447021
1733461395773925400,2.94192529296875,0.03726277872920036,-0.18509216606616974,1.0610729455947876
1733461395783927300,2.95192724609375,0.22418753802776337,0.24007004499435425,1.0934487581253052
1733461395793914400,2.961914306640625,0.3396410644054413,0.5369505286216736,0.9834930300712585
1733461395803947000,2.971947021484375,0.3897320330142975,0.616973876953125,0.7024950385093689
1733461395813903600,2.981903564453125,0.3799581825733185,0.33475416898727417,0.14049901068210602
1733461395823935200,2.991935302734375,0.32986724376678467,0.10384709388017654,-0.1007927656173706
1733461395833923000,3.001923095703125,0.21013765037059784,-0.2822197377681732,-0.21930062770843506
1733461395843954700,3.01195458984375,0.04459316283464432,-0.5161811113357544,-0.2828305959701538
1733461395853912000,3.021912109375,-0.06230825558304787,-0.5797111392021179,-0.304210901260376
1733461395863942400,3.0319423828125,-0.0757472887635231,-0.4893030524253845,-0.2785545587539673
1733461395873931500,3.041931640625,-0.04153883829712868,-0.34758231043815613,-0.21502456068992615
1733461395883931400,3.051931396484375,0.007941247895359993,-0.09896016865968704,-0.10995574295520782
1733461395893920500,3.06192041015625,0.05619960278272629,0.039706241339445114,-0.06475171446800232
1733461395903951600,3.07195166015625,0.11850785464048386,0.09224065393209457,-0.03848451003432274
1733461395913939700,3.081939697265625,0.15027284622192383,0.03420845419168472,-0.014049900695681572
1733461395923941000,3.091941162109375,0.1466076523065567,-0.10018189996480942,0.0012217304902151227
1733461395933929200,3.10192919921875,0.14538592100143433,-0.21868975460529327,-0.013439035043120384
1733461395943929900,3.111929931640625,0.1319468915462494,-0.2889392673969269,-0.05619960278272629
1733461395953918500,3.12191845703125,0.09651670604944229,-0.32986724376678467,-0.1514945775270462
1733461395963949300,3.13194921875,0.09651670604944229,-0.22479841113090515,-0.21135938167572021
1733461395973907200,3.1419072265625,0.13439035415649414,-0.15454891324043274,-0.2376265823841095
1733461395983938300,3.151938232421875,0.17470745742321014,-0.15882496535778046,-0.25595253705978394
1733461395993927000,3.161927001953125,0.18814650177955627,-0.10262536257505417,-0.27000242471694946
1733461396003927300,3.17192724609375,0.21441370248794556,-0.04214970022439957,-0.25961771607398987
1733461396013916000,3.181916015625,0.24984388053417206,-0.016493361443281174,-0.21807889640331268
1733461396023947000,3.191947021484375,0.27550023794174194,0.00855211354792118,-0.16554448008537292
1733461396033905000,3.20190478515625,0.30604347586631775,0.06658431142568588,-0.08674286305904388
1733461396043936300,3.211936279296875,0.3084869384765625,0.08368854224681854,-0.030543262138962746
1733461396053924400,3.22192431640625,0.294437050819397,0.08552113175392151,0.024434609338641167
1733461396063925000,3.231925048828125,0.2669481039047241,0.07696902006864548,0.06475171446800232
1733461396073913300,3.241913330078125,0.22968533635139465,0.08124507963657379,0.08185594528913498
1733461396083944700,3.25194482421875,0.19120082259178162,0.09285151958465576,0.0659734457731247
1733461396093932800,3.261932861328125,0.1722639948129654,0.11850785464048386,0.01710422709584236
1733461396103933700,3.27193359375,0.1618792861700058,0.13316862285137177,-0.09773843735456467
1733461396113920300,3.281920166015625,0.14538592100143433,0.1417207419872284,-0.18814650177955627
1733461396123951900,3.291951904296875,0.12767083942890167,0.19792033731937408,-0.2541199326515198
1733461396133910000,3.301909912109375,0.0861319974064827,0.27122417092323303,-0.25473082065582275
1733461396143941600,3.311941650390625,0.01466076634824276,0.3219259977340698,-0.19792033731937408
1733461396153929500,3.321929443359375,-0.06536258012056351,0.323147714138031,-0.10995574295520782
1733461396163929900,3.331929931640625,-0.13744467496871948,0.2773328125476837,-0.015882495790719986
1733461396173918500,3.34191845703125,-0.21930062770843506,0.15454891324043274,0.09957103431224823
1733461396183949300,3.35194921875,-0.2541199326515198,0.0555887371301651,0.14966198801994324
1733461396193907500,3.361907470703125,-0.26633724570274353,-0.00427605677396059,0.152105450630188
1733461396203939300,3.371939208984375,-0.27000242471694946,-0.025656340643763542,0.10873401165008545
1733461396213928000,3.381927978515625,-0.2474004179239273,-0.021991148591041565,0.056810468435287476
1733461396223929000,3.39192919921875,-0.2278527319431305,-0.0555887371301651,0.03726277872920036
1733461396233917000,3.4019169921875,-0.2382374405860901,-0.10995574295520782,0.08124507963657379
1733461396243948500,3.411948486328125,-0.27488934993743896,-0.21930062770843506,0.17470745742321014
1733461396253906000,3.421906005859375,-0.35124751925468445,-0.413555771112442,0.34513887763023376
1733461396263937500,3.4319375,-0.3744603991508484,-0.4801400899887085,0.43249258399009705
1733461396273925400,3.44192529296875,-0.3695734739303589,-0.4813618063926697,0.4801400899887085
1733461396283926300,3.45192626953125,-0.32131510972976685,-0.375071257352829,0.48197266459465027
1733461396293914400,3.461914306640625,-0.23029619455337524,-0.2932153046131134,0.4538728892803192
1733461396303945700,3.47194580078125,-0.13011430203914642,-0.18081611394882202,0.3701843321323395
1733461396313903600,3.481903564453125,-0.029932396486401558,-0.007941247895359993,0.2382374405860901
1733461396323935200,3.491935302734375,0.09834930300712585,0.16310101747512817,0.004886921960860491
1733461396333923000,3.501923095703125,0.11728613078594208,0.17043140530586243,-0.15943582355976105
1733461396343953400,3.511953369140625,0.0806342139840126,0.12889257073402405,-0.32131510972976685
1733461396353911800,3.521911865234375,-0.007941247895359993,0.06169738993048668,-0.4544837474822998
1733461396363942100,3.531942138671875,-0.1368338167667389,-0.02932153269648552,-0.5448917746543884
1733461396373931500,3.541931640625,-0.2968805134296417,-0.1007927656173706,-0.5974262356758118
1733461396383932700,3.5519326171875,-0.4691445231437683,-0.1313360333442688,-0.5913175344467163
1733461396393920500,3.56192041015625,-0.6151412725448608,0.06414084881544113,-0.4453207552433014
1733461396403952400,3.571952392578125,-0.6524040699005127,0.192422553896904,-0.23579397797584534
1733461396413909800,3.58190966796875,-0.6774495840072632,0.2370157092809677,0.018936822190880775
1733461396423940000,3.591940185546875,-0.6633996367454529,0.26022860407829285,0.23457226157188416
1733461396433929200,3.60192919921875,-0.6206390857696533,0.2828305959701538,0.3500257730484009
1733461396443929000,3.61192919921875,-0.5632177591323853,0.2919935882091522,0.35552358627319336
1733461396453918000,3.62191796875,-0.5082398653030396,0.24434609711170197,0.2779437005519867
1733461396463948800,3.63194873046875,-0.4599815309047699,0.14355333149433136,0.15393804013729095
1733461396473907200,3.6419072265625,-0.38667771220207214,-0.019547687843441963,-0.03726277872920036
1733461396483937500,3.6519375,-0.32681289315223694,-0.09407325088977814,-0.1319468915462494
1733461396493926700,3.6619267578125,-0.25534167885780334,-0.12339477986097336,-0.19364428520202637
1733461396503927600,3.671927490234375,-0.18020524084568024,-0.11545353382825851,-0.21868975460529327
1733461396513915600,3.68191552734375,-0.1160643994808197,-0.10567969083786011,-0.2070833146572113
1733461396523947000,3.691947021484375,-0.07941248267889023,-0.1014036312699318,-0.16859880089759827
1733461396533904600,3.701904541015625,-0.06169738993048668,-0.08429940044879913,-0.11911872029304504
1733461396543935700,3.711935791015625,-0.05925392732024193,-0.03481931984424591,-0.04581489413976669
1733461396553924000,3.721924072265625,-0.04886921867728233,0.014049900695681572,-0.009162978269159794
1733461396563925000,3.731925048828125,-0.02871066704392433,0.0354301854968071,0.019547687843441963
1733461396573913300,3.741913330078125,-0.00366519158706069,0.01038470957428217,0.04337143152952194
1733461396583944200,3.751944091796875,0.021380282938480377,-0.05009094998240471,0.06536258012056351
1733461396593932800,3.761932861328125,0.05253441259264946,-0.1014036312699318,0.08552113175392151
1733461396603933400,3.771933349609375,0.08979719132184982,-0.12400564551353455,0.10751228034496307
1733461396613921800,3.781921875,0.1362229436635971,-0.12767083942890167,0.1514945775270462
1733461396623953000,3.791952880859375,0.1368338167667389,-0.12034045159816742,0.17592918872833252
1733461396633910800,3.801910888671875,0.13377949595451355,-0.08124507963657379,0.17592918872833252
1733461396643942000,3.81194189453125,0.12278391420841217,-0.0006108652451075613,0.1362229436635971
1733461396653930200,3.82193017578125,0.08735372871160507,0.07513642311096191,0.06902777403593063
1733461396663931000,3.831930908203125,0.02382374368607998,0.11667526513338089,-0.01710422709584236
1733461396673919200,3.841919189453125,-0.05009094998240471,0.1417207419872284,-0.10567969083786011
1733461396683950300,3.851950439453125,-0.1007927656173706,0.1459967941045761,-0.16798794269561768
1733461396693908500,3.861908447265625,-0.15577064454555511,-0.0024434609804302454,-0.1362229436635971
1733461396703939600,3.871939697265625,-0.16737708449363708,-0.11545353382825851,-0.015882495790719986
1733461396713928000,3.881927978515625,-0.15577064454555511,-0.15454891324043274,0.1563815027475357
1733461396723927600,3.891927490234375,-0.12339477986097336,-0.12034045159816742,0.2981022298336029
1733461396733917000,3.9019169921875,-0.0757472887635231,-0.027488935738801956,0.31520646810531616
1733461396743947300,3.911947265625,0.039706241339445114,0.17104226350784302,0.16249015927314758
1733461396753906000,3.921906005859375,0.25961771607398987,0.30482175946235657,-0.05253441259264946
1733461396763936000,3.93193603515625,0.513126790523529,0.18448130786418915,-0.1459967941045761
1733461396773925400,3.94192529296875,0.5583308339118958,-0.1411098688840866,0.009162978269159794
1733461396783926800,3.9519267578125,0.5198463201522827,-0.45875978469848633,0.25045475363731384
1733461396793914400,3.961914306640625,0.41599923372268677,-0.6236934065818787,0.5027421116828918
1733461396803946000,3.971946044921875,0.2938261926174164,-0.6029239892959595,0.7263187766075134
1733461396813903600,3.981903564453125,0.21319197118282318,-0.39706242084503174,0.8900306820869446
1733461396823934000,3.991933837890625,0.22479841113090515,-0.1215621829032898,0.9639453291893005
1733461396833923000,4.001923095703125,0.2791654169559479,0.30482175946235657,0.8949176073074341
1733461396843955700,4.011955810546875,0.2981022298336029,0.41233405470848083,0.749531626701355
1733461396853911800,4.021911865234375,0.3543018400669098,0.4043927788734436,0.5424483418464661
1733461396863944400,4.0319443359375,0.40072759985923767,0.3237585723400116,0.2620611786842346
1733461396873931500,4.041931640625,0.42638394236564636,0.1417207419872284,-0.054367005825042725
1733461396883931400,4.051931396484375,0.41661009192466736,-0.11911872029304504,-0.3396410644054413
1733461396893920500,4.06192041015625,0.35735616087913513,-0.32986724376678467,-0.5583308339118958
1733461396903952100,4.0719521484375,0.2736676335334778,-0.3830125033855438,-0.6890559792518616
1733461396913909800,4.08190966796875,0.15821409225463867,-0.22418753802776337,-0.6774495840072632
1733461396923941400,4.09194140625,0.10567969083786011,-0.11484266817569733,-0.5406157374382019
1733461396933929200,4.10192919921875,0.07452555745840073,-0.025045474991202354,-0.3536909818649292
1733461396943929900,4.111929931640625,0.06414084881544113,0.06780604273080826,-0.16798794269561768
1733461396953918200,4.121918212890625,0.0708603709936142,0.1472185254096985,-0.02871066704392433
1733461396963949300,4.13194921875,0.0910189226269722,0.1765400618314743,0.036041051149368286
1733461396973907200,4.1419072265625,0.10018189996480942,0.15515977144241333,0.02871066704392433
1733461396983938300,4.151938232421875,0.1014036312699318,0.05192354694008827,-0.0507018156349659
1733461396993927000,4.161927001953125,0.09957103431224823,-0.00427605677396059,-0.1215621829032898
1733461397003927600,4.171927490234375,0.0959058403968811,-0.03787364438176155,-0.1918116807937622
1733461397013916000,4.181916015625,0.09896016865968704,-0.04581489413976669,-0.24862214922904968
1733461397023947000,4.191947021484375,0.11667526513338089,-0.05619960278272629,-0.2718350291252136
1733461397033904600,4.201904541015625,0.1508837193250656,-0.08735372871160507,-0.27122417092323303
1733461397043936000,4.21193603515625,0.1869247704744339,-0.12400564551353455,-0.26450464129447937
1733461397053924000,4.221924072265625,0.20525072515010834,-0.14355333149433136,-0.24129177629947662
1733461397063924700,4.2319248046875,0.182648703455925,-0.14844025671482086,-0.20586158335208893
1733461397073913300,4.241913330078125,0.12950342893600464,-0.1417207419872284,-0.1722639948129654
1733461397083944400,4.2519443359375,0.06169738993048668,-0.12522737681865692,-0.13988813757896423
1733461397093932800,4.261932861328125,-0.006719517521560192,-0.12095131725072861,-0.1007927656173706
1733461397103933400,4.271933349609375,-0.06536258012056351,-0.09957103431224823,-0.059864792972803116
1733461397113920000,4.281919921875,-0.11545353382825851,-0.06230825558304787,-0.027488935738801956
1733461397123952000,4.2919521484375,-0.15577064454555511,-0.04153883829712868,0.0006108652451075613
1733461397133910000,4.301909912109375,-0.19303341209888458,-0.09651670604944229,0.051312681287527084
1733461397143941000,4.311941162109375,-0.20341812074184418,-0.18448130786418915,0.0806342139840126
1733461397153929500,4.321929443359375,-0.19547687470912933,-0.25961771607398987,0.05864306539297104
1733461397163929900,4.331929931640625,-0.18814650177955627,-0.2620611786842346,-0.014049900695681572
1733461397173918500,4.34191845703125,-0.2028072625398636,-0.21319197118282318,-0.09162978827953339
1733461397183949300,4.35194921875,-0.22540926933288574,-0.10934487730264664,-0.1563815027475357
1733461397193907500,4.361907470703125,-0.2590068578720093,0.016493361443281174,-0.2015855312347412
1733461397203938600,4.3719384765625,-0.33536502718925476,0.14294247329235077,-0.1973094791173935
1733461397213928000,4.381927978515625,-0.36590829491615295,0.19058994948863983,-0.1411098688840866
1733461397223929000,4.39192919921875,-0.3854559659957886,0.17287486791610718,-0.036651913076639175
1733461397233917000,4.4019169921875,-0.4043927788734436,0.09346238523721695,0.0861319974064827
1733461397243948800,4.41194873046875,-0.413555771112442,-0.03848451003432274,0.17898350954055786
1733461397253906000,4.421906005859375,-0.4080579876899719,-0.19608774781227112,0.22602014243602753
1733461397263937800,4.431937744140625,-0.3995058834552765,-0.3793473243713379,0.28588494658470154
1733461397273925400,4.44192529296875,-0.35246923565864563,-0.6249151229858398,0.4758640229701996
1733461397283926800,4.4519267578125,-0.303600013256073,-0.7006624341011047,0.6377432942390442
1733461397293914400,4.461914306640625,-0.2816088795661926,-0.6603453159332275,0.7849618196487427
1733461397303946000,4.471946044921875,-0.2321287989616394,-0.4801400899887085,0.8710938692092896
1733461397313903600,4.481903564453125,-0.17104226350784302,-0.2223549485206604,0.8704829812049866
1733461397323934500,4.4919345703125,-0.1111774742603302,0.00366519158706069,0.770301103591919
1733461397333923000,4.501923095703125,-0.048258353024721146,0.17837265133857727,0.5601634383201599
1733461397343955000,4.511954833984375,0.019547687843441963,0.2987131178379059,0.25595253705978394
1733461397353912000,4.521912109375,0.005497787147760391,0.20402899384498596,-0.2070833146572113
1733461397363943700,4.531943603515625,-0.06841690838336945,0.04581489413976669,-0.4355469346046448
1733461397373931500,4.541931640625,-0.192422553896904,-0.13072516024112701,-0.5595525503158569
1733461397383932400,4.551932373046875,-0.31154128909111023,-0.2015855312347412,-0.5876523852348328
1733461397393920500,4.56192041015625,-0.37201693654060364,-0.12889257073402405,-0.5265658497810364
1733461397403952000,4.5719521484375,-0.3988949954509735,0.0012217304902151227,-0.39706242084503174
1733461397413909500,4.581909423828125,-0.4080579876899719,0.11178833991289139,-0.23945917189121246
1733461397423940600,4.591940673828125,-0.4129449129104614,0.18081611394882202,-0.05253441259264946
1733461397433929200,4.60192919921875,-0.423329621553421,0.17287486791610718,0.00855211354792118
1733461397443924700,4.6119248046875,-0.4239404797554016,0.11178833991289139,0.029932396486401558
1733461397453912800,4.621912841796875,-0.4153883755207062,0.009773843921720982,0.02932153269648552
1733461397463944000,4.63194384765625,-0.3995058834552765,-0.0910189226269722,0.006108652334660292
1733461397473902000,4.641902099609375,-0.38117989897727966,-0.16982053220272064,-0.027488935738801956
1733461397483933000,4.651932861328125,-0.3695734739303589,-0.2370157092809677,-0.04948008432984352
1733461397493921500,4.661921630859375,-0.3390302062034607,-0.26145032048225403,-0.059864792972803116
1733461397503922200,4.671922119140625,-0.30604347586631775,-0.24068090319633484,-0.06230825558304787
1733461397513910500,4.68191064453125,-0.25595253705978394,-0.19914206862449646,-0.060475658625364304
1733461397523941600,4.691941650390625,-0.20830504596233368,-0.14294247329235077,-0.04764748737215996
1733461397533899500,4.7018994140625,-0.16554448008537292,-0.08918632566928864,-0.021380282938480377
1733461397543930600,4.7119306640625,-0.13377949595451355,-0.048258353024721146,0.00427605677396059
1733461397553919000,4.7219189453125,-0.1270599663257599,-0.007941247895359993,-0.0006108652451075613
1733461397563919600,4.731919677734375,-0.13316862285137177,0.03176499158143997,-0.05253441259264946
1733461397573908200,4.741908203125,-0.14905111491680145,0.07024950534105301,-0.18509216606616974
1733461397583939000,4.75193896484375,-0.16249015927314758,0.08918632566928864,-0.25473082065582275
1733461397593927700,4.761927734375,-0.16859880089759827,0.13927727937698364,-0.2938261926174164
1733461397603928000,4.771927978515625,-0.1618792861700058,0.1771509200334549,-0.28466320037841797
1733461397613916400,4.78191650390625,-0.1466076523065567,0.1966986060142517,-0.2370157092809677
1733461397623947500,4.791947509765625,-0.1368338167667389,0.22296582162380219,-0.1667662113904953
1733461397633905700,4.80190576171875,-0.13072516024112701,0.2376265823841095,-0.08246681094169617
1733461397643936800,4.811936767578125,-0.1160643994808197,0.2376265823841095,0.042760565876960754
1733461397653925000,4.821925048828125,-0.11301007121801376,0.2321287989616394,0.09468411654233932
1733461397663925800,4.83192578125,-0.08491026610136032,0.2382374405860901,0.09529497474431992
1733461397673914000,4.8419140625,-0.05803219974040985,0.20952677726745605,0.05497787147760391
1733461397683945500,4.851945556640625,-0.04948008432984352,0.14416420459747314,-0.006108652334660292
1733461397693903400,4.8619033203125,-0.051312681287527084,0.06780604273080826,-0.07513642311096191
1733461397703934000,4.871933837890625,-0.05619960278272629,0,-0.13439035415649414
1733461397713922600,4.881922607421875,-0.05009094998240471,-0.010995574295520782,-0.1215621829032898
1733461397723923700,4.891923828125,-0.04092797264456749,0.04764748737215996,-0.025045474991202354
1733461397733911600,4.90191162109375,-0.01710422709584236,0.14538592100143433,0.11178833991289139
1733461397743942700,4.911942626953125,0.02932153269648552,0.21930062770843506,0.2565633952617645
1733461397753900800,4.92190087890625,0.08857546001672745,0.25473082065582275,0.3732386529445648
1733461397763931000,4.931930908203125,0.13927727937698364,0.22418753802776337,0.42699480056762695
1733461397773920300,4.941920166015625,0.1722639948129654,0.1466076523065567,0.3842342495918274
1733461397783919900,4.951919921875,0.1716531366109848,-0.015882495790719986,0.28038713335990906
1733461397793909000,4.961908935546875,0.14844025671482086,-0.30970868468284607,0.12950342893600464
1733461397803940600,4.971940673828125,0.13744467496871948,-0.5204572081565857,0.1411098688840866
1733461397813898200,4.981898193359375,0.11484266817569733,-0.6921103000640869,0.2736676335334778
1733461397823929900,4.991929931640625,0.10018189996480942,-0.7153232097625732,0.4648684561252594
1733461397833917700,5.001917724609375,0.09896016865968704,-0.5540547966957092,0.6493497490882874
1733461397843948300,5.0119482421875,0.13500121235847473,-0.2730567753314972,0.778853178024292
1733461397853906700,5.02190673828125,0.16554448008537292,0.024434609338641167,0.827722430229187
1733461397863937300,5.031937255859375,0.2168571650981903,0.3842342495918274,0.6841690540313721
1733461397873926400,5.041926513671875,0.2070833146572113,0.44776421785354614,0.4434881806373596
1733461397883928300,5.05192822265625,0.2021963894367218,0.40072759985923767,0.10018189996480942
1733461397893915400,5.061915283203125,0.19792033731937408,0.22113321721553802,-0.2724458873271942
1733461397903945700,5.07194580078125,0.15882496535778046,-0.04337143152952194,-0.5809328556060791
1733461397913932800,5.081932861328125,0.08979719132184982,-0.27000242471694946,-0.7635815739631653
1733461397923936000,5.09193603515625,0.02871066704392433,-0.33658674359321594,-0.8051204085350037
1733461397933923800,5.101923828125,-0.01710422709584236,-0.182648703455925,-0.6383541822433472
1733461397943925000,5.111925048828125,-0.02321287989616394,-0.060475658625364304,-0.4331034719944
1733461397953913000,5.1219130859375,-0.022602014243602753,0.018325956538319588,-0.2321287989616394
1733461397963944200,5.131944091796875,-0.021380282938480377,0.04459316283464432,-0.08857546001672745
1733461397973902000,5.141902099609375,-0.016493361443281174,0.0006108652451075613,-0.015271631069481373
1733461397983933200,5.15193310546875,-0.01160643994808197,-0.10445795953273773,-0.012217304669320583
1733461397993921500,5.161921630859375,-0.010995574295520782,-0.252287358045578,-0.042760565876960754
1733461398003922000,5.171921875,-0.01160643994808197,-0.40194934606552124,-0.0708603709936142
1733461398013910500,5.18191064453125,-0.00855211354792118,-0.5357288122177124,-0.09346238523721695
1733461398023941600,5.191941650390625,0.014049900695681572,-0.5479460954666138,-0.09773843735456467
1733461398033899500,5.2018994140625,0.03787364438176155,-0.5302310585975647,-0.0910189226269722
1733461398043930600,5.2119306640625,0.059864792972803116,-0.4905247986316681,-0.08552113175392151
1733461398053919200,5.221919189453125,0.08735372871160507,-0.4343251883983612,-0.0910189226269722
1733461398063919900,5.231919921875,0.12217304855585098,-0.34758231043815613,-0.11362093687057495
1733461398073908200,5.241908203125,0.13988813757896423,-0.26450464129447937,-0.13805554807186127
1733461398083939300,5.251939208984375,0.12889257073402405,-0.21013765037059784,-0.12400564551353455
1733461398093927700,5.261927734375,0.12950342893600464,-0.17898350954055786,-0.08918632566928864
1733461398103928300,5.27192822265625,0.13561208546161652,-0.14233160018920898,-0.05375614017248154
1733461398113915000,5.281914794921875,0.14477506279945374,-0.10934487730264664,-0.03176499158143997
1733461398123947000,5.291947021484375,0.14844025671482086,-0.09834930300712585,-0.02321287989616394
1733461398133904600,5.301904541015625,0.14233160018920898,-0.10384709388017654,-0.02687807008624077
1733461398143936000,5.31193603515625,0.12461651116609573,-0.10934487730264664,-0.025656340643763542
1733461398153924000,5.321924072265625,0.09834930300712585,-0.09712757170200348,-0.019547687843441963
1733461398163924700,5.3319248046875,0.09224065393209457,-0.0659734457731247,-0.031154127791523933
1733461398173913000,5.3419130859375,0.09407325088977814,-0.02871066704392433,-0.06658431142568588
1733461398183944400,5.3519443359375,0.0910189226269722,-0.012217304669320583,-0.11850785464048386
1733461398193902300,5.36190234375,0.07696902006864548,-0.01710422709584236,-0.17898350954055786
1733461398203933400,5.371933349609375,0.05497787147760391,-0.010995574295520782,-0.2376265823841095
1733461398213922600,5.381922607421875,0.04214970022439957,0.009773843921720982,-0.27611109614372253
1733461398223923500,5.39192333984375,0.02932153269648552,0.04581489413976669,-0.28588494658470154
1733461398233911600,5.40191162109375,-0.001832595793530345,0.09040805697441101,-0.2382374405860901
1733461398243943200,5.411943115234375,-0.04214970022439957,0.0806342139840126,-0.17104226350784302
1733461398253900800,5.42190087890625,-0.09346238523721695,0.028099801391363144,-0.08368854224681854
1733461398263932000,5.431931884765625,-0.13988813757896423,-0.06719517707824707,0.02076941914856434
1733461398273920000,5.441919921875,-0.17531833052635193,-0.16371189057826996,0.12217304855585098
1733461398283921000,5.4519208984375,-0.19792033731937408,-0.19914206862449646,0.1875356286764145
1733461398293909200,5.4619091796875,-0.2028072625398636,-0.16371189057826996,0.18448130786418915
1733461398303941000,5.471941162109375,-0.182648703455925,-0.08735372871160507,0.06902777403593063
1733461398313898200,5.481898193359375,-0.16737708449363708,-0.07452555745840073,-0.028099801391363144
1733461398323930000,5.49193017578125,-0.15454891324043274,-0.12522737681865692,-0.06902777403593063
1733461398333917700,5.501917724609375,-0.14294247329235077,-0.242513507604599,-0.00366519158706069
1733461398343949300,5.51194921875,-0.10934487730264664,-0.3878994286060333,0.16920967400074005
1733461398353907000,5.521906982421875,-0.0861319974064827,-0.5681046843528748,0.423329621553421
1733461398363938300,5.531938232421875,-0.09712757170200348,-0.759916365146637,0.7128797173500061
1733461398373926100,5.541926025390625,-0.2632829248905182,-0.9712757468223572,1.0555751323699951
1733461398383927600,5.551927490234375,-0.3854559659957886,-1.094059705734253,1.1172724962234497
1733461398393915400,5.561915283203125,-0.27550023794174194,-0.9957103729248047,1.0494664907455444
1733461398403945700,5.57194580078125,-0.18875735998153687,-0.6017022728919983,0.8686503767967224
1733461398413904100,5.581904052734375,-0.10323622822761536,-0.0708603709936142,0.5607742667198181
1733461398423934500,5.5919345703125,-0.014049900695681572,0.4245513379573822,0.17043140530586243
1733461398433923800,5.601923828125,0.0659734457731247,0.6963863968849182,-0.19364428520202637
1733461398443925000,5.611925048828125,0.10812314599752426,0.7220427393913269,-0.4948008358478546
1733461398453912800,5.621912841796875,0.04398229718208313,0.5100724697113037,-0.7654141783714294
1733461398463944400,5.6319443359375,-0.06963863968849182,0.3597996234893799,-0.8106181621551514
1733461398473902000,5.641902099609375,-0.13561208546161652,0.34697145223617554,-0.7648032903671265
1733461398483933400,5.651933349609375,-0.16554448008537292,0.40622538328170776,-0.6230825781822205
1733461398493921500,5.661921630859375,-0.19425514340400696,0.5002986192703247,-0.4196644127368927
1733461398503922700,5.671922607421875,-0.2272418737411499,0.5259549617767334,-0.19425514340400696
1733461398513910300,5.68191015625,-0.27611109614372253,0.475253164768219,0.0006108652451075613
1733461398523941400,5.69194140625,-0.32559117674827576,0.3805690407752991,0.13988813757896423
1733461398533899500,5.7018994140625,-0.32559117674827576,0.2767219543457031,0.13377949595451355
1733461398543930600,5.7119306640625,-0.3194825351238251,0.13927727937698364,0.08491026610136032
1733461398553919000,5.7219189453125,-0.29993483424186707,0.005497787147760391,0.018936822190880775
1733461398563918800,5.7319189453125,-0.2669481039047241,-0.11728613078594208,-0.0354301854968071
1733461398573908000,5.741907958984375,-0.19975294172763824,-0.18997909128665924,-0.07269296050071716
1733461398583939300,5.751939208984375,-0.1466076523065567,-0.23029619455337524,-0.09346238523721695
1733461398593927400,5.761927490234375,-0.06475171446800232,-0.22602014243602753,-0.10995574295520782
1733461398603927800,5.771927734375,-0.00855211354792118,-0.17531833052635193,-0.12278391420841217
1733461398613916400,5.78191650390625,0.045204028487205505,-0.08124507963657379,-0.13988813757896423
1733461398623947500,5.791947509765625,0.08002334833145142,0.018325956538319588,-0.14355333149433136
1733461398633905400,5.801905517578125,0.09773843735456467,0.09162978827953339,-0.11728613078594208
1733461398643936800,5.811936767578125,0.10384709388017654,0.12400564551353455,-0.0757472887635231
1733461398653925000,5.821925048828125,0.09224065393209457,0.11911872029304504,-0.04153883829712868
1733461398663925800,5.83192578125,0.06414084881544113,0.09896016865968704,-0.025656340643763542
1733461398673914000,5.8419140625,0.019547687843441963,0.05253441259264946,-0.025045474991202354
1733461398683945000,5.851945068359375,-0.01160643994808197,0.04581489413976669,-0.04092797264456749
1733461398693903000,5.861903076171875,-0.03726277872920036,0.05253441259264946,-0.05009094998240471
1733461398703934000,5.871933837890625,-0.05009094998240471,0.0708603709936142,-0.04642575979232788
1733461398713922600,5.881922607421875,-0.05375614017248154,0.09651670604944229,-0.025045474991202354
1733461398723923200,5.891923095703125,-0.0555887371301651,0.1160643994808197,0.00366519158706069
1733461398733911600,5.90191162109375,-0.05497787147760391,0.13561208546161652,0.04153883829712868
1733461398743942700,5.911942626953125,-0.03726277872920036,0.15027284622192383,0.08491026610136032
1733461398753900500,5.921900634765625,-0.031154127791523933,0.14844025671482086,0.07024950534105301
1733461398763932000,5.931931884765625,-0.039095375686883926,0.14782938361167908,0.009162978269159794
1733461398773920300,5.941920166015625,-0.05742133408784866,0.13866640627384186,-0.09162978827953339
1733461398783920400,5.95192041015625,-0.0708603709936142,0.11667526513338089,-0.21013765037059784
1733461398793909200,5.9619091796875,-0.0910189226269722,0.10018189996480942,-0.32498031854629517
1733461398803940900,5.97194091796875,-0.12889257073402405,0.10262536257505417,-0.40256020426750183
1733461398813898200,5.981898193359375,-0.1973094791173935,0.17592918872833252,-0.4141666293144226
1733461398823929900,5.991929931640625,-0.22663100063800812,0.2791654169559479,-0.35552358627319336
1733461398833917700,6.001917724609375,-0.22540926933288574,0.39767327904701233,-0.242513507604599
1733461398843949300,6.01194921875,-0.21624629199504852,0.45631635189056396,-0.09162978827953339
1733461398853906700,6.02190673828125,-0.23396138846874237,0.44287729263305664,0.051312681287527084
1733461398863937800,6.031937744140625,-0.3897320330142975,0.33169981837272644,0.12461651116609573
1733461398873926400,6.041926513671875,-0.37262779474258423,0.3494149148464203,0.056810468435287476
1733461398883926300,6.05192626953125,-0.29138273000717163,0.46670106053352356,-0.1160643994808197
1733461398893915400,6.061915283203125,-0.11178833991289139,0.47280970215797424,-0.35552358627319336
1733461398903947000,6.071947021484375,-0.04764748737215996,0.2675589919090271,-0.3781255781650543
1733461398913904400,6.081904296875,-0.06108652427792549,-0.11423180252313614,-0.22479841113090515
1733461398923936000,6.09193603515625,-0.10323622822761536,-0.5571091175079346,0.10567969083786011
1733461398933923800,6.101923828125,-0.17104226350784302,-0.9291260242462158,0.5589417219161987
1733461398943925000,6.111925048828125,-0.22540926933288574,-1.1746938228607178,1.0366383790969849
1733461398953913000,6.1219130859375,-0.2528982162475586,-1.2034045457839966,1.4227051734924316
1733461398963943400,6.131943359375,-0.3170390725135803,-1.0317513942718506,1.737911581993103
1733461398973902000,6.141902099609375,-0.25045475363731384,-0.8411614298820496,1.7971655130386353
1733461398983934500,6.1519345703125,-0.1875356286764145,-0.5815436840057373,1.750128984451294
1733461398993921800,6.161921875,-0.10445795953273773,-0.33597588539123535,1.5845844745635986
1733461399003921700,6.171921630859375,0.0024434609804302454,-0.13377949595451355,1.291369080543518
1733461399013910500,6.18191064453125,0.1014036312699318,0.013439035043120384,0.8588765263557434
1733461399023992300,6.191992431640625,0.19120082259178162,0.036041051149368286,0.3689626157283783
1733461399033899500,6.2018994140625,0.30054569244384766,-0.08796459436416626,-0.26939156651496887
1733461399043930400,6.211930419921875,0.20036379992961884,-0.2675589919090271,-0.6041457056999207
1733461399053919200,6.221919189453125,-0.02321287989616394,-0.384845107793808,-0.8362745046615601
1733461399063920000,6.231920166015625,-0.242513507604599,-0.42149701714515686,-0.921184778213501
1733461399073908200,6.241908203125,-0.34636059403419495,-0.29016098380088806,-0.8802568316459656
1733461399083939800,6.25193994140625,-0.3677408695220947,-0.08491026610136032,-0.7538077235221863
1733461399093927700,6.261927734375,-0.37079519033432007,0.06902777403593063,-0.5729916095733643
1733461399103928800,6.2719287109375,-0.3604104816913605,0.14477506279945374,-0.39156460762023926
1733461399113915000,6.281914794921875,-0.3799581825733185,0.17348572611808777,-0.21624629199504852
1733461399123947500,6.291947509765625,-0.4355469346046448,0.15454891324043274,-0.16249015927314758
1733461399133904600,6.301904541015625,-0.5125159621238708,0.07635815441608429,-0.13561208546161652
1733461399143935500,6.311935546875,-0.5778785347938538,-0.045204028487205505,-0.11789698898792267
1733461399153924000,6.321924072265625,-0.6420193910598755,-0.17470745742321014,-0.09346238523721695
1733461399163924700,6.3319248046875,-0.6927211880683899,-0.29016098380088806,-0.054367005825042725
1733461399173913000,6.3419130859375,-0.7250970602035522,-0.36163222789764404,0.00855211354792118
1733461399183944400,6.3519443359375,-0.740368664264679,-0.38667771220207214,0.12278391420841217
1733461399193902300,6.36190234375,-0.7440338730812073,-0.3604104816913605,0.19792033731937408
1733461399203933400,6.371933349609375,-0.7513642311096191,-0.32009339332580566,0.2590068578720093
1733461399213922600,6.381922607421875,-0.7489207983016968,-0.2174680233001709,0.2974913716316223
1733461399223923200,6.391923095703125,-0.7165449261665344,-0.11667526513338089,0.3225368559360504
1733461399233911600,6.40191162109375,-0.6737843751907349,-0.07635815441608429,0.33658674359321594
1733461399243943000,6.41194287109375,-0.6444628238677979,-0.09957103431224823,0.33108896017074585
1733461399253900500,6.421900634765625,-0.6126978397369385,-0.22479841113090515,0.28099802136421204
1733461399263932000,6.431931884765625,-0.5974262356758118,-0.3280346393585205,0.23151792585849762
1733461399273920300,6.441920166015625,-0.5998696684837341,-0.3995058834552765,0.18387043476104736
1733461399283921200,6.451921142578125,-0.617584764957428,-0.4141666293144226,0.1466076523065567
1733461399293909200,6.4619091796875,-0.6517932415008545,-0.37079519033432007,0.12217304855585098
1733461399303940600,6.471940673828125,-0.6933320760726929,-0.28099802136421204,0.10506882518529892
1733461399313898200,6.481898193359375,-0.7348709106445312,-0.18936823308467865,0.09407325088977814
1733461399323929300,6.491929443359375,-0.769690215587616,-0.1264491081237793,0.09651670604944229
1733461399333917700,6.501917724609375,-0.7806857824325562,-0.09957103431224823,0.10690141469240189
1733461399343948800,6.51194873046875,-0.770301103591919,-0.10873401165008545,0.09773843735456467
1733461399353906700,6.52190673828125,-0.7550294399261475,-0.10201449692249298,0.0555887371301651
1733461399363938000,6.53193798828125,-0.7354817390441895,-0.07452555745840073,-0.015882495790719986
1733461399373926400,6.541926513671875,-0.7141014933586121,-0.022602014243602753,-0.09407325088977814
1733461399383926300,6.55192626953125,-0.6835582256317139,0.02932153269648552,-0.14355333149433136
1733461399393915400,6.561915283203125,-0.6579018831253052,0.04092797264456749,-0.14416420459747314
1733461399403946000,6.571946044921875,-0.6304129362106323,0.016493361443281174,-0.07757988572120667
1733461399413904100,6.581904052734375,-0.6291912198066711,-0.016493361443281174,-0.013439035043120384
1733461399423935200,6.591935302734375,-0.750142514705658,-0.06414084881544113,0.05375614017248154
1733461399433923800,6.601923828125,-0.779464066028595,-0.024434609338641167,0.0910189226269722
1733461399443924500,6.611924560546875,-0.7757988572120667,0.10873401165008545,0.08185594528913498
1733461399453912800,6.621912841796875,-0.7556403279304504,0.29077184200286865,-0.01466076634824276
1733461399463943400,6.631943359375,-0.6627888083457947,0.5161811113357544,-0.23945917189121246
1733461399473902000,6.641902099609375,-0.43127086758613586,0.8759807348251343,-0.7324274182319641
1733461399483933700,6.65193359375,-0.4031710624694824,0.8869763612747192,-0.9724974632263184
1733461399493921500,6.661921630859375,-0.3982841372489929,0.6969972252845764,-1.0512990951538086
1733461399503922700,6.671922607421875,-0.41599923372268677,0.3536909818649292,-0.9291260242462158
1733461399513910300,6.68191015625,-0.41722095012664795,-0.056810468435287476,-0.608421802520752
1733461399523942100,6.691942138671875,-0.42271876335144043,-0.513737678527832,-0.1313360333442688
1733461399533899500,6.7018994140625,-0.4386012554168701,-0.8717046976089478,0.4086688458919525
1733461399543931000,6.711930908203125,-0.4612032473087311,-1.0726794004440308,0.8710938692092896
1733461399553919000,6.7219189453125,-0.4801400899887085,-0.9621127843856812,1.2608258724212646
1733461399563918600,6.731918701171875,-0.44715335965156555,-0.6780604124069214,1.2974777221679688
1733461399573908200,6.741908203125,-0.3781255781650543,-0.3017674386501312,1.1746938228607178
1733461399583938300,6.751938232421875,-0.32009339332580566,0.02382374368607998,0.949895441532135
1733461399593927400,6.761927490234375,-0.30604347586631775,0.17531833052635193,0.6805039048194885
1733461399603927300,6.77192724609375,-0.34513887763023376,0.13439035415649414,0.42210787534713745
1733461399613916400,6.78191650390625,-0.384845107793808,0.01771509274840355,0.20097467303276062
1733461399623947300,6.791947265625,-0.4392121136188507,-0.20402899384498596,-0.02076941914856434
1733461399633905700,6.80190576171875,-0.503963828086853,-0.3323107063770294,-0.07330382615327835
1733461399643937300,6.811937255859375,-0.5589417219161987,-0.38117989897727966,-0.06291911751031876
1733461399653925000,6.821925048828125,-0.5766568183898926,-0.3439171314239502,-0.022602014243602753
1733461399663926300,6.83192626953125,-0.6389650702476501,-0.2779437005519867,0.03481931984424591
1733461399673914000,6.8419140625,-0.6713408827781677,-0.15821409225463867,0.08796459436416626
1733461399683946000,6.851946044921875,-0.6768386960029602,-0.01710422709584236,0.12095131725072861
1733461399693903000,6.861903076171875,-0.6994407176971436,0.09834930300712585,0.08979719132184982
1733461399703933700,6.87193359375,-0.7757988572120667,0.01710422709584236,-0.036651913076639175
1733461399713922600,6.881922607421875,-0.8729264140129089,0.036651913076639175,-0.22663100063800812
1733461399723922700,6.891922607421875,-0.9224064946174622,-0.016493361443281174,-0.40133845806121826
1733461399733911600,6.90191162109375,-0.9572258591651917,-0.07452555745840073,-0.53328537940979
1733461399743943400,6.911943359375,-1.0005972385406494,-0.14049901068210602,-0.6194173693656921
1733461399753900500,6.921900634765625,-1.0519099235534668,-0.2015855312347412,-0.655458390712738
1733461399763932400,6.931932373046875,-1.1264355182647705,-0.25045475363731384,-0.6304129362106323
1733461399773920300,6.941920166015625,-1.2162326574325562,-0.24495697021484375,-0.5143485069274902
1733461399783921400,6.95192138671875,-1.3298536539077759,-0.2076941877603531,-0.3695734739303589
1733461399793909200,6.9619091796875,-1.4049900770187378,-0.14294247329235077,-0.20097467303276062
1733461399803941000,6.971941162109375,-1.4715744256973267,-0.03481931984424591,-0.02015855349600315
1733461399813898200,6.981898193359375,-1.4984524250030518,0.08185594528913498,0.17959438264369965
1733461399823929900,6.991929931640625,-1.4721852540969849,0.04398229718208313,0.31520646810531616
1733461399833917700,7.001917724609375,-1.503339409828186,-0.06169738993048668,0.3481931984424591
1733461399843949300,7.01194921875,-1.6389514207839966,-0.14049901068210602,0.2932153046131134
1733461399853906700,7.02190673828125,-1.6731599569320679,-0.2840523421764374,0.2370157092809677
1733461399863938300,7.031938232421875,-1.6890424489974976,-0.44287729263305664,0.15393804013729095
1733461399873926400,7.041926513671875,-1.7287486791610718,-0.5406157374382019,0.06963863968849182
1733461399883927600,7.051927490234375,-1.7788395881652832,-0.6291912198066711,0.03176499158143997
1733461399893915400,7.061915283203125,-1.80510675907135,-0.7147123217582703,0.039706241339445114
1733461399903947300,7.071947265625,-1.816102385520935,-0.7825183868408203,0.05497787147760391
1733461399913932800,7.081932861328125,-1.8863518238067627,-0.8118399381637573,0.048258353024721146
1733461399923935000,7.09193505859375,-1.9993619918823242,-0.8216137290000916,-0.01466076634824276
1733461399933923800,7.101923828125,-2.0201313495635986,-0.8552113175392151,-0.12400564551353455
1733461399943924200,7.11192431640625,-2.0305161476135254,-0.7929030656814575,-0.2571742534637451
1733461399953913000,7.1219130859375,-2.0751092433929443,-0.7275404930114746,-0.3830125033855438
1733461399963943700,7.131943603515625,-2.1642956733703613,-0.7110471725463867,-0.47708576917648315
1733461399973902000,7.141902099609375,-2.2400429248809814,-0.7141014933586121,-0.5241223573684692
1733461399983933700,7.15193359375,-2.2687535285949707,-0.6902777552604675,-0.5253441333770752
1733461399993921500,7.161921630859375,-2.27852725982666,-0.6328563690185547,-0.4386012554168701
1733461400003923000,7.1719228515625,-2.2736403942108154,-0.5729916095733643,-0.32986724376678467
1733461400013910500,7.18191064453125,-2.2595906257629395,-0.5155702829360962,-0.20463985204696655
1733461400023942400,7.1919423828125,-2.2485949993133545,-0.4502076804637909,-0.08918632566928864
1733461400033899500,7.2018994140625,-2.3133466243743896,-0.39645153284072876,0.004886921960860491
1733461400043931100,7.21193115234375,-2.364659309387207,-0.3237585723400116,0.05497787147760391
1733461400053919000,7.2219189453125,-2.3493876457214355,-0.20830504596233368,0.05803219974040985
1733461400063920400,7.23192041015625,-2.29440975189209,-0.07513642311096191,0.018936822190880775
1733461400073908200,7.241908203125,-2.269975185394287,-0.059864792972803116,-0.019547687843441963
1733461400083939800,7.25193994140625,-2.2711970806121826,-0.11301007121801376,-0.05803219974040985
1733461400093928000,7.261927978515625,-2.3206770420074463,-0.24373523890972137,-0.09712757170200348
1733461400103928800,7.2719287109375,-2.428800106048584,-0.4251621961593628,-0.1258382350206375
1733461400113915000,7.281914794921875,-2.535090684890747,-0.6285803318023682,-0.14538592100143433
1733461400123947500,7.291947509765625,-2.612670660018921,-0.8014551997184753,-0.15454891324043274
1733461400133904600,7.301904541015625,-2.6200010776519775,-0.9199630618095398,-0.1514945775270462
1733461400143936500,7.3119365234375,-2.5442538261413574,-0.8765916228294373,-0.13805554807186127
1733461400153924000,7.321924072265625,-2.4275784492492676,-0.7538077235221863,-0.11789698898792267
1733461400163925500,7.331925537109375,-2.289522886276245,-0.5760459303855896,-0.09224065393209457
1733461400173913300,7.341913330078125,-2.1563544273376465,-0.4147774875164032,-0.07024950534105301
1733461400183945000,7.351945068359375,-2.0366246700286865,-0.2785545587539673,-0.03787364438176155
1733461400193902300,7.36190234375,-1.9352210760116577,-0.1612684279680252,0.004886921960860491
1733461400203934000,7.371933837890625,-1.8558086156845093,-0.07452555745840073,0.048258353024721146
1733461400213922600,7.381922607421875,-1.7635679244995117,-0.04092797264456749,0.10445795953273773
1733461400223923700,7.391923828125,-1.6982053518295288,-0.10751228034496307,0.12217304855585098
1733461400233911600,7.40191162109375,-1.6920967102050781,-0.26939156651496887,0.11789698898792267
1733461400243943200,7.411943115234375,-1.7275269031524658,-0.4605923891067505,0.08246681094169617
1733461400253900500,7.421900634765625,-1.7153096199035645,-0.5436700582504272,0.010995574295520782
1733461400263932400,7.431932373046875,-1.6481144428253174,-0.4996877610683441,-0.08246681094169617
1733461400273920000,7.441919921875,-1.5363260507583618,-0.3738495409488678,-0.17348572611808777
1733461400283921400,7.45192138671875,-1.3622294664382935,-0.14782938361167908,-0.2474004179239273
1733461400293909200,7.4619091796875,-1.2858713865280151,-0.018325956538319588,-0.23579397797584534
1733461400303941000,7.471941162109375,-1.19912850856781,0.08246681094169617,-0.19058994948863983
1733461400313898200,7.481898193359375,-1.1056660413742065,0.15027284622192383,-0.12889257073402405
1733461400323928800,7.4919287109375,-1.014647126197815,0.182648703455925,-0.06108652427792549
1733461400333917700,7.501917724609375,-0.930347740650177,0.16859880089759827,-0.006719517521560192
1733461400343948500,7.511948486328125,-0.8546004891395569,0.12522737681865692,0.027488935738801956
1733461400353907000,7.521906982421875,-0.7623597979545593,0.060475658625364304,0.02321287989616394
1733461400363937300,7.531937255859375,-0.7049384713172913,0.04337143152952194,-0.012828170321881771
1733461400373926400,7.541926513671875,-0.6542366743087769,0.04214970022439957,-0.06536258012056351
1733461400383926300,7.55192626953125,-0.608421802520752,0.04398229718208313,-0.11789698898792267
1733461400393915400,7.561915283203125,-0.5711590051651001,0.042760565876960754,-0.16737708449363708
1733461400403946000,7.571946044921875,-0.5448917746543884,0.031154127791523933,-0.2064724564552307
1733461400413904400,7.581904296875,-0.5247332453727722,0.003054326167330146,-0.23396138846874237
1733461400423935000,7.59193505859375,-0.5119050741195679,-0.039706241339445114,-0.25473082065582275
1733461400433923800,7.601923828125,-0.45814892649650574,-0.07452555745840073,-0.2736676335334778
1733461400443924000,7.611924072265625,-0.39156460762023926,-0.07696902006864548,-0.28099802136421204
1733461400453912800,7.621912841796875,-0.2938261926174164,-0.04214970022439957,-0.28649580478668213
1733461400463944000,7.63194384765625,-0.2015855312347412,-0.001832595793530345,-0.27611109614372253
1733461400473902000,7.641902099609375,-0.1466076523065567,0.03237585723400116,-0.2376265823841095
1733461400483933000,7.651932861328125,-0.10323622822761536,0.06841690838336945,-0.17348572611808777
1733461400493921300,7.66192138671875,-0.06902777403593063,0.1264491081237793,-0.09040805697441101
1733461400503921700,7.671921630859375,-0.006719517521560192,0.23273965716362,0.05192354694008827
1733461400513910300,7.68191015625,0.022602014243602753,0.3029891550540924,0.15332718193531036
1733461400523941600,7.691941650390625,0.04642575979232788,0.3732386529445648,0.25473082065582275
1733461400533899500,7.7018994140625,0.09162978827953339,0.43799036741256714,0.34574973583221436
1733461400543930600,7.7119306640625,0.1411098688840866,0.4899139404296875,0.4196644127368927
1733461400553919000,7.7219189453125,0.1722639948129654,0.5180137157440186,0.44165557622909546
1733461400563919600,7.731919677734375,0.17959438264369965,0.5076290369033813,0.3689626157283783
1733461400573908200,7.741908203125,0.16371189057826996,0.45692721009254456,0.01466076634824276
1733461400583938300,7.751938232421875,0.192422553896904,0.39584067463874817,-0.36163222789764404
1733461400593927400,7.761927490234375,0.3139847218990326,0.2974913716316223,-0.7525860071182251
1733461400603928800,7.7719287109375,0.3903428912162781,0.09285151958465576,-1.0085384845733643
1733461400613916400,7.78191650390625,0.41661009192466736,-0.1459967941045761,-1.0531316995620728
1733461400623948000,7.791947998046875,0.37568211555480957,-0.3640756905078888,-0.8833111524581909
1733461400633905700,7.80190576171875,0.32498031854629517,-0.5186246037483215,-0.5283984541893005
1733461400643937000,7.81193701171875,0.18020524084568024,-0.5149593949317932,-0.0806342139840126
1733461400653925000,7.821925048828125,-0.1820378452539444,-0.43615779280662537,0.608421802520752
1733461400663926300,7.83192626953125,-0.3219259977340698,-0.3543018400669098,0.9859365224838257
1733461400673914000,7.8419140625,-0.3237585723400116,-0.22113321721553802,1.2406673431396484
1733461400683944400,7.8519443359375,-0.2064724564552307,-0.04092797264456749,1.3555099964141846
1733461400693903000,7.861903076171875,-0.10018189996480942,0.07880161702632904,1.3634512424468994
1733461400703933400,7.871933349609375,-0.012217304669320583,0.10323622822761536,1.29381263256073
1733461400713922600,7.881922607421875,0.04398229718208313,0.04642575979232788,1.160033106803894
1733461400723922400,7.89192236328125,0.07696902006864548,-0.06841690838336945,0.8613200187683105
1733461400733911600,7.90191162109375,0.08124507963657379,-0.09040805697441101,0.6499606370925903
1733461400743942100,7.911942138671875,0.1258382350206375,-0.1411098688840866,0.46670106053352356
1733461400753900500,7.921900634765625,0.1362229436635971,-0.21868975460529327,0.2974913716316223
1733461400763932200,7.93193212890625,0.06658431142568588,-0.303600013256073,0.14538592100143433
1733461400773920300,7.941920166015625,0.0024434609804302454,-0.29504790902137756,0.012828170321881771
1733461400783921200,7.951921142578125,-0.03726277872920036,-0.17592918872833252,-0.09285151958465576
1733461400793909200,7.9619091796875,-0.08918632566928864,0.08796459436416626,-0.15515977144241333
1733461400803939600,7.971939697265625,-0.10201449692249298,0.23273965716362,-0.13255776464939117
1733461400813898200,7.981898193359375,-0.10873401165008545,0.3237585723400116,-0.09040805697441101
1733461400823928600,7.991928466796875,-0.13500121235847473,0.33475416898727417,-0.04092797264456749
1733461400833917700,8.001917724609376,-0.17287486791610718,0.2528982162475586,0.001832595793530345
1733461400843948300,8.0119482421875,-0.2021963894367218,0.1111774742603302,0.022602014243602753
1733461400853906700,8.02190673828125,-0.2272418737411499,-0.0354301854968071,0.01160643994808197
1733461400863937500,8.0319375,-0.24556782841682434,-0.1362229436635971,-0.03726277872920036
1733461400873926400,8.041926513671875,-0.2217440903186798,-0.18936823308467865,-0.1472185254096985
1733461400883926300,8.05192626953125,-0.19120082259178162,-0.1820378452539444,-0.2125810980796814
1733461400893915100,8.0619150390625,-0.1508837193250656,-0.1411098688840866,-0.2577851414680481
1733461400903945700,8.07194580078125,-0.10995574295520782,-0.06414084881544113,-0.2834414839744568
1733461400913904400,8.081904296875,-0.07941248267889023,0.04153883829712868,-0.2822197377681732
1733461400923935000,8.09193505859375,-0.06291911751031876,0.13439035415649414,-0.24862214922904968
1733461400933923800,8.101923828125,-0.04948008432984352,0.22968533635139465,-0.19058994948863983
1733461400943924000,8.111924072265625,-0.02871066704392433,0.3988949954509735,-0.06536258012056351
1733461400953913000,8.1219130859375,-0.01771509274840355,0.4642575979232788,0.02871066704392433
1733461400963943400,8.131943359375,-0.025656340643763542,0.4593706727027893,0.11545353382825851
1733461400973902000,8.141902099609375,-0.05314527451992035,0.39156460762023926,0.17287486791610718
1733461400983933200,8.15193310546875,-0.08002334833145142,0.2779437005519867,0.19547687470912933
1733461400993921500,8.161921630859375,-0.10567969083786011,0.13500121235847473,0.17287486791610718
1733461401003922000,8.171921875,-0.12767083942890167,-0.006108652334660292,0.12400564551353455
1733461401013910500,8.18191064453125,-0.11362093687057495,-0.07391469180583954,0.0403171069920063
1733461401023941600,8.191941650390625,-0.08429940044879913,-0.11667526513338089,0.03848451003432274
1733461401033899500,8.2018994140625,-0.005497787147760391,-0.21868975460529327,0.06230825558304787
1733461401043930600,8.2119306640625,0.05009094998240471,-0.2620611786842346,0.09224065393209457
1733461401053919200,8.221919189453125,0.04398229718208313,-0.26939156651496887,0.1258382350206375
1733461401063919900,8.231919921875,0.021991148591041565,-0.27122417092323303,0.16371189057826996
1733461401073908200,8.241908203125,-0.01466076634824276,-0.2669481039047241,0.2070833146572113
1733461401083939300,8.251939208984375,-0.07513642311096191,-0.25961771607398987,0.2535090744495392
1733461401093927700,8.261927734375,-0.1264491081237793,-0.251676470041275,0.3084869384765625
1733461401103928300,8.27192822265625,-0.11667526513338089,-0.23151792585849762,0.3182607889175415
1733461401113915000,8.281914794921875,-0.10384709388017654,-0.22357667982578278,0.29138273000717163
1733461401123947000,8.291947021484376,-0.07819075137376785,-0.24373523890972137,0.22052235901355743
1733461401133904600,8.301904541015626,-0.054367005825042725,-0.2736676335334778,0.11667526513338089
1733461401143935700,8.311935791015625,-0.04948008432984352,-0.3090978264808655,0.003054326167330146
1733461401153924000,8.321924072265626,-0.060475658625364304,-0.31520646810531616,-0.10323622822761536
1733461401163924700,8.3319248046875,-0.11423180252313614,-0.30482175946235657,-0.22907446324825287
1733461401173913000,8.3419130859375,-0.18081611394882202,-0.3170390725135803,-0.27550023794174194
1733461401183944200,8.351944091796875,-0.2632829248905182,-0.36713001132011414,-0.2871066629886627
1733461401193902300,8.36190234375,-0.32498031854629517,-0.4746423065662384,-0.28038713335990906
1733461401203933200,8.37193310546875,-0.35552358627319336,-0.5894849896430969,-0.28099802136421204
1733461401213922600,8.381922607421876,-0.36713001132011414,-0.6603453159332275,-0.313373863697052
1733461401223923700,8.391923828125,-0.3500257730484009,-0.6475171446800232,-0.3885102868080139
1733461401233911600,8.40191162109375,-0.252287358045578,-0.44715335965156555,-0.5119050741195679
1733461401243943200,8.411943115234376,-0.14355333149433136,-0.2785545587539673,-0.5283984541893005
1733461401253900500,8.421900634765626,-0.10934487730264664,-0.2474004179239273,-0.43799036741256714
1733461401263932200,8.43193212890625,-0.1270599663257599,-0.34697145223617554,-0.24068090319633484
1733461401273920300,8.441920166015626,-0.15027284622192383,-0.45631635189056396,0.03298672288656235
1733461401283921400,8.45192138671875,-0.2376265823841095,-0.5375614166259766,0.34697145223617554
1733461401293909200,8.4619091796875,-0.17348572611808777,-0.7012733221054077,0.6126978397369385
1733461401303941000,8.471941162109376,-0.16432274878025055,-0.6731734871864319,0.9126327037811279
1733461401313898200,8.481898193359376,-0.22968533635139465,-0.6359107494354248,1.009149432182312
1733461401323928300,8.49192822265625,-0.2828305959701538,-0.5662720799446106,0.9902125597000122
1733461401333917700,8.501917724609376,-0.30604347586631775,-0.4098905920982361,0.8582656979560852
1733461401343948000,8.511947998046875,-0.303600013256073,-0.18631389737129211,0.6212499737739563
1733461401353906700,8.52190673828125,-0.2773328125476837,0.031154127791523933,0.33169981837272644
1733461401363938300,8.531938232421876,-0.23273965716362,0.21807889640331268,0.03298672288656235
1733461401373926400,8.541926513671875,-0.15943582355976105,0.475253164768219,-0.2174680233001709
1733461401383926300,8.55192626953125,-0.08491026610136032,0.4807509481906891,-0.39645153284072876
1733461401393915400,8.561915283203126,-0.11545353382825851,0.35552358627319336,-0.44165557622909546
1733461401403947000,8.571947021484375,-0.1973094791173935,0.25106561183929443,-0.45326200127601624
1733461401413904400,8.581904296875,-0.25961771607398987,0.2070833146572113,-0.43676865100860596
1733461401423935700,8.591935791015626,-0.28955012559890747,0.20891591906547546,-0.394618958234787
1733461401433923800,8.601923828125,-0.29993483424186707,0.2987131178379059,-0.34208452701568604
1733461401443924500,8.611924560546875,-0.3078760802745819,0.4306600093841553,-0.2816088795661926
1733461401453912800,8.621912841796876,-0.3488040566444397,0.5363397002220154,-0.18631389737129211
1733461401463944000,8.63194384765625,-0.38728857040405273,0.53328537940979,-0.13500121235847473
1733461401473902000,8.641902099609375,-0.44165557622909546,0.4300491213798523,-0.09651670604944229
1733461401483933200,8.65193310546875,-0.5057964324951172,0.25106561183929443,-0.0708603709936142
1733461401493921300,8.66192138671875,-0.543059229850769,0.07452555745840073,-0.06352998316287994
1733461401503922200,8.671922119140625,-0.5546656250953674,-0.08124507963657379,-0.06963863968849182
1733461401513910300,8.68191015625,-0.5357288122177124,-0.19853121042251587,-0.0757472887635231
1733461401523941400,8.69194140625,-0.43188172578811646,-0.27977627515792847,-0.08002334833145142
1733461401533899500,8.7018994140625,-0.34147366881370544,-0.2632829248905182,-0.07635815441608429
1733461401543930400,8.711930419921876,-0.24617868661880493,-0.19608774781227112,-0.06414084881544113
1733461401553919000,8.7219189453125,-0.152105450630188,-0.08429940044879913,-0.04948008432984352
1733461401563920000,8.731919921875,-0.06169738993048668,0.04764748737215996,-0.025045474991202354
1733461401573908200,8.741908203125,0.012217304669320583,0.12767083942890167,0.01160643994808197
1733461401583939300,8.751939208984375,0.04948008432984352,0.12889257073402405,0.05009094998240471
1733461401593927400,8.761927490234376,0.059864792972803116,0.09162978827953339,0.08368854224681854
1733461401603927800,8.771927734375,0.021991148591041565,-0.04092797264456749,0.1264491081237793
1733461401613916400,8.78191650390625,-0.01038470957428217,-0.1459967941045761,0.16065755486488342
1733461401623947500,8.791947509765626,-0.033597588539123535,-0.2028072625398636,0.20097467303276062
1733461401633905400,8.801905517578126,-0.042760565876960754,-0.17898350954055786,0.242513507604599
1733461401643937300,8.811937255859375,-0.04153883829712868,-0.07757988572120667,0.2816088795661926
1733461401653925000,8.821925048828126,-0.02932153269648552,0.0708603709936142,0.3188716471195221
1733461401663926300,8.83192626953125,-0.00427605677396059,0.2376265823841095,0.3488040566444397
1733461401673914000,8.8419140625,0.03787364438176155,0.41661009192466736,0.3799581825733185
1733461401683945700,8.85194580078125,0.06169738993048668,0.44837507605552673,0.4050036668777466
1733461401693903000,8.861903076171876,0.08246681094169617,0.4202753007411957,0.4502076804637909
1733461401703934700,8.871934814453125,0.0861319974064827,0.3090978264808655,0.5271766781806946
1733461401713922600,8.881922607421876,0.07819075137376785,0.16249015927314758,0.6029239892959595
1733461401723923000,8.8919228515625,0.0659734457731247,0.05619960278272629,0.6230825781822205
1733461401733911600,8.90191162109375,0.060475658625364304,0.02871066704392433,0.5564982295036316
1733461401743942700,8.911942626953126,0.08185594528913498,0.07208210229873657,0.3323107063770294
1733461401753900500,8.921900634765626,0.12034045159816742,0.12889257073402405,0.16554448008537292
1733461401763931000,8.931930908203125,0.1771509200334549,0.2021963894367218,-0.0024434609804302454
1733461401773920300,8.941920166015626,0.21930062770843506,0.32009339332580566,-0.18509216606616974
1733461401783920000,8.951920166015626,0.22357667982578278,0.4502076804637909,-0.38606682419776917
1733461401793909200,8.9619091796875,0.20402899384498596,0.4893030524253845,-0.5772676467895508
1733461401803940900,8.97194091796875,0.15943582355976105,0.35185837745666504,-0.7055493593215942
1733461401813898200,8.981898193359376,0.0910189226269722,0.05375614017248154,-0.7012733221054077
1733461401823930000,8.99193017578125,0.003054326167330146,-0.5369505286216736,-0.42210787534713745
1733461401833917700,9.001917724609376,-0.039706241339445114,-0.8222246170043945,-0.09773843735456467
1733461401843948300,9.0119482421875,-0.06536258012056351,-0.9560040831565857,0.25106561183929443
1733461401853906700,9.02190673828125,-0.036041051149368286,-0.9822713136672974,0.5613851547241211
1733461401863937000,9.03193701171875,0.02015855349600315,-0.8784242272377014,0.8155050873756409
1733461401873926400,9.041926513671875,0.1111774742603302,-0.66584312915802,0.9847147464752197
1733461401883928300,9.05192822265625,0.25106561183929443,-0.413555771112442,1.0690141916275024
1733461401893915400,9.061915283203126,0.46853363513946533,-0.1459967941045761,1.054964303970337
1733461401903946000,9.071946044921875,0.5900958180427551,-0.13561208546161652,0.940121591091156
1733461401913931300,9.08193115234375,0.6542366743087769,-0.1814269721508026,0.7024950385093689
1733461401923936000,9.09193603515625,0.6359107494354248,-0.16737708449363708,0.3078760802745819
1733461401933923800,9.101923828125,0.5595525503158569,-0.18387043476104736,-0.11301007121801376
1733461401943925200,9.11192529296875,0.4642575979232788,-0.2626720666885376,-0.4282165467739105
1733461401953913000,9.1219130859375,0.36651915311813354,-0.2889392673969269,-0.608421802520752
1733461401963944400,9.1319443359375,0.2535090744495392,-0.11178833991289139,-0.6414085030555725
1733461401973902000,9.141902099609375,0.22052235901355743,0.059864792972803116,-0.5314527750015259
1733461401983933700,9.15193359375,0.2028072625398636,0.2119702398777008,-0.35552358627319336
1733461401993921800,9.161921875,0.19364428520202637,0.3090978264808655,-0.15393804013729095
1733461402003922700,9.171922607421875,0.17959438264369965,0.3225368559360504,0.0403171069920063
1733461402013910500,9.18191064453125,0.15760323405265808,0.26939156651496887,0.1820378452539444
1733461402023941400,9.19194140625,0.13011430203914642,0.2021963894367218,0.24617868661880493
1733461402033899500,9.2018994140625,0.11239920556545258,0.12217304855585098,0.2480112910270691
1733461402043930600,9.2119306640625,0.10934487730264664,-0.02321287989616394,0.20586158335208893
1733461402053919200,9.221919189453125,0.12095131725072861,-0.12339477986097336,0.16249015927314758
1733461402063919900,9.231919921875,0.13377949595451355,-0.18631389737129211,0.10690141469240189
1733461402073908200,9.241908203125,0.14966198801994324,-0.1869247704744339,0.0403171069920063
1733461402083939300,9.251939208984375,0.1722639948129654,-0.14416420459747314,-0.025656340643763542
1733461402093927700,9.261927734375,0.19608774781227112,-0.07208210229873657,-0.07696902006864548
1733461402103928300,9.27192822265625,0.21502456068992615,0.016493361443281174,-0.09896016865968704
1733461402113915000,9.281914794921875,0.2272418737411499,0.1771509200334549,-0.0806342139840126
1733461402123947000,9.291947021484376,0.21930062770843506,0.28649580478668213,-0.051312681287527084
1733461402133904600,9.301904541015626,0.18997909128665924,0.3836233615875244,-0.021380282938480377
1733461402143935700,9.311935791015625,0.15332718193531036,0.44104471802711487,-0.00366519158706069
1733461402153924000,9.321924072265626,0.11178833991289139,0.4453207552433014,-0.00366519158706069
1733461402163924700,9.3319248046875,0.06475171446800232,0.3927863538265228,-0.005497787147760391
1733461402173913000,9.3419130859375,0.027488935738801956,0.294437050819397,-0.01160643994808197
1733461402183944200,9.351944091796875,-0.0006108652451075613,0.1270599663257599,-0.03726277872920036
1733461402193902300,9.36190234375,0.04764748737215996,-0.48747047781944275,-0.054367005825042725
1733461402203933400,9.371933349609375,0.004886921960860491,-0.9877691268920898,-0.24373523890972137
1733461402213922600,9.381922607421876,-0.04459316283464432,-0.48319441080093384,-0.7434229850769043
1733461402223923000,9.3919228515625,-0.03787364438176155,-0.23090706765651703,-1.0207557678222656
1733461402233911600,9.40191162109375,-0.05619960278272629,-0.182648703455925,-1.081842303276062
1733461402243943200,9.411943115234376,-0.059864792972803116,0.04459316283464432,-1.0806206464767456
1733461402253900800,9.42190087890625,-0.04398229718208313,0.35185837745666504,-1.0494664907455444
1733461402263932200,9.43193212890625,-0.09468411654233932,0.7269296646118164,-1.0134254693984985
1733461402273920300,9.441920166015626,-0.1563815027475357,0.8484918475151062,-1.0018190145492554
1733461402283921200,9.451921142578126,-0.18325957655906677,0.8735373020172119,-0.9896016716957092
1733461402293909200,9.4619091796875,-0.27122417092323303,0.826500654220581,-0.9572258591651917
1733461402303940900,9.47194091796875,-0.3744603991508484,0.6670648455619812,-0.8674286603927612
1733461402313898200,9.481898193359376,-0.4386012554168701,0.4404338300228119,-0.6963863968849182
1733461402323929900,9.491929931640625,-0.4703662395477295,0.1869247704744339,-0.45753806829452515
1733461402333917700,9.501917724609376,-0.49724429845809937,-0.14844025671482086,-0.04764748737215996
1733461402343949600,9.511949462890625,-0.4948008358478546,-0.31581732630729675,0.19364428520202637
1733461402353906700,9.52190673828125,-0.485027015209198,-0.4990769028663635,0.403781920671463
1733461402363938300,9.531938232421876,-0.4642575979232788,-0.6957755088806152,0.6035348773002625
1733461402373926400,9.541926513671875,-0.4282165467739105,-0.8258898258209229,0.8112290501594543
1733461402383927600,9.551927490234375,-0.3579670190811157,-0.8460483551025391,1.035416603088379
1733461402393915400,9.561915283203126,-0.31031954288482666,-0.8307767510414124,1.2767083644866943
1733461402403947000,9.571947021484375,-0.34697145223617554,-0.7849618196487427,1.598023533821106
1733461402413904400,9.581904296875,-0.38667771220207214,-0.6963863968849182,1.720807433128357
1733461402423936000,9.59193603515625,-0.41111230850219727,-0.5736024379730225,1.7342463731765747
1733461402433923800,9.601923828125,-0.4056145250797272,-0.39156460762023926,1.5748106241226196
1733461402443923700,9.611923828125,-0.38606682419776917,-0.1618792861700058,1.2107349634170532
1733461402453912800,9.621912841796876,-0.3445279896259308,-0.0006108652451075613,0.7287622094154358
1733461402463943200,9.631943115234375,-0.29138273000717163,0.016493361443281174,0.2064724564552307
1733461402473902000,9.641902099609375,-0.2583959996700287,-0.0708603709936142,-0.2889392673969269
1733461402483932200,9.65193212890625,-0.2687807083129883,-0.2718350291252136,-0.808174729347229
1733461402493921500,9.661921630859375,-0.35735616087913513,-0.33108896017074585,-0.949895441532135
1733461402503922700,9.671922607421875,-0.4386012554168701,-0.2681698501110077,-0.9578366875648499
1733461402513910500,9.68191064453125,-0.46303585171699524,-0.10812314599752426,-0.8631525635719299
1733461402523942100,9.691942138671875,-0.4856378734111786,0.06108652427792549,-0.6933320760726929
1733461402533899500,9.7018994140625,-0.4917465150356293,0.1612684279680252,-0.46242499351501465
1733461402543929900,9.711929931640626,-0.5112941861152649,0.1973094791173935,-0.19792033731937408
1733461402553919000,9.7219189453125,-0.5693264007568359,0.15332718193531036,0.13866640627384186
1733461402563918800,9.7319189453125,-0.5968153476715088,0.06902777403593063,0.26450464129447937
1733461402573908200,9.741908203125,-0.6120869517326355,-0.00855211354792118,0.3139847218990326
1733461402583938600,9.7519384765625,-0.6010913848876953,-0.05864306539297104,0.2938261926174164
1733461402593927400,9.761927490234376,-0.5760459303855896,-0.09468411654233932,0.2272418737411499
1733461402603928300,9.77192822265625,-0.5461135506629944,-0.1313360333442688,0.14049901068210602
1733461402613916400,9.78191650390625,-0.5057964324951172,-0.15760323405265808,0.04581489413976669
1733461402623947800,9.79194775390625,-0.4184426963329315,-0.18997909128665924,-0.0910189226269722
1733461402633905400,9.801905517578126,-0.34513887763023376,-0.20402899384498596,-0.16065755486488342
1733461402643936800,9.811936767578125,-0.2718350291252136,-0.20341812074184418,-0.20586158335208893
1733461402653925000,9.821925048828126,-0.2028072625398636,-0.1771509200334549,-0.22479841113090515
1733461402663925800,9.83192578125,-0.13988813757896423,-0.12095131725072861,-0.22052235901355743
1733461402673914000,9.8419140625,-0.08124507963657379,-0.0403171069920063,-0.1973094791173935
1733461402683945200,9.8519453125,-0.036651913076639175,0.04153883829712868,-0.16982053220272064
1733461402693903400,9.8619033203125,-0.01710422709584236,0.11667526513338089,-0.14966198801994324
1733461402703934000,9.871933837890625,-0.04092797264456749,0.16310101747512817,-0.13866640627384186
1733461402713922600,9.881922607421876,-0.07391469180583954,0.14782938361167908,-0.13744467496871948
1733461402723923000,9.8919228515625,-0.10995574295520782,0.12095131725072861,-0.13377949595451355
1733461402733911600,9.90191162109375,-0.15027284622192383,0.0910189226269722,-0.1264491081237793
1733461402743942700,9.911942626953126,-0.1875356286764145,0.039706241339445114,-0.10567969083786011
1733461402753900800,9.92190087890625,-0.20036379992961884,0.00366519158706069,-0.08552113175392151
1733461402763932000,9.931931884765625,-0.20402899384498596,0.01466076634824276,-0.08429940044879913
1733461402773920300,9.941920166015626,-0.14905111491680145,0.12400564551353455,-0.13927727937698364
1733461402783921400,9.95192138671875,-0.08246681094169617,0.21013765037059784,-0.19975294172763824
1733461402793909200,9.9619091796875,-0.006108652334660292,0.2871066629886627,-0.2681698501110077
1733461402803940900,9.97194091796875,0.060475658625364304,0.3683517575263977,-0.3384193480014801
1733461402813898200,9.981898193359376,0.11239920556545258,0.45326200127601624,-0.3891211748123169
1733461402823929900,9.991929931640625,0.13988813757896423,0.5119050741195679,-0.39217549562454224
1733461402833917700,10.001917724609376,0.15027284622192383,0.5381723046302795,-0.35063666105270386
1733461402843949300,10.01194921875,0.19975294172763824,0.5369505286216736,-0.25473082065582275
1733461402853906700,10.02190673828125,0.23640485107898712,0.5277875661849976,-0.1918116807937622
1733461402863937300,10.031937255859376,0.2541199326515198,0.5338962078094482,-0.15393804013729095
1733461402873926400,10.041926513671875,0.251676470041275,0.5845980644226074,-0.1820378452539444
1733461402883926300,10.05192626953125,0.23090706765651703,0.6291912198066711,-0.29016098380088806
1733461402893915400,10.061915283203126,0.2028072625398636,0.608421802520752,-0.4453207552433014
1733461402903945700,10.07194580078125,0.15332718193531036,0.4288274049758911,-0.5748242139816284
1733461402913904600,10.081904541015625,0.09529497474431992,0.028099801391363144,-0.5791002511978149
1733461402923936300,10.091936279296876,-0.010995574295520782,-0.8307767510414124,-0.1973094791173935
1733461402933923800,10.101923828125,-0.06169738993048668,-1.2803735733032227,0.2669481039047241
1733461402943923700,10.111923828125,-0.06658431142568588,-1.5125023126602173,0.7739662528038025
1733461402953913000,10.1219130859375,-0.05375614017248154,-1.5528194904327393,1.2504411935806274
1733461402963943200,10.131943115234375,-0.00855211354792118,-1.4172073602676392,1.645671010017395
1733461402973902000,10.141902099609375,0.08124507963657379,-1.1062769889831543,1.9065104722976685
1733461402983934500,10.1519345703125,0.18387043476104736,-0.6230825781822205,2.0005836486816406
1733461402993921800,10.161921875,0.35735616087913513,0.09529497474431992,1.8380935192108154
1733461403003923700,10.171923828125,0.48319441080093384,0.3488040566444397,1.5809192657470703
1733461403013910500,10.18191064453125,0.5955936312675476,0.37262779474258423,1.2699888944625854
1733461403023942100,10.191942138671875,0.6395758986473083,0.22968533635139465,0.9266825914382935
1733461403033899800,10.201899658203125,0.5803219676017761,0.08124507963657379,0.5094616413116455
1733461403043931400,10.211931396484376,0.4807509481906891,-0.10201449692249298,0.0555887371301651
1733461403053919200,10.221919189453125,0.3933972120285034,-0.37568211555480957,-0.30482175946235657
1733461403063920400,10.23192041015625,0.3023782968521118,-0.6236934065818787,-0.6310238242149353
1733461403073908200,10.241908203125,0.2583959996700287,-0.6017022728919983,-0.6982190012931824
1733461403083939800,10.25193994140625,0.21502456068992615,-0.5088507533073425,-0.6530149579048157
1733461403093927700,10.261927734375,0.17409659922122955,-0.36651915311813354,-0.5271766781806946
1733461403103928800,10.2719287109375,0.12828169763088226,-0.17592918872833252,-0.3445279896259308
1733461403113915000,10.281914794921875,0.08002334833145142,0.012217304669320583,-0.14966198801994324
1733461403123947500,10.291947509765626,0.03420845419168472,0.16432274878025055,0.02382374368607998
1733461403133904600,10.301904541015626,-0.007941247895359993,0.2583959996700287,0.16493362188339233
1733461403143935500,10.311935546875,-0.03848451003432274,0.2932153046131134,0.3127630054950714
1733461403153924000,10.321924072265626,-0.03298672288656235,0.23335053026676178,0.3738495409488678
1733461403163924700,10.3319248046875,-0.009773843921720982,0.1007927656173706,0.4031710624694824
1733461403173913000,10.3419130859375,0.027488935738801956,-0.0708603709936142,0.3854559659957886
1733461403183944200,10.351944091796875,0.06230825558304787,-0.2168571650981903,0.3139847218990326
1733461403193902300,10.36190234375,0.08246681094169617,-0.313373863697052,0.20097467303276062
1733461403203933400,10.371933349609375,0.0861319974064827,-0.3579670190811157,0.0806342139840126
1733461403213922600,10.381922607421876,0.08124507963657379,-0.2565633952617645,-0.06841690838336945
1733461403223923000,10.3919228515625,0.0806342139840126,-0.14049901068210602,-0.10018189996480942
1733461403233911600,10.40191162109375,0.07696902006864548,-0.039095375686883926,-0.07208210229873657
1733461403243942700,10.411942626953126,0.06352998316287994,0.039095375686883926,0.0024434609804302454
1733461403253900500,10.421900634765626,0.04398229718208313,0.09957103431224823,0.0959058403968811
1733461403263932000,10.431931884765625,0.018936822190880775,0.1062905490398407,0.18509216606616974
1733461403273920300,10.441920166015626,-0.018936822190880775,0.07880161702632904,0.2474004179239273
1733461403283920600,10.451920654296876,-0.09834930300712585,0.036041051149368286,0.24373523890972137
1733461403293909500,10.461909423828125,-0.15515977144241333,0.03848451003432274,0.1569923609495163
1733461403303940000,10.471940185546876,-0.19364428520202637,0.07635815441608429,0.029932396486401558
1733461403313898200,10.481898193359376,-0.20525072515010834,0.09957103431224823,-0.08674286305904388
1733461403323929300,10.491929443359375,-0.20036379992961884,0.08918632566928864,-0.1814269721508026
1733461403333917700,10.501917724609376,-0.19853121042251587,0.05864306539297104,-0.2590068578720093
1733461403343949300,10.51194921875,-0.17959438264369965,0.08185594528913498,-0.31031954288482666
1733461403353906700,10.52190673828125,-0.17470745742321014,0.16493362188339233,-0.2987131178379059
1733461403363938300,10.531938232421876,-0.19547687470912933,0.3640756905078888,-0.17837265133857727
1733461403373926400,10.541926513671875,-0.2070833146572113,0.45875978469848633,-0.04886921867728233
1733461403383927600,10.551927490234375,-0.23640485107898712,0.41661009192466736,0.08002334833145142
1733461403393915400,10.561915283203126,-0.2638937830924988,0.26022860407829285,0.15332718193531036
1733461403403947300,10.571947265625,-0.29626965522766113,0.07696902006864548,0.14049901068210602
1733461403413904400,10.581904296875,-0.3390302062034607,-0.06414084881544113,0.04764748737215996
1733461403423936300,10.591936279296876,-0.3885102868080139,-0.15821409225463867,-0.09224065393209457
1733461403433923800,10.601923828125,-0.4178318381309509,-0.2736676335334778,-0.24495697021484375
1733461403443925200,10.61192529296875,-0.4092797040939331,-0.39217549562454224,-0.18997909128665924
1733461403453912800,10.621912841796876,-0.3982841372489929,-0.5247332453727722,0.00733038317412138
1733461403463944400,10.6319443359375,-0.3842342495918274,-0.6548475623130798,0.2919935882091522
1733461403473902000,10.641902099609375,-0.3787364661693573,-0.769690215587616,0.5931501388549805
1733461403483933700,10.65193359375,-0.38179078698158264,-0.8570439219474792,0.8344419002532959
1733461403493921500,10.661921630859375,-0.4031710624694824,-0.8674286603927612,0.9511171579360962
1733461403503922700,10.671922607421875,-0.44776421785354614,-0.578489363193512,0.8698720932006836
1733461403513910300,10.68191015625,-0.43799036741256714,-0.24068090319633484,0.7049384713172913
1733461403523942400,10.6919423828125,-0.4098905920982361,0.1014036312699318,0.5015203952789307
1733461403533899500,10.7018994140625,-0.3805690407752991,0.3891211748123169,0.3029891550540924
1733461403543929900,10.711929931640626,-0.38667771220207214,0.5638286471366882,0.1514945775270462
1733461403553919200,10.721919189453125,-0.4398229718208313,0.6243042945861816,0.05497787147760391
1733461403563920100,10.731920166015625,-0.4960225820541382,0.6206390857696533,-0.012217304669320583
1733461403573908000,10.741907958984376,-0.5760459303855896,0.5442809462547302,-0.06658431142568588
1733461403583939800,10.75193994140625,-0.7086036801338196,0.3738495409488678,-0.10751228034496307
1733461403593927400,10.761927490234376,-0.7299839854240417,0.31459560990333557,-0.09712757170200348
1733461403603927600,10.771927490234376,-0.7159340381622314,0.2638937830924988,-0.05253441259264946
1733461403613916400,10.78191650390625,-0.685390830039978,0.182648703455925,0.01160643994808197
1733461403623947300,10.791947265625,-0.646295428276062,0.09834930300712585,0.06963863968849182
1733461403633905700,10.80190576171875,-0.6004805564880371,0.029932396486401558,0.11850785464048386
1733461403643936300,10.811936279296875,-0.5503895878791809,-0.012217304669320583,0.16004669666290283
1733461403653925000,10.821925048828126,-0.4893030524253845,-0.06352998316287994,0.18081611394882202
1733461403663925200,10.83192529296875,-0.4544837474822998,-0.07819075137376785,0.16249015927314758
1733461403673914000,10.8419140625,-0.4196644127368927,-0.09346238523721695,0.1319468915462494
1733461403683945500,10.851945556640626,-0.3903428912162781,-0.11545353382825851,0.10323622822761536
1733461403693903000,10.861903076171876,-0.35674530267715454,-0.12889257073402405,0.08491026610136032
1733461403703934500,10.8719345703125,-0.3078760802745819,-0.12339477986097336,0.06475171446800232
1733461403713922600,10.881922607421876,-0.2541199326515198,-0.08491026610136032,0.03787364438176155
1733461403723923500,10.89192333984375,-0.16004669666290283,0.009773843921720982,-0.00366519158706069
1733461403733911800,10.901911865234375,-0.1014036312699318,0.07208210229873657,-0.014049900695681572
1733461403743943000,10.91194287109375,-0.04092797264456749,0.14966198801994324,-0.021380282938480377
1733461403753900500,10.921900634765626,0.01160643994808197,0.2015855312347412,-0.025045474991202354
1733461403763932000,10.931931884765625,0.039095375686883926,0.1875356286764145,-0.016493361443281174
1733461403773920300,10.941920166015626,0.056810468435287476,0.15515977144241333,0.00855211354792118
1733461403783921000,10.9519208984375,0.06963863968849182,0.1368338167667389,0.04948008432984352
1733461403793909200,10.9619091796875,0.07452555745840073,0.1472185254096985,0.10201449692249298
1733461403803940000,10.971940185546876,0.06719517707824707,0.21930062770843506,0.2028072625398636
1733461403813898200,10.981898193359376,0.06780604273080826,0.3188716471195221,0.26633724570274353
1733461403823929300,10.991929443359375,0.08307767659425735,0.42638394236564636,0.3023782968521118
1733461403833917700,11.001917724609376,0.10445795953273773,0.44715335965156555,0.33475416898727417
1733461403843948800,11.01194873046875,0.11545353382825851,0.3793473243713379,0.36590829491615295
1733461403853907000,11.021906982421875,0.11667526513338089,0.2583959996700287,0.3597996234893799
1733461403863937800,11.031937744140626,0.11484266817569733,0.12400564551353455,0.29504790902137756
1733461403873926400,11.041926513671875,0.12217304855585098,-0.0861319974064827,0.13072516024112701
1733461403883926800,11.0519267578125,0.10995574295520782,-0.2565633952617645,0.02871066704392433
1733461403893915400,11.061915283203126,0.08796459436416626,-0.41599923372268677,-0.05803219974040985
1733461403903946500,11.071946533203125,0.06841690838336945,-0.5216789245605469,-0.12889257073402405
1733461403913934600,11.0819345703125,0.08429940044879913,-0.5858197808265686,-0.15271630883216858
1733461403923935500,11.091935546875,0.1062905490398407,-0.5687155723571777,-0.17470745742321014
1733461403933923800,11.101923828125,0.14049901068210602,-0.46364670991897583,-0.2278527319431305
1733461403943924700,11.1119248046875,0.19058994948863983,-0.3084869384765625,-0.35735616087913513
1733461403953913000,11.1219130859375,0.21013765037059784,-0.22113321721553802,-0.4960225820541382
1733461403963944700,11.13194482421875,0.2272418737411499,-0.0959058403968811,-0.6615670323371887
1733461403973902000,11.141902099609375,0.24190263450145721,0.04642575979232788,-0.8032878041267395
1733461403983933700,11.15193359375,0.25045475363731384,0.12217304855585098,-0.8307767510414124
1733461403993921800,11.161921875,0.22663100063800812,0.042760565876960754,-0.6640105247497559
1733461404003922700,11.171922607421875,0.1765400618314743,-0.20036379992961884,-0.31581732630729675
1733461404013910500,11.18191064453125,0.1319468915462494,-0.4911356568336487,0.14355333149433136
1733461404023942400,11.1919423828125,0.09529497474431992,-0.8442157506942749,0.8301658630371094
1733461404033899500,11.2018994140625,0.048258353024721146,-1.006095051765442,1.156978726387024
1733461404043929900,11.211929931640626,0.006719517521560192,-1.0910053253173828,1.3255776166915894
1733461404053919200,11.221919189453125,-0.012828170321881771,-1.0561859607696533,1.3439035415649414
1733461404063919000,11.231919189453125,-0.03237585723400116,-0.8735373020172119,1.2412781715393066
1733461404073908200,11.241908203125,-0.04642575979232788,-0.6041457056999207,1.0769554376602173
1733461404083940600,11.251940673828125,-0.0403171069920063,-0.304210901260376,0.8808676600456238
1733461404093927700,11.261927734375,0.006719517521560192,0.06291911751031876,0.5491678714752197
1733461404103929900,11.271929931640624,0.06414084881544113,0.18020524084568024,0.28038713335990906
1733461404113915000,11.281914794921875,0.1270599663257599,0.21868975460529327,-0.007941247895359993
1733461404123946000,11.291946044921875,0.1362229436635971,0.20586158335208893,-0.3286454975605011
1733461404133905200,11.3019052734375,0.07452555745840073,0.1508837193250656,-0.6707300543785095
1733461404143936300,11.311936279296875,-0.030543262138962746,0.10384709388017654,-0.9340129494667053
1733461404153924000,11.321924072265626,-0.15760323405265808,0.054367005825042725,-1.06657075881958
1733461404163925500,11.331925537109376,-0.32559117674827576,0.05742133408784866,-0.9853256344795227
1733461404173913300,11.341913330078125,-0.38606682419776917,0.1111774742603302,-0.7770205736160278
1733461404183944700,11.35194482421875,-0.39706242084503174,0.16249015927314758,-0.49296826124191284
1733461404193902300,11.36190234375,-0.37201693654060364,0.19058994948863983,-0.20463985204696655
1733461404203934200,11.371934326171875,-0.35735616087913513,0.1459967941045761,0.013439035043120384
1733461404213922600,11.381922607421876,-0.3683517575263977,-0.018936822190880775,0.12889257073402405
1733461404223923200,11.391923095703126,-0.41661009192466736,-0.26633724570274353,0.17592918872833252
1733461404233911600,11.40191162109375,-0.4905247986316681,-0.5094616413116455,0.1716531366109848
1733461404243942000,11.41194189453125,-0.617584764957428,-0.7568620443344116,0.10812314599752426
1733461404253900800,11.42190087890625,-0.6951646208763123,-0.827722430229187,0.0757472887635231
1733461404263931100,11.43193115234375,-0.7464773058891296,-0.8130616545677185,0.07819075137376785
1733461404273920300,11.441920166015626,-0.7751879692077637,-0.7086036801338196,0.1160643994808197
1733461404283921700,11.451921630859376,-0.7861835956573486,-0.5534439086914062,0.18814650177955627
1733461404293909200,11.4619091796875,-0.7715228199958801,-0.3237585723400116,0.2834414839744568
1733461404303939800,11.47193994140625,-0.7635815739631653,-0.11728613078594208,0.40683624148368835
1733461404313898200,11.481898193359376,-0.808174729347229,0.0959058403968811,0.5119050741195679
1733461404323929300,11.491929443359375,-0.8857545852661133,0.13439035415649414,0.5283984541893005
1733461404333917700,11.501917724609376,-0.9553932547569275,0.1215621829032898,0.494189977645874
1733461404343949000,11.511948974609375,-1.0335839986801147,0.05925392732024193,0.4331034719944
1733461404353907000,11.521906982421875,-1.1166616678237915,-0.01038470957428217,0.3433062732219696
1733461404363938600,11.5319384765625,-1.1899654865264893,-0.06414084881544113,0.23151792585849762
1733461404373926400,11.541926513671875,-1.282817006111145,-0.15760323405265808,0.11423180252313614
1733461404383927600,11.551927490234375,-1.444696307182312,-0.3335324227809906,-0.019547687843441963
1733461404393915400,11.561915283203126,-1.549154281616211,-0.42638394236564636,-0.04948008432984352
1733461404403947300,11.571947265625,-1.63467538356781,-0.48380526900291443,-0.0403171069920063
1733461404413904100,11.581904052734375,-1.7092009782791138,-0.5143485069274902,-0.02015855349600315
1733461404423936300,11.591936279296876,-1.7763961553573608,-0.4990769028663635,-0.012828170321881771
1733461404433923800,11.601923828125,-1.8368717432022095,-0.4337143301963806,-0.029932396486401558
1733461404443925200,11.61192529296875,-1.8857409954071045,-0.342695415019989,-0.07757988572120667
1733461404453912800,11.621912841796876,-1.927890658378601,-0.2431243658065796,-0.1258382350206375
1733461404463944700,11.63194482421875,-1.9889771938323975,-0.1966986060142517,-0.2174680233001709
1733461404473902000,11.641902099609375,-2.015244483947754,-0.1722639948129654,-0.29016098380088806
1733461404483933700,11.65193359375,-2.029905319213867,-0.13927727937698364,-0.3536909818649292
1733461404493921500,11.661921630859375,-2.0421226024627686,-0.08429940044879913,-0.3952298164367676
1733461404503923000,11.6719228515625,-2.0561723709106445,-0.028099801391363144,-0.41111230850219727
1733461404513910500,11.68191064453125,-2.063502788543701,0.001832595793530345,-0.3891211748123169
1733461404523942400,11.6919423828125,-2.0677788257598877,-0.045204028487205505,-0.31459560990333557
1733461404533899500,11.7018994140625,-2.079385280609131,-0.2626720666885376,-0.10567969083786011
1733461404543931100,11.71193115234375,-2.0842721462249756,-0.4593706727027893,0.06658431142568588
1733461404553919000,11.7219189453125,-2.0677788257598877,-0.5974262356758118,0.2174680233001709
1733461404563920100,11.731920166015625,-2.0280725955963135,-0.6493497490882874,0.3170390725135803
1733461404573908200,11.741908203125,-1.986533761024475,-0.6407976150512695,0.3677408695220947
1733461404583939800,11.75193994140625,-1.9394971132278442,-0.5839871764183044,0.3634648323059082
1733461404593927700,11.761927734375,-1.8918496370315552,-0.4960225820541382,0.29993483424186707
1733461404603928800,11.7719287109375,-1.8277088403701782,-0.3744603991508484,0.11972958594560623
1733461404613916400,11.78191650390625,-1.794722080230713,-0.32131510972976685,-0.00366519158706069
1733461404623948500,11.791948486328126,-1.7727309465408325,-0.32986724376678467,-0.11545353382825851
1733461404633905700,11.80190576171875,-1.757459282875061,-0.35552358627319336,-0.192422553896904
1733461404643937500,11.8119375,-1.748907208442688,-0.3891211748123169,-0.2217440903186798
1733461404653925000,11.821925048828126,-1.7342463731765747,-0.4153883755207062,-0.21319197118282318
1733461404663926300,11.83192626953125,-1.7544050216674805,-0.4599815309047699,-0.1918116807937622
1733461404673914000,11.8419140625,-1.814269781112671,-0.5112941861152649,-0.1771509200334549
1733461404683946000,11.851946044921876,-1.901012659072876,-0.5729916095733643,-0.17776179313659668
1733461404693903000,11.861903076171876,-1.9431623220443726,-0.5900958180427551,-0.18631389737129211
1733461404703935000,11.87193505859375,-1.966986060142517,-0.5907067060470581,-0.1966986060142517
1733461404713922600,11.881922607421876,-1.987755537033081,-0.588263213634491,-0.2070833146572113
1733461404723922700,11.891922607421876,-2.0134117603302,-0.5870414972305298,-0.21991148591041565
1733461404733911600,11.90191162109375,-2.052507162094116,-0.5833762884140015,-0.23457226157188416
1733461404743942100,11.911942138671876,-2.0977113246917725,-0.5876523852348328,-0.24129177629947662
1733461404753900800,11.92190087890625,-2.157576084136963,-0.5974262356758118,-0.2321287989616394
1733461404763932400,11.931932373046875,-2.1899518966674805,-0.6224716901779175,-0.20402899384498596
1733461404773920500,11.94192041015625,-2.213164806365967,-0.6597344875335693,-0.16432274878025055
1733461404783921700,11.951921630859376,-2.2119431495666504,-0.6597344875335693,-0.13500121235847473
1733461404793909200,11.9619091796875,-2.1587977409362793,-0.6041457056999207,-0.13011430203914642
1733461404803941000,11.971941162109376,-2.0818288326263428,-0.5308418869972229,-0.13805554807186127
1733461404813898200,11.981898193359376,-1.9987510442733765,-0.47342056035995483,-0.1514945775270462
1733461404823929900,11.991929931640625,-1.881464958190918,-0.3854559659957886,-0.18509216606616974
1733461404833917700,12.001917724609376,-1.814880609512329,-0.31031954288482666,-0.2119702398777008
1733461404843949600,12.011949462890625,-1.7550158500671387,-0.24190263450145721,-0.22968533635139465
1733461404853907000,12.021906982421875,-1.7055357694625854,-0.18020524084568024,-0.24678955972194672
1733461404863938600,12.0319384765625,-1.6670511960983276,-0.15760323405265808,-0.2480112910270691
1733461404873926400,12.041926513671875,-1.6475036144256592,-0.16004669666290283,-0.22540926933288574
1733461404883927600,12.051927490234375,-1.643227458000183,-0.16920967400074005,-0.182648703455925
1733461404893915400,12.061915283203126,-1.6371188163757324,-0.182648703455925,-0.11545353382825851
1733461404903947300,12.071947265625,-1.6291775703430176,-0.20402899384498596,0.02687807008624077
1733461404913904400,12.081904296875,-1.633453607559204,-0.22846360504627228,0.13072516024112701
1733461404923935500,12.091935546875,-1.654223084449768,-0.2877175211906433,0.2321287989616394
1733461404933923800,12.101923828125,-1.671938180923462,-0.3433062732219696,0.3219259977340698
1733461404943924700,12.1119248046875,-1.6884315013885498,-0.39584067463874817,0.38240164518356323
1733461404953913000,12.1219130859375,-1.6963727474212646,-0.4337143301963806,0.4178318381309509
1733461404963944200,12.131944091796875,-1.6811012029647827,-0.4202753007411957,0.4282165467739105
1733461404973902000,12.141902099609375,-1.635897159576416,-0.34025195240974426,0.4434881806373596
1733461404983933400,12.151933349609376,-1.5949691534042358,-0.2626720666885376,0.45875978469848633
1733461404993921800,12.161921875,-1.5387696027755737,-0.15027284622192383,0.4605923891067505
1733461405003922400,12.17192236328125,-1.483791708946228,-0.04581489413976669,0.43799036741256714
1733461405013910500,12.18191064453125,-1.4398094415664673,0.01710422709584236,0.39217549562454224
1733461405023942000,12.19194189453125,-1.4104878902435303,0.05803219974040985,0.32681289315223694
1733461405033899800,12.201899658203125,-1.3909401893615723,0.08002334833145142,0.2571742534637451
1733461405043931000,12.211930908203126,-1.370781660079956,0.07330382615327835,0.1661553531885147
1733461405053919200,12.221919189453125,-1.3530665636062622,0.04642575979232788,0.11545353382825851
1733461405063919900,12.231919921875,-1.3420709371566772,0.04642575979232788,0.06230825558304787
1733461405073908200,12.241908203125,-1.3365731239318848,0.07391469180583954,0.00427605677396059
1733461405083939300,12.251939208984375,-1.33168625831604,0.12461651116609573,-0.05619960278272629
1733461405093927700,12.261927734375,-1.318858027458191,0.17470745742321014,-0.10384709388017654
1733461405103928600,12.271928466796876,-1.2877039909362793,0.2119702398777008,-0.1411098688840866
1733461405113915000,12.281914794921875,-1.2596040964126587,0.2571742534637451,-0.17592918872833252
1733461405123947300,12.291947265625,-1.238223910331726,0.2938261926174164,-0.21013765037059784
1733461405133904600,12.301904541015626,-1.2217304706573486,0.27977627515792847,-0.2064724564552307
1733461405143936000,12.31193603515625,-1.1985175609588623,0.25106561183929443,-0.18081611394882202
1733461405153924000,12.321924072265626,-1.168585181236267,0.2064724564552307,-0.13439035415649414
1733461405163924200,12.33192431640625,-1.120937705039978,0.14844025671482086,-0.07269296050071716
1733461405173913000,12.3419130859375,-0.9676105380058289,0.09040805697441101,-0.00427605677396059
1733461405183944000,12.35194384765625,-0.8704829812049866,0.1466076523065567,0.07757988572120667
1733461405193902300,12.36190234375,-0.8857545852661133,0.16554448008537292,0.18936823308467865
1733461405203933200,12.37193310546875,-0.827111542224884,0.07819075137376785,0.2528982162475586
1733461405213922600,12.381922607421876,-0.7605272531509399,-0.042760565876960754,0.2987131178379059
1733461405223922700,12.391922607421876,-0.7086036801338196,-0.17776179313659668,0.3121521472930908
1733461405233911600,12.40191162109375,-0.6536257863044739,-0.3023782968521118,0.27061331272125244
1733461405243942100,12.411942138671876,-0.6102544069290161,-0.39217549562454224,0.1716531366109848
1733461405253900800,12.42190087890625,-0.5839871764183044,-0.3933972120285034,0.022602014243602753
1733461405263932000,12.431931884765625,-0.5681046843528748,-0.2974913716316223,-0.24007004499435425
1733461405273920300,12.441920166015626,-0.5473352670669556,-0.19303341209888458,-0.3995058834552765
1733461405283921700,12.451921630859376,-0.5125159621238708,-0.0959058403968811,-0.5082398653030396
1733461405293909200,12.4619091796875,-0.4746423065662384,-0.04581489413976669,-0.5277875661849976
1733461405303940900,12.47194091796875,-0.45326200127601624,-0.0659734457731247,-0.4355469346046448
