time,seconds_elapsed,z,y,x
1733461393054220300,0.22222021484375,11.307814598083496,1.5682021379470825,-0.38307225704193115
1733461393063790300,0.231790283203125,10.78348445892334,1.7094600200653076,-0.4668693244457245
1733461393073769700,0.241769775390625,10.230423927307129,1.7860745191574097,-0.4381389021873474
1733461393083779600,0.251779541015625,9.619902610778809,1.8339585065841675,-0.4405331015586853
1733461393093789200,0.2617890625,9.10993766784668,1.9033904075622559,-0.6177040338516235
1733461393103768300,0.271768310546875,8.779537200927734,1.8507179021835327,-0.15322890877723694
1733461393113778000,0.28177783203125,8.813055992126465,1.8914192914962769,-0.21547815203666687
1733461393123787800,0.291787841796875,9.07641887664795,1.8579005002975464,-0.29209262132644653
1733461393133767200,0.30176708984375,9.354146003723145,1.7573440074920654,-0.20111294090747833
1733461393143776800,0.31177685546875,9.586383819580078,1.6519991159439087,-0.19632454216480255
1733461393153786600,0.32178662109375,9.849745750427246,1.6328455209732056,-0.3016694188117981
1733461393163766000,0.33176611328125,9.914389610290527,1.6663644313812256,-0.49320554733276367
1733461393173775600,0.341775634765625,9.823410034179688,1.764526605606079,-0.689530074596405
1733461393183785500,0.351785400390625,9.706093788146973,1.8315643072128296,-0.6153098344802856
1733461393193764600,0.3617646484375,9.196128845214844,1.8100165128707886,-0.6200982332229614
1733461393203774500,0.3717744140625,8.793902397155762,1.8291701078414917,-0.3878606855869293
1733461393213784300,0.381784423828125,8.463502883911133,1.8052281141281128,-0.14604631066322327
1733461393223763500,0.391763427734375,8.451532363891602,1.7812861204147339,-0.12210428714752197
1733461393233773300,0.401773193359375,8.791508674621582,1.7525556087493896,-0.07661445438861847
1733461393243783000,0.411782958984375,9.14345645904541,1.6855180263519287,-0.12689268589019775
1733461393253762300,0.42176220703125,9.404424667358398,1.6208745241165161,-0.19153612852096558
1733461393263772200,0.431772216796875,9.775525093078613,1.5275006294250488,-0.24181437492370605
1733461393273781800,0.44178173828125,10.014945983886719,1.4987702369689941,-0.2585737705230713
1733461393283761200,0.45176123046875,10.041281700134277,1.5131354331970215,-0.4165911078453064
1733461393293771000,0.46177099609375,10.105925559997559,1.50355863571167,-0.3687070608139038
1733461393303780600,0.471780517578125,10.098742485046387,1.4963760375976562,-0.2537853717803955
1733461393313760000,0.481760009765625,10.079588890075684,1.482010841369629,-0.2082955539226532
1733461393323769600,0.49176953125,9.852140426635742,1.534683346748352,-0.2944868206977844
1733461393333779200,0.501779296875,9.703699111938477,1.558625340461731,-0.21308395266532898
1733461393343789000,0.5117890625,9.763554573059082,1.4939818382263184,-0.15801730751991272
1733461393353768400,0.5217685546875,9.940725326538086,1.434126853942871,-0.10055647045373917
1733461393363778000,0.531778076171875,10.02691650390625,1.434126853942871,-0.19632454216480255
1733461393373788000,0.541787841796875,9.974244117736816,1.4413094520568848,-0.2561795711517334
1733461393383767300,0.551767333984375,9.86889934539795,1.4413094520568848,-0.19871874153614044
1733461393393777200,0.561777099609375,9.691728591918945,1.4987702369689941,-0.2801215946674347
1733461393403786800,0.571786865234375,9.627084732055664,1.534683346748352,-0.29209262132644653
1733461393413766000,0.581765869140625,9.639056205749512,1.5682021379470825,-0.28730419278144836
1733461393423775700,0.591775634765625,9.583989143371582,1.5849615335464478,-0.2825157940387726
1733461393433785300,0.601785400390625,9.502586364746094,1.5969325304031372,-0.3280056416988373
1733461393443764700,0.6117646484375,9.591172218322754,1.601720929145813,-0.3711012601852417
1733461393453774600,0.621774658203125,9.742006301879883,1.558625340461731,-0.3663128614425659
1733461393463784200,0.6317841796875,9.806650161743164,1.4867992401123047,-0.2849099934101105
1733461393473763600,0.641763671875,9.816226959228516,1.4891934394836426,-0.28969839215278625
1733461393483773400,0.6517734375,9.854534149169922,1.4484920501708984,-0.3280056416988373
1733461393493783000,0.661782958984375,9.931148529052734,1.45806884765625,-0.304063618183136
1733461393503762200,0.67176220703125,9.928754806518555,1.4844050407409668,-0.395043283700943
1733461393513772000,0.68177197265625,9.864110946655273,1.50355863571167,-0.42616790533065796
1733461393523781600,0.69178173828125,9.66299819946289,1.53707754611969,-0.38546648621559143
1733461393533761000,0.701760986328125,9.490615844726562,1.5490485429763794,-0.3016694188117981
1733461393543771000,0.71177099609375,9.41400146484375,1.5490485429763794,-0.2346317619085312
1733461393553780500,0.721780517578125,9.435548782348633,1.5059528350830078,-0.2322375625371933
1733461393563759900,0.731759765625,9.557653427124023,1.4939818382263184,-0.3208230137825012
1733461393573769700,0.741769775390625,9.80904483795166,1.5059528350830078,-0.3711012601852417
1733461393583779600,0.751779541015625,9.945513725280762,1.5131354331970215,-0.4213795065879822
1733461393593789200,0.7617890625,9.986215591430664,1.5442601442337036,-0.44771572947502136
1733461393603768300,0.771768310546875,9.909601211547852,1.5083470344543457,-0.45250412821769714
1733461393613778000,0.78177783203125,9.701305389404297,1.5969325304031372,-0.45489832758903503
1733461393623787800,0.791787841796875,9.576807022094727,1.6112977266311646,-0.4596867263317108
1733461393633767200,0.80176708984375,9.5408935546875,1.5945383310317993,-0.44771572947502136
1733461393643776800,0.81177685546875,9.5408935546875,1.558625340461731,-0.38546648621559143
1733461393653786600,0.82178662109375,9.435548782348633,1.5322890281677246,-0.4668693244457245
1733461393663766000,0.83176611328125,9.354146003723145,1.556231141090393,-0.6344634294509888
1733461393673775600,0.841775634765625,9.375694274902344,1.5634137392044067,-0.6991068720817566
1733461393683785500,0.851785400390625,9.47146224975586,1.4676456451416016,-0.5937620401382446
1733461393693764600,0.8617646484375,9.526528358459473,1.3623007535934448,-0.47884035110473633
1733461393703774500,0.8717744140625,9.514557838439941,1.3239935636520386,-0.4429273009300232
1733461393713784300,0.881784423828125,9.495404243469238,1.3311761617660522,-0.35913026332855225
1733461393723763500,0.891763427734375,9.545681953430176,1.3455413579940796,-0.19632454216480255
1733461393733773300,0.901773193359375,9.555258750915527,1.4101848602294922,-0.019153613597154617
1733461393743783000,0.911782958984375,9.488221168518066,1.482010841369629,0.12210428714752197
1733461393753762300,0.92176220703125,9.366117477416992,1.5634137392044067,0.26815059781074524
1733461393763772200,0.931772216796875,9.14585018157959,1.647210717201233,0.26815059781074524
1733461393773781800,0.94178173828125,8.810662269592285,1.6543933153152466,0.20111294090747833
1733461393783761200,0.95176123046875,8.578424453735352,1.6352397203445435,0.2944868206977844
1733461393793771000,0.96177099609375,8.24084186553955,1.6352397203445435,0.19871874153614044
1733461393803780600,0.971780517578125,8.032546997070312,1.6903064250946045,0.05985504388809204
1733461393813760000,0.981760009765625,8.032546997070312,1.6112977266311646,0.009576806798577309
1733461393823769600,0.99176953125,8.446743965148926,1.4844050407409668,0.31124621629714966
1733461393833779200,1.001779296875,9.014169692993164,1.3479355573654175,0.7038952708244324
1733461393843789000,1.0117890625,9.531316757202148,1.4437036514282227,0.7350199222564697
1733461393853768400,1.0217685546875,9.911994934082031,1.7860745191574097,0.24660277366638184
1733461393863778300,1.0317783203125,10.247182846069336,2.212242364883423,-0.3471592366695404
1733461393873788000,1.041787841796875,10.723628997802734,2.477998733520508,-0.6943184733390808
1733461393883767300,1.051767333984375,11.065999984741211,2.6168625354766846,-0.790086567401886
1733461393893777200,1.061777099609375,11.267112731933594,2.676717519760132,-0.768538773059845
1733461393903786800,1.071786865234375,11.365275382995605,2.782062292098999,-0.6943184733390808
1733461393913766000,1.081765869140625,11.532869338989258,2.846705913543701,-0.6440402865409851
1733461393923775700,1.091775634765625,11.73398208618164,2.82515811920166,-0.6224924325942993
1733461393933785300,1.101785400390625,11.894393920898438,2.8778305053710938,-0.4668693244457245
1733461393943764700,1.1117646484375,11.987768173217773,2.808398485183716,-0.35913026332855225
1733461393953774600,1.121774658203125,11.91354751586914,2.7461493015289307,-0.24420857429504395
1733461393963784200,1.1317841796875,11.532869338989258,2.58813214302063,-0.181959331035614
1733461393973763600,1.141763671875,11.097125053405762,2.5115175247192383,0.011971008032560349
1733461393983773400,1.1517734375,10.407594680786133,2.427720546722412,0.2059013396501541
1733461393993783000,1.161782958984375,9.648633003234863,2.3582887649536133,0.35673606395721436
1733461394003762200,1.17176220703125,9.081207275390625,2.2385785579681396,0.5363011956214905
1733461394013772000,1.18177197265625,8.504204750061035,2.1045033931732178,0.6943184733390808
1733461394023781600,1.19178173828125,8.051700592041016,2.322375535964966,0.29209262132644653
1733461394033761000,1.201760986328125,7.692570209503174,2.126051187515259,0.6943184733390808
1733461394043771000,1.21177099609375,7.5201873779296875,2.0805611610412598,0.8786720037460327
1733461394053780500,1.221780517578125,7.352593421936035,2.0925323963165283,0.9385270476341248
1733461394063760000,1.231759765625,7.326257228851318,2.099714994430542,1.070208191871643
1733461394073769700,1.241769775390625,7.501033782958984,2.03507137298584,1.1324573755264282
1733461394083779600,1.251779541015625,7.845798969268799,2.030282974243164,1.2282254695892334
1733461394093789200,1.2617890625,8.26239013671875,2.078166961669922,1.2545616626739502
1733461394103768300,1.271768310546875,8.65982723236084,2.164358377456665,1.1324573755264282
1733461394113778000,1.28177783203125,8.93037223815918,2.319981336593628,0.9193734526634216
1733461394123787800,1.291787841796875,9.136273384094238,2.4444799423217773,0.6272808313369751
1733461394133767200,1.30176708984375,9.301473617553711,2.564189910888672,0.38307225704193115
1733461394143776800,1.31177685546875,9.457097053527832,2.647987127304077,0.2753331959247589
1733461394153786600,1.32178662109375,9.636661529541016,2.6671407222747803,0.22266076505184174
1733461394163766000,1.33176611328125,9.876082420349121,2.691082715988159,0.18914192914962769
1733461394173775600,1.341775634765625,10.014945983886719,2.7724854946136475,0.0694318488240242
1733461394183785500,1.351785400390625,10.204087257385254,2.8131868839263916,-0.05506663769483566
1733461394193764900,1.361764892578125,10.38604736328125,2.7317841053009033,-0.07661445438861847
1733461394203774500,1.3717744140625,10.587160110473633,2.609679937362671,-0.16519992053508759
1733461394213784300,1.381784423828125,10.752359390258789,2.5234885215759277,-0.33758243918418884
1733461394223763500,1.391763427734375,10.912771224975586,2.5450363159179688,-0.5770025849342346
1733461394233773300,1.401773193359375,11.042057991027832,2.674323320388794,-0.8331822156906128
1733461394243783000,1.411782958984375,11.027692794799805,2.7724854946136475,-0.8331822156906128
1733461394253762300,1.42176220703125,10.685321807861328,2.9161376953125,-0.7015010714530945
1733461394263772200,1.431772216796875,10.079588890075684,3.0813376903533936,-0.6224924325942993
1733461394273781800,1.44178173828125,9.44991397857666,3.227383852005005,-0.5171475410461426
1733461394283761200,1.45176123046875,8.956708908081055,3.318363666534424,-0.5123591423034668
1733461394293771000,1.46177099609375,8.65982723236084,3.378218650817871,-0.5482721924781799
1733461394303780600,1.471780517578125,8.643068313598633,3.3638534545898438,-0.45010992884635925
1733461394313760000,1.481760009765625,8.889671325683594,3.294421434402466,-0.26815059781074524
1733461394323769600,1.49176953125,9.272743225097656,3.294421434402466,-0.22026655077934265
1733461394333779200,1.501779296875,9.617507934570312,3.3303346633911133,-0.2513911724090576
1733461394343789000,1.5117890625,9.952696800231934,3.406949043273926,-0.28969839215278625
1733461394353768400,1.5217685546875,10.223240852355957,3.4572272300720215,-0.3423708379268646
1733461394363778000,1.531778076171875,10.457873344421387,3.488351821899414,-0.26815059781074524
1733461394373788000,1.541787841796875,10.591948509216309,3.469198226928711,-0.08140286058187485
1733461394383767300,1.551767333984375,10.6709566116333,3.4787750244140625,0.08858546614646912
1733461394393777200,1.561777099609375,10.788272857666016,3.531447410583496,0.15322890877723694
1733461394403786800,1.571786865234375,10.836156845092773,3.7181951999664307,-0.026336219161748886
1733461394413766000,1.581765869140625,10.903194427490234,3.734954595565796,-0.35434186458587646
1733461394423775700,1.591775634765625,11.133037567138672,3.404554843902588,-0.002394201699644327
1733461394433785300,1.601785400390625,11.350910186767578,3.2632968425750732,0.26096799969673157
1733461394443764700,1.6117646484375,11.54244613647461,3.0190882682800293,0.38546648621559143
1733461394453774600,1.621774658203125,11.911153793334961,2.6431987285614014,0.5195417404174805
1733461394463784200,1.6317841796875,12.358869552612305,2.250549554824829,0.45489832758903503
1733461394473763600,1.641763671875,12.978967666625977,1.8052281141281128,0.09816227108240128
1733461394483773400,1.6517734375,13.567940711975098,1.5394717454910278,-0.38067805767059326
1733461394493783000,1.661782958984375,14.049175262451172,1.0462661981582642,-0.9552865028381348
1733461394503762200,1.67176220703125,14.460978507995605,0.4620809257030487,-1.280897855758667
1733461394513772000,1.68177197265625,14.784195899963379,-0.021547814831137657,-1.1659762859344482
1733461394523781600,1.69178173828125,14.856021881103516,-0.7709329724311829,-0.6631938815116882
1733461394533761500,1.701761474609375,14.324508666992188,-1.259350061416626,-0.035913024097681046
1733461394543771000,1.71177099609375,12.725181579589844,-1.1468225717544556,-0.4812345504760742
1733461394553780500,1.721780517578125,11.049241065979004,-0.45250412821769714,-1.843535304069519
1733461394563759900,1.731759765625,9.830592155456543,0.13168109953403473,-2.5330653190612793
1733461394573769700,1.741769775390625,9.184157371520996,0.3926490843296051,-2.7676970958709717
1733461394583779600,1.751779541015625,8.489839553833008,0.5554547905921936,-2.647987127304077
1733461394593789200,1.7617890625,7.8314337730407715,0.5961562395095825,-2.43011474609375
1733461394603768300,1.771768310546875,7.287950038909912,0.5051765441894531,-2.2242133617401123
1733461394613778000,1.78177783203125,6.773196697235107,0.4165911078453064,-2.070984363555908
1733461394623787800,1.791787841796875,6.375759124755859,0.45250412821769714,-1.8579005002975464
1733461394633767200,1.80176708984375,5.978321552276611,0.49799394607543945,-1.4772224426269531
1733461394643776800,1.81177685546875,5.501875400543213,0.6488286852836609,-1.048660397529602
1733461394653786600,1.82178662109375,5.109226226806641,0.9433154463768005,-0.4692635238170624
1733461394663766000,1.83176611328125,4.836287498474121,1.2114660739898682,-0.2082955539226532
1733461394673775600,1.841775634765625,4.78122091293335,1.5131354331970215,-0.090979665517807
1733461394683785500,1.851785400390625,5.116408824920654,1.7166426181793213,-0.22266076505184174
1733461394693764900,1.861764892578125,6.224924564361572,1.7956513166427612,-0.47884035110473633
1733461394703774500,1.8717744140625,7.407660007476807,1.8387469053268433,-0.5410895943641663
1733461394713784300,1.881784423828125,8.38449478149414,1.7405846118927002,-0.44771572947502136
1733461394723763500,1.891763427734375,8.729259490966797,1.9776105880737305,-0.6584054827690125
1733461394733773300,1.901773193359375,8.858546257019043,1.9608511924743652,-0.43335050344467163
1733461394743783000,1.911782958984375,8.765172004699707,1.9488801956176758,-0.05267243832349777
1733461394753762300,1.92176220703125,8.700529098510742,1.9393033981323242,0.19393034279346466
1733461394763772200,1.931772216796875,8.506598472595215,1.9393033981323242,0.3471592366695404
1733461394773781800,1.94178173828125,8.17141056060791,2.1571757793426514,-0.023942016065120697
1733461394783761200,1.95176123046875,8.01339340209961,2.580949544906616,-0.6512228846549988
1733461394793771000,1.96177099609375,8.1139497756958,2.784456491470337,-0.9576807022094727
1733461394803780600,1.971780517578125,8.271966934204102,2.8347349166870117,-1.213860273361206
1733461394813760000,1.981760009765625,8.540117263793945,2.920926094055176,-1.0893617868423462
1733461394823769600,1.99176953125,8.777143478393555,2.6431987285614014,-0.828393816947937
1733461394833779200,2.001779296875,8.719682693481445,2.5905263423919678,-0.6847416758537292
1733461394843789000,2.0117890625,8.463502883911133,2.580949544906616,-0.7445967197418213
1733461394853768400,2.0217685546875,8.429984092712402,2.564189910888672,-0.7445967197418213
1733461394863778000,2.031778076171875,8.422801971435547,2.4827871322631836,-0.6631938815116882
1733461394873788000,2.041787841796875,8.434772491455078,2.387019157409668,-0.6272808313369751
1733461394883767300,2.051767333984375,8.616731643676758,2.3558945655822754,-0.7110779285430908
1733461394893777200,2.061777099609375,8.983044624328613,2.3487119674682617,-0.8020575642585754
1733461394903786800,2.071786865234375,9.344569206237793,2.3726539611816406,-0.8882488012313843
1733461394913766000,2.081765869140625,9.708487510681152,2.3726539611816406,-0.8259995579719543
1733461394923775700,2.091775634765625,9.947908401489258,2.5067291259765625,-0.7996633648872375
1733461394933785300,2.101785400390625,10.163386344909668,2.868253707885742,-1.0247182846069336
1733461394943764700,2.1117646484375,10.350133895874023,2.985569477081299,-0.8044517636299133
1733461394953774600,2.121774658203125,10.247182846069336,3.2082302570343018,-0.7876923680305481
1733461394963784200,2.1317841796875,9.926360130310059,3.6080620288848877,-0.912190854549408
1733461394973763600,2.141763671875,9.5624418258667,3.8283286094665527,-0.8571242094039917
1733461394983773400,2.1517734375,9.459490776062012,3.7158010005950928,-0.5650315880775452
1733461394993783000,2.161782958984375,9.672574996948242,3.5386300086975098,-0.22266076505184174
1733461395003762200,2.17176220703125,9.955090522766113,3.3518824577331543,-0.031124621629714966
1733461395013772000,2.18177197265625,10.383652687072754,3.050212860107422,-0.2346317619085312
1733461395023781600,2.19178173828125,11.204863548278809,2.82515811920166,-0.5841852426528931
1733461395033761000,2.201760986328125,12.167332649230957,2.8778305053710938,-0.950498104095459
1733461395043771000,2.21177099609375,13.357251167297363,3.0334534645080566,-0.9816226959228516
1733461395053780500,2.221780517578125,14.338873863220215,3.093308687210083,-0.6153098344802856
1733461395063760000,2.231759765625,15.093047142028809,3.0621838569641113,-0.09576806426048279
1733461395073769700,2.241769775390625,15.263035774230957,3.0142998695373535,0.4189853072166443
1733461395083779600,2.251779541015625,14.693215370178223,2.9448680877685547,0.8978256583213806
1733461395093789200,2.2617890625,13.579912185668945,2.734178304672241,1.3215993642807007
1733461395103768300,2.271768310546875,12.63899040222168,2.365471363067627,1.4748282432556152
1733461395113778000,2.28177783203125,12.22000503540039,1.6687586307525635,1.2234370708465576
1733461395123787800,2.291787841796875,12.452242851257324,0.9528923034667969,0.5386953949928284
1733461395133767200,2.30176708984375,13.431471824645996,0.30885201692581177,-0.11252748221158981
1733461395143777000,2.311777099609375,14.298172950744629,-0.033518824726343155,-0.5626373887062073
1733461395153786600,2.32178662109375,14.731523513793945,-0.3471592366695404,-0.33997663855552673
1733461395163766000,2.33176611328125,14.0635404586792,-0.3711012601852417,-0.8882488012313843
1733461395173776000,2.34177587890625,12.509703636169434,-0.2082955539226532,-1.0342950820922852
1733461395183785500,2.351785400390625,10.826580047607422,-0.002394201699644327,-0.38067805767059326
1733461395193764900,2.361764892578125,8.779537200927734,0.10055647045373917,0.2944868206977844
1733461395203774500,2.3717744140625,7.158663272857666,0.2825157940387726,0.7158663272857666
1733461395213784300,2.381784423828125,6.172252178192139,0.4381389021873474,1.0678139925003052
1733461395223763500,2.391763427734375,4.776432514190674,1.0654197931289673,0.2082955539226532
1733461395233773300,2.401773193359375,3.976768970489502,1.2114660739898682,-0.047884032130241394
1733461395243783000,2.411782958984375,3.931279182434082,1.2186486721038818,0.1173158809542656
1733461395253762300,2.42176220703125,4.836287498474121,0.8020575642585754,0.7134721279144287
1733461395263772200,2.431772216796875,5.983109951019287,0.2801215946674347,1.656787633895874
1733461395273781800,2.44178173828125,6.5912370681762695,0.1173158809542656,2.207453966140747
1733461395283761200,2.45176123046875,6.947973251342773,-0.19393034279346466,2.564189910888672
1733461395293771000,2.46177099609375,7.3693528175354,-0.0454898327589035,2.3942017555236816
1733461395303780600,2.471780517578125,7.666234016418457,0.7493851184844971,1.0462661981582642
1733461395313759700,2.481759765625,8.291120529174805,1.4915876388549805,0.1149216815829277
1733461395323769600,2.49176953125,8.578424453735352,1.9321208000183105,-0.31842881441116333
1733461395333779500,2.501779541015625,8.525752067565918,2.274491548538208,-0.4429273009300232
1733461395343789000,2.5117890625,7.987056732177734,2.58813214302063,-0.4836287498474121
1733461395353768400,2.5217685546875,7.074865818023682,2.849100112915039,-0.507570743560791
1733461395363778000,2.531778076171875,6.358999729156494,2.9664158821105957,-0.569819986820221
1733461395373788000,2.541787841796875,5.822698593139648,3.0310592651367188,-0.7350199222564697
1733461395383767300,2.551767333984375,5.980715751647949,3.0334534645080566,-0.7374141216278076
1733461395393777000,2.56177685546875,6.653486728668213,2.832340717315674,-0.768538773059845
1733461395403786800,2.571786865234375,7.4316020011901855,2.7126305103302,-0.9241618514060974
1733461395413766000,2.581765869140625,8.42040729522705,2.5474305152893066,-1.0127472877502441
1733461395423775500,2.591775390625,9.437943458557129,2.3582887649536133,-0.7996633648872375
1733461395433785300,2.601785400390625,10.08198356628418,2.276885747909546,-0.31842881441116333
1733461395443764700,2.6117646484375,10.345345497131348,2.1739351749420166,-0.5985504388809204
1733461395453774600,2.621774658203125,10.347740173339844,2.2625205516815186,-0.4381389021873474
1733461395463784200,2.6317841796875,10.254365921020508,2.1954829692840576,-0.16998831927776337
1733461395473763600,2.641763671875,10.218452453613281,2.2146365642547607,0.004788403399288654
1733461395483773400,2.6517734375,10.199298858642578,2.293645143508911,0.0454898327589035
1733461395493783000,2.661782958984375,10.211270332336426,2.343923568725586,0.0933738648891449
1733461395503762200,2.67176220703125,10.376470565795898,2.3750481605529785,0.21787235140800476
1733461395513772000,2.68177197265625,10.457873344421387,2.4684219360351562,0.19632454216480255
1733461395523781600,2.69178173828125,10.599130630493164,2.6240451335906982,0.1628057211637497
1733461395533761000,2.701760986328125,10.766724586486816,2.7437551021575928,0.08379705995321274
1733461395543771000,2.71177099609375,10.781089782714844,2.9041666984558105,0.031124621629714966
1733461395553780500,2.721780517578125,10.575188636779785,3.1292216777801514,-0.033518824726343155
1733461395563759900,2.731759765625,10.273519515991211,3.3016040325164795,-0.09816227108240128
1733461395573769700,2.741769775390625,9.888052940368652,3.3039982318878174,-0.002394201699644327
1733461395583779300,2.751779296875,9.727641105651855,3.2369606494903564,0.31603461503982544
1733461395593789200,2.7617890625,10.129867553710938,3.1316158771514893,0.7374141216278076
1733461395603768300,2.771768310546875,10.790667533874512,2.873042106628418,0.7445967197418213
1733461395613778000,2.78177783203125,12.224793434143066,2.7030537128448486,0.40701428055763245
1733461395623787800,2.791787841796875,13.75468921661377,2.7485435009002686,0.031124621629714966
1733461395633767200,2.80176708984375,15.217546463012695,2.8802247047424316,-0.4884171485900879
1733461395643776800,2.81177685546875,15.782577514648438,3.1220390796661377,-1.338358759880066
1733461395653786600,2.82178662109375,15.368380546569824,3.205836057662964,-2.1475989818573
1733461395663766000,2.83176611328125,14.214375495910645,2.8634653091430664,-2.7772738933563232
1733461395673775600,2.841775634765625,13.366827964782715,2.169146776199341,-2.9879636764526367
1733461395683785500,2.851785400390625,13.278243064880371,1.4269442558288574,-3.31118106842041
1733461395693764900,2.861764892578125,13.802573204040527,0.7996633648872375,-3.6798880100250244
1733461395703774500,2.8717744140625,14.659696578979492,0.14365209639072418,-3.4620156288146973
1733461395713784300,2.881784423828125,14.767436027526855,-0.1843535304069519,-3.1507694721221924
1733461395723763500,2.891763427734375,13.7666597366333,-0.43335050344467163,-2.734178304672241
1733461395733773300,2.901773193359375,12.033257484436035,-0.30885201692581177,-2.6647465229034424
1733461395743783000,2.911782958984375,9.648633003234863,-0.12928688526153564,-3.141192674636841
1733461395753762300,2.92176220703125,7.376535415649414,-0.13407529890537262,-2.7724854946136475
1733461395763772200,2.931772216796875,6.007051944732666,0.19632454216480255,-3.756502389907837
1733461395773781800,2.94178173828125,5.078101634979248,0.49559974670410156,-4.10366153717041
1733461395783761200,2.95176123046875,4.326322555541992,0.4620809257030487,-3.6750996112823486
1733461395793771000,2.96177099609375,3.7876269817352295,0.3232172429561615,-2.978386878967285
1733461395803780600,2.971780517578125,3.883395195007324,0.17956513166427612,-2.3032219409942627
1733461395813760000,2.981760009765625,4.4292731285095215,0.545877993106842,-2.293645143508911
1733461395823769600,2.99176953125,5.959167957305908,0.5339069962501526,-1.015141487121582
1733461395833779200,3.001779296875,6.7061591148376465,0.48602294921875,-0.5027823448181152
1733461395843789000,3.0117890625,7.110779285430908,0.9026140570640564,-0.9481038451194763
1733461395853768400,3.0217685546875,7.304709434509277,1.5753847360610962,-1.889025092124939
1733461395863778000,3.031778076171875,7.572859764099121,2.056619167327881,-2.322375535964966
1733461395873788000,3.041787841796875,7.671022415161133,2.1595699787139893,-2.2146365642547607
1733461395883767300,3.051767333984375,7.773972988128662,2.3247697353363037,-1.9632453918457031
1733461395893777200,3.061777099609375,7.953537940979004,2.494758129119873,-1.8602946996688843
1733461395903786800,3.071786865234375,8.233659744262695,2.537853717803955,-1.400607943534851
1733461395913766000,3.081765869140625,8.269572257995605,2.5953147411346436,-0.8188169598579407
1733461395923775700,3.091775634765625,7.793126583099365,2.734178304672241,-0.5171475410461426
1733461395933785300,3.101785400390625,7.357381820678711,2.8227639198303223,-0.05985504388809204
1733461395943764700,3.1117646484375,7.029376029968262,2.8395233154296875,0.2585737705230713
1733461395953774600,3.121774658203125,6.9695210456848145,2.8610711097717285,0.09816227108240128
1733461395963784200,3.1317841796875,7.254431247711182,3.49314022064209,-0.3974374830722809
1733461395973763600,3.141763671875,7.931990146636963,3.227383852005005,-0.524330198764801
1733461395983773400,3.1517734375,8.367734909057617,3.0813376903533936,-0.38307225704193115
1733461395993783000,3.161782958984375,8.959102630615234,3.117250680923462,-0.5554547905921936
1733461396003762200,3.17176220703125,9.509769439697266,3.098097085952759,-0.6727706789970398
1733461396013772000,3.18177197265625,9.799467086791992,2.96162748336792,-0.7182605266571045
1733461396023781600,3.19178173828125,9.986215591430664,3.00711727142334,-0.8307880163192749
1733461396033761000,3.201760986328125,10.24239444732666,3.0190882682800293,-0.8475474119186401
1733461396043771000,3.21177099609375,10.280701637268066,3.0310592651367188,-0.790086567401886
1733461396053780500,3.221780517578125,10.1753568649292,3.1076738834381104,-0.7781155705451965
1733461396063760000,3.231759765625,9.995792388916016,3.2321722507476807,-0.7493851184844971
1733461396073769700,3.241769775390625,9.734824180603027,3.3638534545898438,-0.7781155705451965
1733461396083779600,3.251779541015625,9.627084732055664,3.5242648124694824,-0.9768342971801758
1733461396093789200,3.2617890625,9.75637149810791,3.423708438873291,-0.9528923034667969
1733461396103768300,3.271768310546875,10.160991668701172,2.999934673309326,-0.5913678407669067
1733461396113778200,3.281778076171875,10.668562889099121,2.6144683361053467,-0.5051765441894531
1733461396123787800,3.291787841796875,11.69806957244873,2.2816741466522217,-0.4141969084739685
1733461396133767200,3.30176708984375,12.54561710357666,2.0877439975738525,-0.3256114423274994
1733461396143777000,3.311777099609375,13.33570384979248,2.2170307636260986,-0.4141969084739685
1733461396153786600,3.32178662109375,13.771448135375977,2.5019407272338867,-0.43335050344467163
1733461396163766000,3.33176611328125,13.919888496398926,2.8107926845550537,-0.42856210470199585
1733461396173776000,3.34177587890625,13.833697319030762,2.935291290283203,-0.2585737705230713
1733461396183785500,3.351785400390625,13.295001983642578,2.8443117141723633,-0.23702596127986908
1733461396193764900,3.361764892578125,12.655750274658203,2.408566951751709,0.038307227194309235
1733461396203774500,3.3717744140625,12.418724060058594,2.0015525817871094,0.10534487664699554
1733461396213784300,3.381784423828125,12.686874389648438,1.3742717504501343,0.2298433631658554
1733461396223763500,3.391763427734375,13.151350021362305,0.8643068075180054,0.49320554733276367
1733461396233773300,3.401773193359375,13.548787117004395,0.42377370595932007,0.6727706789970398
1733461396243783000,3.411782958984375,13.39555835723877,0.18914192914962769,0.8188169598579407
1733461396253762300,3.42176220703125,12.411541938781738,0.2777273952960968,0.7015010714530945
1733461396263772200,3.431772216796875,11.044452667236328,0.47165772318840027,0.5674257874488831
1733461396273781800,3.44178173828125,9.198522567749023,0.790086567401886,0.20111294090747833
1733461396283761200,3.45176123046875,8.169015884399414,1.158793568611145,-0.040701430290937424
1733461396293771000,3.46177099609375,6.854599475860596,1.1659762859344482,-0.20350714027881622
1733461396303780600,3.471780517578125,5.834669589996338,1.280897855758667,-0.13168109953403473
1733461396313759700,3.481759765625,5.5976433753967285,1.194706678390503,-0.016759412363171577
1733461396323769600,3.49176953125,5.722142219543457,0.7445967197418213,0.3878606855869293
1733461396333779500,3.501779541015625,6.016628742218018,0.31364041566848755,0.7852981686592102
1733461396343789000,3.5117890625,6.588842868804932,-0.11971008777618408,1.2234370708465576
1733461396353768400,3.5217685546875,7.208941459655762,-0.4596867263317108,1.5107412338256836
1733461396363778000,3.531778076171875,7.862558364868164,-0.6919242739677429,1.5490485429763794
1733461396373788000,3.541787841796875,8.662221908569336,-0.8236053586006165,1.6041151285171509
1733461396383767300,3.551767333984375,9.062053680419922,-0.3232172429561615,0.5770025849342346
1733461396393777000,3.56177685546875,9.718064308166504,0.3926490843296051,-0.7733271718025208
1733461396403786800,3.571786865234375,10.194510459899902,0.6631938815116882,-0.8331822156906128
1733461396413766000,3.581765869140625,9.682151794433594,1.3886369466781616,-1.4844050407409668
1733461396423775500,3.591775390625,8.686163902282715,1.9488801956176758,-1.821987509727478
1733461396433785300,3.601785400390625,7.481880187988281,2.4229321479797363,-2.006340980529785
1733461396443764700,3.6117646484375,6.8162922859191895,2.7054479122161865,-1.9393033981323242
1733461396453774600,3.621774658203125,6.5696892738342285,2.8850131034851074,-1.7549498081207275
1733461396463784200,3.6317841796875,6.651092529296875,2.985569477081299,-1.6687586307525635
1733461396473763600,3.641763671875,7.041347026824951,3.0190882682800293,-1.5921441316604614
1733461396483773400,3.6517734375,7.474697589874268,2.956839084625244,-1.556231141090393
1733461396493783000,3.661782958984375,8.085219383239746,2.8826189041137695,-1.41257905960083
1733461396503762200,3.67176220703125,8.645462036132812,2.782062292098999,-1.0606313943862915
1733461396513772000,3.68177197265625,9.097966194152832,2.5953147411346436,-0.6919242739677429
1733461396523781600,3.69178173828125,9.294290542602539,2.477998733520508,-0.3232172429561615
1733461396533761000,3.701760986328125,9.363722801208496,2.4205379486083984,-0.06464344263076782
1733461396543771000,3.71177099609375,9.397241592407227,2.4636335372924805,-0.1628057211637497
1733461396553780500,3.721780517578125,9.603142738342285,2.6144683361053467,-0.395043283700943
1733461396563759900,3.731759765625,10.091560363769531,2.8179752826690674,-0.7733271718025208
1733461396573769700,3.741769775390625,10.448296546936035,2.978386878967285,-0.993593692779541
1733461396583779300,3.751779296875,10.714052200317383,3.0813376903533936,-1.256955862045288
1733461396593789200,3.7617890625,10.893617630004883,3.1723172664642334,-1.3910311460494995
1733461396603768300,3.771768310546875,11.027692794799805,3.3255462646484375,-1.501164436340332
1733461396613778200,3.781778076171875,11.118672370910645,3.270479440689087,-1.0965443849563599
1733461396623787800,3.791787841796875,10.939107894897461,3.220201253890991,-0.9169792532920837
1733461396633767200,3.80176708984375,10.599130630493164,3.1292216777801514,-0.7757213711738586
1733461396643776800,3.81177685546875,10.45547866821289,2.9161376953125,-0.5291185975074768
1733461396653786600,3.82178662109375,10.723628997802734,2.63362193107605,-0.19871874153614044
1733461396663766000,3.83176611328125,11.291055679321289,2.456450939178467,-0.29209262132644653
1733461396673775600,3.841775634765625,12.39957046508789,2.5306711196899414,-0.7829039692878723
1733461396683785500,3.851785400390625,13.725957870483398,2.7246015071868896,-1.094150185585022
1733461396693764900,3.861764892578125,14.932636260986328,3.1483752727508545,-1.3982137441635132
1733461396703774500,3.8717744140625,15.167267799377441,3.5410242080688477,-1.7118542194366455
1733461396713784300,3.881784423828125,14.425065040588379,3.7828385829925537,-2.070984363555908
1733461396723763500,3.891763427734375,12.753912925720215,3.598485231399536,-2.4444799423217773
1733461396733773300,3.901773193359375,10.99656867980957,3.315969467163086,-3.1699230670928955
1733461396743783000,3.911782958984375,10.991780281066895,3.0861260890960693,-4.393360137939453
1733461396753762300,3.92176220703125,12.646173477172852,2.0398597717285156,-3.9384617805480957
1733461396763772200,3.931772216796875,14.822503089904785,0.8331822156906128,-2.9759926795959473
1733461396773781800,3.94178173828125,15.24867057800293,-0.090979665517807,-2.013523578643799
1733461396783761200,3.95176123046875,13.93664836883545,-0.9552865028381348,-0.8954314589500427
1733461396793771000,3.96177099609375,12.064382553100586,-1.2545616626739502,-0.4668693244457245
1733461396803780600,3.971780517578125,9.679757118225098,-1.0055646896362305,-0.8523358106613159
1733461396813760000,3.981760009765625,7.580042362213135,-0.2968810200691223,-2.094926595687866
1733461396823769600,3.99176953125,5.793968200683594,0.15562310814857483,-2.853888511657715
1733461396833779200,4.001779296875,4.726154327392578,0.21547815203666687,-2.674323320388794
1733461396843789000,4.0117890625,4.412513732910156,0.629675030708313,-3.1890766620635986
1733461396853768400,4.0217685546875,3.914519786834717,0.9528923034667969,-3.1507694721221924
1733461396863778000,4.031778076171875,3.7397429943084717,1.05105459690094,-2.875436305999756
1733461396873788000,4.041787841796875,4.180276393890381,0.9481038451194763,-2.2361843585968018
1733461396883767300,4.051767333984375,4.759673118591309,0.7110779285430908,-1.3718775510787964
1733461396893777200,4.061777099609375,5.5976433753967285,0.5889736413955688,-0.5793967843055725
1733461396903786800,4.071786865234375,6.653486728668213,0.646434485912323,-0.3280056416988373
1733461396913766000,4.081765869140625,7.979874134063721,0.8547300100326538,-0.4189853072166443
1733461396923775700,4.091775634765625,8.774748802185059,1.192312479019165,-0.6153098344802856
1733461396933785300,4.101785400390625,8.923190116882324,1.6376339197158813,-0.8427590131759644
1733461396943764700,4.1117646484375,8.552088737487793,1.9584569931030273,-0.9313444495201111
1733461396953774600,4.121774658203125,8.054094314575195,2.3367409706115723,-1.0869675874710083
1733461396963784200,4.1317841796875,7.553706169128418,2.6192567348480225,-0.9959878921508789
1733461396973763600,4.141763671875,7.268796443939209,2.6839001178741455,-0.8164227604866028
1733461396983773400,4.1517734375,6.995857238769531,2.786850690841675,-0.6248866319656372
1733461396993783000,4.161782958984375,7.058106422424316,2.8347349166870117,-0.48602294921875
1733461397003762200,4.17176220703125,7.445967197418213,2.8874073028564453,-0.4405331015586853
1733461397013772000,4.18177197265625,8.068459510803223,3.0382418632507324,-0.646434485912323
1733461397023781600,4.19178173828125,8.772355079650879,3.184288263320923,-1.0271124839782715
1733461397033761000,4.201760986328125,9.227252960205078,3.272873640060425,-1.1252747774124146
1733461397043771000,4.21177099609375,9.579200744628906,3.1866824626922607,-1.0534487962722778
1733461397053780500,4.221780517578125,9.883264541625977,2.9879636764526367,-0.7254431247711182
1733461397063760000,4.231759765625,9.988609313964844,2.7557260990142822,-0.37828385829925537
1733461397073769700,4.241769775390625,10.125079154968262,2.647987127304077,-0.16998831927776337
1733461397083779300,4.251779296875,10.32858657836914,2.6623523235321045,-0.2106897532939911
1733461397093789200,4.2617890625,10.47702693939209,2.7748796939849854,-0.31364041566848755
1733461397103768300,4.271768310546875,10.632649421691895,2.918531894683838,-0.4357447028160095
1733461397113778200,4.281778076171875,10.984597206115723,3.0597896575927734,-0.4836287498474121
1733461397123787800,4.291787841796875,11.496956825256348,3.090914487838745,-0.5051765441894531
1733461397133767200,4.30176708984375,11.920730590820312,2.980781078338623,-0.43335050344467163
1733461397143777000,4.311777099609375,11.70046329498291,2.9281086921691895,-0.28969839215278625
1733461397153786600,4.32178662109375,11.133037567138672,2.655169725418091,-0.10055647045373917
1733461397163766000,4.33176611328125,10.943896293640137,2.3367409706115723,0.22026655077934265
1733461397173776000,4.34177587890625,11.008539199829102,2.0901381969451904,0.22505496442317963
1733461397183785500,4.351785400390625,11.511322021484375,2.078166961669922,0.2825157940387726
1733461397193764900,4.361764892578125,12.36605167388916,2.1763293743133545,0.23702596127986908
1733461397203774500,4.3717744140625,13.340492248535156,2.3702597618103027,-0.2322375625371933
1733461397213784300,4.381784423828125,14.149731636047363,2.2816741466522217,-0.6967126727104187
1733461397223763500,4.391763427734375,14.54716968536377,1.7094600200653076,-1.113303780555725
1733461397233773300,4.401773193359375,14.48970890045166,1.01753568649292,-1.2449848651885986
1733461397243783000,4.411782958984375,14.07311725616455,0.3663128614425659,-1.3551181554794312
1733461397253762300,4.42176220703125,14.085088729858398,0.033518824726343155,-1.2856862545013428
1733461397263772200,4.431772216796875,14.161703109741211,-0.2777273952960968,-1.0821791887283325
1733461397273781800,4.44178173828125,13.136984825134277,0.033518824726343155,-1.4197616577148438
1733461397283761200,4.45176123046875,11.944672584533691,-0.033518824726343155,-0.7541735172271729
1733461397293771000,4.46177099609375,9.6989107131958,0.2561795711517334,-0.4189853072166443
1733461397303780600,4.471780517578125,7.671022415161133,0.5770025849342346,-0.16759411990642548
1733461397313759700,4.481759765625,6.035782337188721,0.8858546018600464,0.2106897532939911
1733461397323769600,4.49176953125,4.927267074584961,0.9481038451194763,0.43095630407333374
1733461397333779500,4.501779541015625,4.1180267333984375,1.1252747774124146,0.19393034279346466
1733461397343789000,4.5117890625,4.711789131164551,0.7182605266571045,0.6440402865409851
1733461397353768400,4.5217685546875,5.949591159820557,0.3519476354122162,0.9959878921508789
1733461397363778000,4.531778076171875,7.3023152351379395,0.06464344263076782,1.2761094570159912
1733461397373788000,4.541787841796875,8.372523307800293,0.05027823522686958,1.338358759880066
1733461397383767300,4.551767333984375,8.908824920654297,0.5793967843055725,0.4405331015586853
1733461397393777000,4.56177685546875,9.411606788635254,0.9864110946655273,-0.20111294090747833
1733461397403786800,4.571786865234375,9.691728591918945,1.3551181554794312,-0.6991068720817566
1733461397413766000,4.581765869140625,9.607931137084961,1.5705963373184204,-0.9552865028381348
1733461397423775500,4.591775390625,9.205705642700195,1.6879122257232666,-1.05105459690094
1733461397433785300,4.601785400390625,8.808267593383789,1.8794482946395874,-1.2282254695892334
1733461397443759600,4.611759521484375,8.451532363891602,2.097320795059204,-1.3335703611373901
1733461397453769500,4.62176953125,8.101978302001953,2.1954829692840576,-1.2521674633026123
1733461397463779000,4.631779052734375,7.769184589385986,2.2170307636260986,-0.9864110946655273
1733461397473758200,4.64175830078125,7.802703380584717,2.078166961669922,-0.5913678407669067
1733461397483768000,4.65176806640625,7.783549785614014,2.0039467811584473,-0.35913026332855225
1733461397493777700,4.661777587890625,7.759607791900635,1.9033904075622559,-0.1843535304069519
1733461397503757000,4.671757080078125,7.7883381843566895,1.9273324012756348,-0.1867477297782898
1733461397513767000,4.681766845703125,7.90086555480957,1.98958158493042,-0.011971008032560349
1733461397523776500,4.691776611328125,7.970297336578369,2.0685901641845703,0.10773907601833344
1733461397533756000,4.701755859375,7.972691535949707,2.1715409755706787,0.3280056416988373
1733461397543765500,4.711765625,7.716512203216553,2.1811177730560303,0.6009446382522583
1733461397553775400,4.721775390625,7.3023152351379395,2.2218191623687744,0.6607996821403503
1733461397563754500,4.73175439453125,7.2568254470825195,2.2912509441375732,0.608127236366272
1733461397573764400,4.741764404296875,7.6997528076171875,2.3271639347076416,0.47644615173339844
1733461397583774000,4.75177392578125,8.238448143005371,2.274491548538208,0.33518823981285095
1733461397593783800,4.76178369140625,9.157821655273438,2.365471363067627,-0.035913024097681046
1733461397603763200,4.77176318359375,10.074800491333008,2.5522189140319824,-0.3926490843296051
1733461397613772800,4.781772705078125,10.678139686584473,2.5977089405059814,-0.48602294921875
1733461397623782700,4.79178271484375,11.226411819458008,2.7772738933563232,-0.5961562395095825
1733461397633762000,4.801761962890625,11.456254959106445,2.959233283996582,-0.7661445140838623
1733461397643771600,4.811771728515625,11.420342445373535,3.0334534645080566,-0.7565677165985107
1733461397653781500,4.821781494140625,11.161767959594727,3.2154128551483154,-0.8810662031173706
1733461397663760600,4.8317607421875,11.154585838317871,3.2848446369171143,-0.993593692779541
1733461397673770200,4.841770263671875,11.508927345275879,3.1483752727508545,-0.7876923680305481
1733461397683780000,4.851780029296875,12.045228958129883,2.8802247047424316,-0.6177040338516235
1733461397693759500,4.861759521484375,12.662932395935059,2.7126305103302,-0.6967126727104187
1733461397703769300,4.871769287109375,13.563152313232422,2.4372973442077637,-0.9672574996948242
1733461397713779000,4.881779052734375,14.39872932434082,2.231395959854126,-1.235408067703247
1733461397723758300,4.89175830078125,14.791378021240234,2.343923568725586,-1.599326729774475
1733461397733768200,4.901768310546875,14.76025390625,2.7293899059295654,-2.0398597717285156
1733461397743777800,4.91177783203125,14.135366439819336,2.9759926795959473,-2.4396915435791016
1733461397753757000,4.9217568359375,13.139378547668457,2.82515811920166,-2.6671407222747803
1733461397763766800,4.931766845703125,11.959037780761719,2.406172752380371,-2.7509377002716064
1733461397773776400,4.9417763671875,11.350910186767578,1.5418659448623657,-2.363077163696289
1733461397783755800,4.951755859375,11.221623420715332,0.8068459630012512,-2.1499931812286377
1733461397793765600,4.961765625,11.870451927185059,0.14365209639072418,-1.9776105880737305
1733461397803775200,4.971775146484375,12.6150484085083,-0.31603461503982544,-1.6424223184585571
1733461397813754600,4.981754638671875,12.126631736755371,-0.6320692300796509,-1.501164436340332
1733461397823764500,4.991764404296875,10.611102104187012,-0.6344634294509888,-1.5514427423477173
1733461397833774000,5.001774169921875,8.947132110595703,-0.395043283700943,-2.013523578643799
1733461397843784000,5.011783935546875,7.228095054626465,-0.14365209639072418,-2.2697031497955322
1733461397853763000,5.02176318359375,5.6455278396606445,0.17238251864910126,-2.5713725090026855
1733461397863773000,5.03177294921875,4.618414878845215,0.1388636976480484,-2.2170307636260986
1733461397873782500,5.041782470703125,3.7684733867645264,0.42616790533065796,-2.2912509441375732
1733461397883762000,5.051761962890625,3.778050184249878,0.7206547260284424,-2.2625205516815186
1733461397893771800,5.061771728515625,4.618414878845215,0.790086567401886,-1.8722656965255737
1733461397903781400,5.071781494140625,6.150704383850098,0.6536170840263367,-1.1540051698684692
1733461397913760800,5.0817607421875,7.433996200561523,0.6584054827690125,-0.8355764150619507
1733461397923770600,5.0917705078125,8.695740699768066,0.8619126081466675,-0.9385270476341248
1733461397933780200,5.1017802734375,9.837775230407715,1.170764684677124,-1.2018892765045166
1733461397943759600,5.111759521484375,10.273519515991211,1.3982137441635132,-1.4173674583435059
1733461397953769500,5.12176953125,10.091560363769531,1.6711528301239014,-1.5514427423477173
1733461397963779000,5.131779052734375,9.569623947143555,1.922544002532959,-1.656787633895874
1733461397973758200,5.14175830078125,8.889671325683594,2.075772762298584,-1.6711528301239014
1733461397983768000,5.15176806640625,8.595184326171875,2.1763293743133545,-1.4628572463989258
1733461397993777700,5.161777587890625,8.33182144165039,2.2170307636260986,-1.2330138683319092
1733461398003757000,5.171757080078125,8.092401504516602,2.2433669567108154,-1.0319008827209473
1733461398013767000,5.181766845703125,7.783549785614014,2.3343467712402344,-1.0031704902648926
1733461398023776500,5.191776611328125,7.663839817047119,2.427720546722412,-0.9385270476341248
1733461398033756000,5.201755859375,7.484274387359619,2.4851813316345215,-0.9241618514060974
1733461398043765800,5.211765869140625,7.352593421936035,2.535459518432617,-0.9696516990661621
1733461398053775400,5.221775390625,7.259219646453857,2.564189910888672,-1.070208191871643
1733461398063754800,5.231754638671875,7.572859764099121,2.5282769203186035,-0.9241618514060974
1733461398073764400,5.241764404296875,8.111555099487305,2.4684219360351562,-0.8547300100326538
1733461398083774200,5.251774169921875,8.578424453735352,2.6168625354766846,-1.0271124839782715
1733461398093783800,5.26178369140625,8.743624687194824,2.63362193107605,-1.256955862045288
1733461398103763200,5.27176318359375,8.927978515625,2.652775526046753,-1.5322890281677246
1733461398113772800,5.281772705078125,9.05247688293457,2.631227731704712,-1.6160861253738403
1733461398123782700,5.29178271484375,9.21288776397705,2.564189910888672,-1.525106430053711
1733461398133762000,5.301761962890625,9.41400146484375,2.542642116546631,-1.3646949529647827
1733461398143772000,5.31177197265625,9.634267807006836,2.6384103298187256,-1.3623007535934448
1733461398153781500,5.321781494140625,9.732429504394531,2.8131868839263916,-1.4628572463989258
1733461398163760600,5.3317607421875,9.763554573059082,2.9472622871398926,-1.4628572463989258
1733461398173770500,5.3417705078125,10.007762908935547,2.9089550971984863,-1.2330138683319092
1733461398183780000,5.351780029296875,10.33098030090332,2.7246015071868896,-0.8858546018600464
1733461398193759500,5.361759521484375,10.78587818145752,2.4899697303771973,-0.629675030708313
1733461398203769300,5.371769287109375,11.295844078063965,2.4420857429504395,-0.6847416758537292
1733461398213779000,5.381779052734375,11.932701110839844,2.3032219409942627,-0.7876923680305481
1733461398223758300,5.39175830078125,12.552799224853516,2.2170307636260986,-0.7326257228851318
1733461398233768200,5.401768310546875,13.2710599899292,2.121262788772583,-0.4668693244457245
1733461398243777800,5.41177783203125,13.781024932861328,2.1954829692840576,-0.14604631066322327
1733461398253757000,5.4217568359375,14.18803882598877,2.4205379486083984,0.028730420395731926
1733461398263766800,5.431766845703125,14.142549514770508,2.6001031398773193,0.15801730751991272
1733461398273776400,5.4417763671875,13.491326332092285,2.604891538619995,0.26336219906806946
1733461398283755800,5.451755859375,12.507309913635254,2.4372973442077637,0.35434186458587646
1733461398293765600,5.461765625,11.848904609680176,1.8579005002975464,0.12928688526153564
1733461398303775200,5.471775146484375,11.662156105041504,0.6775590777397156,-0.1843535304069519
1733461398313754600,5.481754638671875,12.356474876403809,-0.31124621629714966,-0.4572925269603729
1733461398323764500,5.491764404296875,13.809755325317383,-0.933738648891449,-0.5793967843055725
1733461398333774300,5.5017744140625,14.733917236328125,-0.9481038451194763,-0.9959878921508789
1733461398343784000,5.511783935546875,14.88714599609375,-0.5841852426528931,-1.2473790645599365
1733461398353763000,5.52176318359375,14.032416343688965,-0.20111294090747833,-1.1563993692398071
1733461398363773000,5.53177294921875,11.829751014709473,0.19632454216480255,-0.5386953949928284
1733461398373782500,5.541782470703125,8.832210540771484,0.7996633648872375,0.6129156351089478
1733461398383762000,5.551761962890625,6.215347766876221,1.0223240852355957,-0.7398083209991455
1733461398393771500,5.561771484375,3.6846764087677,1.4987702369689941,0.4118026793003082
1733461398403781400,5.571781494140625,2.1475989818573,1.2186486721038818,1.0869675874710083
1733461398413760800,5.5817607421875,1.6879122257232666,0.8068459630012512,1.3096283674240112
1733461398423770400,5.591770263671875,3.0190882682800293,0.4141969084739685,1.1851298809051514
1733461398433780200,5.6017802734375,5.147533416748047,-0.05267243832349777,0.9528923034667969
1733461398443759600,5.611759521484375,7.108384609222412,-0.569819986820221,1.2114660739898682
1733461398453769500,5.62176953125,9.119514465332031,-0.9074024558067322,1.601720929145813
1733461398463779000,5.631779052734375,9.983820915222168,-0.5363011956214905,0.9026140570640564
1733461398473758200,5.64175830078125,10.718840599060059,0.13168109953403473,-0.10295066982507706
1733461398483768000,5.65176806640625,11.044452667236328,0.6344634294509888,-0.6727706789970398
1733461398493777700,5.661777587890625,11.094730377197266,1.0223240852355957,-0.8834604024887085
1733461398503757000,5.671757080078125,10.752359390258789,1.2282254695892334,-0.7398083209991455
1733461398513767000,5.681766845703125,9.837775230407715,1.6160861253738403,-0.912190854549408
1733461398523776500,5.691776611328125,8.889671325683594,2.049436569213867,-1.2737152576446533
1733461398533756000,5.701755859375,8.267178535461426,2.2888567447662354,-1.316810965538025
1733461398543765800,5.711765869140625,7.826645374298096,2.4133553504943848,-1.3335703611373901
1733461398553775400,5.721775390625,7.800309181213379,2.4803929328918457,-1.1994950771331787
1733461398563754500,5.73175439453125,7.73087739944458,2.6839001178741455,-1.460463047027588
1733461398573764400,5.741764404296875,7.936778545379639,2.43011474609375,-1.0103530883789062
1733461398583774000,5.75177392578125,8.039729118347168,2.319981336593628,-0.6703764796257019
1733461398593783800,5.76178369140625,7.951143741607666,2.1978771686553955,-0.4141969084739685
1733461398603763200,5.77176318359375,7.886500358581543,2.166752576828003,-0.19153612852096558
1733461398613772800,5.781772705078125,8.022970199584961,2.1308395862579346,0.043095629662275314
1733461398623782700,5.79178271484375,8.35097599029541,2.190694570541382,0.12210428714752197
1733461398633762000,5.801761962890625,8.779537200927734,2.300827741622925,0.08619125932455063
1733461398643771600,5.811771728515625,8.939949035644531,2.3918075561523438,0.19393034279346466
1733461398653781500,5.821781494140625,8.995016098022461,2.4827871322631836,0.2825157940387726
1733461398663760600,5.8317607421875,9.05487060546875,2.6001031398773193,0.27054479718208313
1733461398673770200,5.841770263671875,8.999804496765137,2.580949544906616,0.3280056416988373
1733461398683780000,5.851780029296875,9.064447402954102,2.609679937362671,0.3519476354122162
1733461398693759500,5.861759521484375,9.306262016296387,2.6455929279327393,0.3064578175544739
1733461398703769300,5.871769287109375,9.660603523254395,2.6360161304473877,0.28730419278144836
1733461398713779000,5.881779052734375,9.907206535339355,2.669534921646118,0.26336219906806946
1733461398723758300,5.89175830078125,10.1753568649292,2.7940332889556885,0.2777273952960968
1733461398733768200,5.901768310546875,10.192116737365723,2.8993782997131348,0.1173158809542656
1733461398743777800,5.91177783203125,9.983820915222168,2.911349296569824,0.181959331035614
1733461398753757000,5.9217568359375,9.68933391571045,2.8203697204589844,0.3998316824436188
1733461398763766800,5.931766845703125,9.560047149658203,2.655169725418091,0.646434485912323
1733461398773776400,5.9417763671875,9.773131370544434,2.410961151123047,0.689530074596405
1733461398783755800,5.951755859375,10.304644584655762,2.0374655723571777,0.7374141216278076
1733461398793765600,5.961765625,11.08754825592041,1.5849615335464478,0.8068459630012512
1733461398803775200,5.971775146484375,12.107478141784668,1.1803414821624756,0.5674257874488831
1733461398813754600,5.981754638671875,13.105859756469727,1.161187767982483,0.004788403399288654
1733461398823764500,5.991764404296875,13.87918758392334,1.5873557329177856,-0.8762778043746948
1733461398833774000,6.001774169921875,14.621389389038086,2.1284453868865967,-1.656787633895874
1733461398843784000,6.011783935546875,14.736311912536621,2.585737943649292,-2.1140801906585693
1733461398853763000,6.02176318359375,14.508862495422363,1.601720929145813,-0.24899697303771973
1733461398863773000,6.03177294921875,12.715604782104492,2.5546131134033203,-2.1499931812286377
1733461398873782800,6.04178271484375,11.492168426513672,2.477998733520508,-3.2106244564056396
1733461398883762000,6.051761962890625,12.018892288208008,2.126051187515259,-3.8091750144958496
1733461398893771500,6.061771484375,13.836091995239258,1.2737152576446533,-3.936067581176758
1733461398903781400,6.071781494140625,16.381128311157227,-0.181959331035614,-2.406172752380371
1733461398913760800,6.0817607421875,18.394651412963867,-0.9313444495201111,-1.9057846069335938
1733461398923770400,6.091770263671875,18.600553512573242,-1.3263877630233765,-1.4676456451416016
1733461398933780200,6.1017802734375,16.9581298828125,-1.235408067703247,-1.6065093278884888
1733461398943759600,6.111759521484375,13.417106628417969,-0.9193734526634216,-1.8818424940109253
1733461398953769500,6.12176953125,10.314221382141113,-0.8188169598579407,-1.6136919260025024
1733461398963779000,6.131779052734375,7.41484260559082,-0.5650315880775452,-2.518700122833252
1733461398973758200,6.14175830078125,5.219359874725342,-0.17956513166427612,-2.2577321529388428
1733461398983768000,6.15176806640625,3.294421434402466,0.07661445438861847,-2.1308395862579346
1733461398993777700,6.161777587890625,2.0901381969451904,0.45250412821769714,-1.9704279899597168
1733461399003757000,6.171757080078125,0.849941611289978,0.6009446382522583,-1.4293384552001953
1733461399013767000,6.181766845703125,0.7445967197418213,0.5554547905921936,-0.828393816947937
1733461399023825700,6.19182568359375,1.5610195398330688,1.070208191871643,-1.1827356815338135
1733461399033756000,6.201755859375,3.1938650608062744,0.3232172429561615,0.7613561153411865
1733461399043765800,6.211765869140625,4.4939165115356445,-0.4165911078453064,2.2242133617401123
1733461399053775400,6.221775390625,6.651092529296875,-0.7206547260284424,2.652775526046753
1733461399063754800,6.231754638671875,8.075642585754395,-0.14365209639072418,1.2521674633026123
1733461399073764400,6.241764404296875,9.421183586120605,0.7350199222564697,-0.395043283700943
1733461399083774000,6.25177392578125,10.469843864440918,1.216254472732544,-1.094150185585022
1733461399093783800,6.26178369140625,11.085153579711914,1.6376339197158813,-1.6208745241165161
1733461399103763200,6.27176318359375,11.022904396057129,1.821987509727478,-1.5969325304031372
1733461399113772800,6.281772705078125,10.716446876525879,1.8962076902389526,-1.1755530834197998
1733461399123782700,6.29178271484375,10.623072624206543,1.8387469053268433,-0.7038952708244324
1733461399133762000,6.301761962890625,10.618284225463867,2.0015525817871094,-0.6320692300796509
1733461399143771600,6.311771728515625,10.644620895385742,2.0446481704711914,-0.43335050344467163
1733461399153781500,6.321781494140625,10.627861022949219,2.1356279850006104,-0.3016694188117981
1733461399163760600,6.3317607421875,10.520122528076172,2.1978771686553955,-0.12210428714752197
1733461399173770200,6.341770263671875,10.29746150970459,2.2002713680267334,0.002394201699644327
1733461399183780000,6.351780029296875,9.995792388916016,2.205059766769409,0.1867477297782898
1733461399193759500,6.361759521484375,9.775525093078613,2.169146776199341,0.35434186458587646
1733461399203769300,6.371769287109375,9.224859237670898,2.190694570541382,0.26815059781074524
1733461399213779000,6.381779052734375,8.87291145324707,2.4588451385498047,-0.06703764945268631
1733461399223758300,6.39175830078125,8.796297073364258,2.494758129119873,-0.3280056416988373
1733461399233768200,6.401768310546875,8.765172004699707,2.4157495498657227,-0.395043283700943
1733461399243777800,6.41177783203125,8.59997272491455,2.300827741622925,-0.5937620401382446
1733461399253757000,6.4217568359375,8.38449478149414,2.1332337856292725,-0.6488286852836609
1733461399263766800,6.431766845703125,8.166622161865234,1.9608511924743652,-0.5482721924781799
1733461399273776400,6.4417763671875,7.879317760467529,1.7980455160140991,-0.42377370595932007
1733461399283755800,6.451755859375,7.680599212646484,1.7381904125213623,-0.2777273952960968
1733461399293765600,6.461765625,7.589619159698486,1.742978811264038,-0.3232172429561615
1733461399303775200,6.471775146484375,7.888894557952881,1.8579005002975464,-0.4118026793003082
1733461399313754600,6.481754638671875,8.508993148803711,2.0398597717285156,-0.6991068720817566
1733461399323764500,6.491764404296875,8.956708908081055,2.2697031497955322,-1.039083480834961
1733461399333774000,6.501774169921875,9.193734169006348,2.4157495498657227,-1.3694833517074585
1733461399343784000,6.511783935546875,9.10993766784668,2.4205379486083984,-1.3623007535934448
1733461399353763000,6.52176318359375,8.942343711853027,2.33913516998291,-1.3958195447921753
1733461399363773000,6.53177294921875,9.004592895507812,2.145204782485962,-1.4987702369689941
1733461399373782800,6.54178271484375,9.32541561126709,2.0805611610412598,-1.7573440074920654
1733461399383762000,6.551761962890625,10.04846477508545,1.8794482946395874,-1.8579005002975464
1733461399393771500,6.561771484375,10.582371711730957,1.8483237028121948,-1.9033904075622559
1733461399403781400,6.571781494140625,10.836156845092773,2.0159177780151367,-2.073378562927246
1733461399413760800,6.5817607421875,11.3269681930542,1.3072341680526733,0.043095629662275314
1733461399423770400,6.591770263671875,11.008539199829102,1.9584569931030273,-0.8068459630012512
1733461399433780200,6.6017802734375,10.57040023803711,2.360682964324951,-1.2186486721038818
1733461399443759600,6.611759521484375,9.739612579345703,2.5282769203186035,-1.6927006244659424
1733461399453769500,6.62176953125,8.98543930053711,2.6647465229034424,-2.8993782997131348
1733461399463779000,6.631779052734375,9.186552047729492,2.5498247146606445,-3.8379054069519043
1733461399473758200,6.64175830078125,11.815385818481445,1.0055646896362305,-2.96162748336792
1733461399483768000,6.65176806640625,15.081076622009277,-0.304063618183136,-2.5043349266052246
1733461399493777700,6.661777587890625,18.423381805419922,-1.2425906658172607,-1.9823989868164062
1733461399503757000,6.671757080078125,20.434511184692383,-1.3479355573654175,-1.8363527059555054
1733461399513767000,6.681766845703125,21.351490020751953,-1.290474772453308,-1.3431471586227417
1733461399523776500,6.691776611328125,20.0969295501709,-1.2856862545013428,-0.6560112833976746
1733461399533756000,6.701755859375,16.797719955444336,-1.048660397529602,0.0694318488240242
1733461399543765800,6.711765869140625,13.28063678741455,-0.7086837291717529,0.7086837291717529
1733461399553775400,6.721775390625,9.576807022094727,-0.2944868206977844,1.1683704853057861
1733461399563754800,6.731754638671875,6.775590896606445,0.1412578970193863,1.2665326595306396
1733461399573764400,6.741764404296875,4.908113479614258,0.43095630407333374,1.5179238319396973
1733461399583774000,6.75177392578125,4.580107688903809,0.4692635238170624,1.941697597503662
1733461399593783800,6.76178369140625,5.135562419891357,0.3998316824436188,2.3774423599243164
1733461399603763200,6.77176318359375,5.6670756340026855,0.6057330369949341,1.944091796875
1733461399613772800,6.781772705078125,6.289567947387695,0.8619126081466675,1.5969325304031372
1733461399623782700,6.79178271484375,6.907271862030029,0.8475474119186401,1.5203180313110352
1733461399633762000,6.801761962890625,7.283161640167236,0.7852981686592102,1.5298948287963867
1733461399643771600,6.811771728515625,7.204153060913086,1.039083480834961,0.8236053586006165
1733461399653781500,6.821781494140625,7.374141216278076,0.6368576288223267,1.3670891523361206
1733461399663760600,6.8317607421875,7.2137298583984375,0.667982280254364,0.9433154463768005
1733461399673770200,6.841770263671875,7.079654216766357,0.6991068720817566,0.7757213711738586
1733461399683780000,6.851780029296875,7.026981830596924,0.569819986820221,0.8834604024887085
1733461399693759500,6.861759521484375,6.868964672088623,-0.17717093229293823,2.1523873805999756
1733461399703769300,6.871769287109375,6.433219909667969,-0.36152446269989014,2.0901381969451904
1733461399713779000,6.881779052734375,7.000645637512207,-0.3423708379268646,1.8483237028121948
1733461399723758300,6.89175830078125,7.802703380584717,-0.395043283700943,1.4963760375976562
1733461399733768200,6.901768310546875,9.004592895507812,-0.40701428055763245,1.359906554222107
1733461399743777800,6.91177783203125,9.926360130310059,-0.3663128614425659,1.3311761617660522
1733461399753757000,6.9217568359375,10.90558910369873,-0.3926490843296051,1.6089035272598267
1733461399763766800,6.931766845703125,11.24795913696289,0.15562310814857483,1.072602391242981
1733461399773776400,6.9417763671875,11.774683952331543,-0.047884032130241394,1.8626888990402222
1733461399783755800,6.951755859375,11.956643104553223,0.33039984107017517,1.50355863571167
1733461399793765600,6.961765625,12.052411079406738,0.33997663855552673,1.6519991159439087
1733461399803775200,6.971775146484375,12.169727325439453,1.0319008827209473,1.0271124839782715
1733461399813754600,6.981754638671875,11.920730590820312,0.8451532125473022,0.7924807667732239
1733461399823764500,6.991764404296875,11.262324333190918,0.5482721924781799,1.8507179021835327
1733461399833774000,7.001774169921875,10.66137981414795,0.8092401623725891,1.9369091987609863
1733461399843784000,7.011783935546875,10.436325073242188,0.993593692779541,1.4939818382263184
1733461399853763000,7.02176318359375,10.323798179626465,1.01753568649292,1.5442601442337036
1733461399863773000,7.03177294921875,10.20887565612793,0.9576807022094727,1.6879122257232666
1733461399873782800,7.04178271484375,10.409989356994629,0.9409212470054626,1.556231141090393
1733461399883762000,7.051761962890625,10.54406452178955,1.0534487962722778,1.237802267074585
1733461399893771500,7.061771484375,10.259154319763184,1.0821791887283325,1.1875240802764893
1733461399903781400,7.071781494140625,9.773131370544434,1.0438719987869263,1.4484920501708984
1733461399913760800,7.0817607421875,8.911218643188477,0.7852981686592102,2.164358377456665
1733461399923770400,7.091770263671875,8.341399192810059,0.6727706789970398,1.7836803197860718
1733461399933780200,7.1017802734375,7.783549785614014,0.6057330369949341,1.8100165128707886
1733461399943759600,7.111759521484375,7.864952564239502,0.28969839215278625,2.10210919380188
1733461399953769500,7.12176953125,8.638279914855957,-0.43095630407333374,2.7485435009002686
1733461399963779000,7.131779052734375,9.275136947631836,-0.6368576288223267,2.6431987285614014
1733461399973758200,7.14175830078125,9.84495735168457,-0.6177040338516235,2.0877439975738525
1733461399983768000,7.15176806640625,10.357316970825195,-0.545877993106842,1.766920804977417
1733461399993777700,7.161777587890625,10.797849655151367,-0.4668693244457245,1.434126853942871
1733461400003757000,7.171757080078125,10.989385604858398,-0.33279404044151306,1.0989385843276978
1733461400013767000,7.181766845703125,10.884040832519531,-0.23942017555236816,0.9241618514060974
1733461400023776500,7.191776611328125,10.723628997802734,-0.6823474764823914,1.680729627609253
1733461400033756000,7.201755859375,10.35252857208252,-0.6488286852836609,1.2737152576446533
1733461400043765800,7.211765869140625,9.849745750427246,-0.3734954595565796,0.42856210470199585
1733461400053775400,7.221775390625,9.718064308166504,-0.2561795711517334,-0.002394201699644327
1733461400063754800,7.231754638671875,9.852140426635742,-0.24181437492370605,-0.26575639843940735
1733461400073764400,7.241764404296875,10.08437728881836,-0.26575639843940735,-0.3902548849582672
1733461400083774000,7.25177392578125,10.453084945678711,-0.3974374830722809,-0.28730419278144836
1733461400093783800,7.26178369140625,10.711658477783203,-0.6727706789970398,0.047884032130241394
1733461400103763200,7.27176318359375,10.828974723815918,-0.689530074596405,-0.038307227194309235
1733461400113772800,7.281772705078125,10.6709566116333,-0.5554547905921936,-0.3232172429561615
1733461400123782700,7.29178271484375,10.414777755737305,-0.35913026332855225,-0.6584054827690125
1733461400133762000,7.301761962890625,10.041281700134277,-0.08619125932455063,-1.2210428714752197
1733461400143771600,7.311771728515625,9.758766174316406,0.1604115068912506,-1.53707754611969
1733461400153781500,7.321781494140625,9.62947940826416,0.304063618183136,-1.7286136150360107
1733461400163760600,7.3317607421875,9.62947940826416,0.4141969084739685,-1.5897499322891235
1733461400173770200,7.341770263671875,9.758766174316406,0.5267243981361389,-1.5179238319396973
1733461400183780000,7.351780029296875,9.80904483795166,0.6823474764823914,-1.4053963422775269
1733461400193759500,7.361759521484375,9.75397777557373,0.8475474119186401,-1.3407529592514038
1733461400203769300,7.371769287109375,9.701305389404297,1.0127472877502441,-1.3024457693099976
1733461400213779000,7.381779052734375,9.5408935546875,1.3407529592514038,-1.534683346748352
1733461400223758300,7.39175830078125,9.26795482635498,1.3694833517074585,-1.0438719987869263
1733461400233768200,7.401768310546875,8.942343711853027,1.0438719987869263,-0.35913026332855225
1733461400243777800,7.41177783203125,8.183381080627441,1.0749965906143188,-0.3902548849582672
1733461400253757000,7.4217568359375,7.694964408874512,1.1109095811843872,-0.7374141216278076
1733461400263766800,7.431766845703125,7.577648162841797,1.2018892765045166,-1.1851298809051514
1733461400273776400,7.4417763671875,7.795520782470703,1.1324573755264282,-1.1827356815338135
1733461400283755800,7.451755859375,8.236053466796875,0.7398083209991455,-0.8571242094039917
1733461400293765600,7.461765625,8.678980827331543,0.7709329724311829,-1.115697979927063
1733461400303775200,7.471775146484375,9.193734169006348,0.8547300100326538,-1.5634137392044067
1733461400313754600,7.481754638671875,9.519346237182617,1.0055646896362305,-1.9369091987609863
1733461400323764500,7.491764404296875,9.588777542114258,1.194706678390503,-2.252943754196167
1733461400333774000,7.501774169921875,9.459490776062012,1.3455413579940796,-2.382230758666992
1733461400343784000,7.511783935546875,9.169792175292969,1.5394717454910278,-2.3918075561523438
1733461400353763000,7.52176318359375,8.796297073364258,1.6735470294952393,-2.4827871322631836
1733461400363773000,7.53177294921875,8.552088737487793,1.8555063009262085,-2.5761611461639404
1733461400373782800,7.54178271484375,8.537723541259766,2.0231003761291504,-2.5450363159179688
1733461400383762000,7.551761962890625,8.633491516113281,2.118868589401245,-2.557007312774658
1733461400393771500,7.561771484375,8.913613319396973,2.2697031497955322,-2.3535003662109375
1733461400403781400,7.571781494140625,9.265560150146484,2.367865562438965,-2.1116859912872314
1733461400413760800,7.5817607421875,9.500192642211914,2.3989901542663574,-1.9153614044189453
1733461400423770400,7.591770263671875,9.780313491821289,2.5115175247192383,-1.965639591217041
1733461400433780200,7.6017802734375,10.1753568649292,2.6431987285614014,-1.9967641830444336
1733461400443759600,7.611759521484375,10.520122528076172,2.647987127304077,-2.094926595687866
1733461400453769500,7.62176953125,10.764330863952637,2.7293899059295654,-2.070984363555908
1733461400463779000,7.631779052734375,11.149797439575195,2.4684219360351562,-1.644816517829895
1733461400473758200,7.64175830078125,11.3269681930542,2.315192937850952,-1.4508862495422363
1733461400483768000,7.65176806640625,11.473014831542969,2.1571757793426514,-1.3479355573654175
1733461400493777700,7.661777587890625,11.647790908813477,2.1954829692840576,-1.3910311460494995
1733461400503757000,7.671757080078125,11.78665542602539,2.2242133617401123,-1.280897855758667
1733461400513767000,7.681766845703125,11.951854705810547,2.2026655673980713,-1.1803414821624756
1733461400523776500,7.691776611328125,12.083536148071289,2.559401512145996,-1.4987702369689941
1733461400533756000,7.701755859375,12.164938926696777,2.942473888397217,-1.6304513216018677
1733461400543765800,7.711765869140625,11.856086730957031,3.1483752727508545,-1.5897499322891235
1733461400553775400,7.721775390625,11.061211585998535,3.1196448802948,-1.7118542194366455
1733461400563754800,7.731754638671875,10.18493366241455,2.8131868839263916,-1.6519991159439087
1733461400573764400,7.741764404296875,9.600749015808105,2.2673089504241943,-1.5921441316604614
1733461400583774000,7.75177392578125,9.75637149810791,2.1595699787139893,-2.693476915359497
1733461400593783800,7.76178369140625,11.894393920898438,0.9385270476341248,-2.1380221843719482
1733461400603763200,7.77176318359375,14.43464183807373,-0.26815059781074524,-1.4987702369689941
1733461400613772800,7.781772705078125,17.00840950012207,-1.3120225667953491,-0.33758243918418884
1733461400623782700,7.79178271484375,18.485631942749023,-1.7525556087493896,0.2968810200691223
1733461400633762000,7.801761962890625,18.330007553100586,-2.607285737991333,1.1971008777618408
1733461400643771600,7.811771728515625,17.480066299438477,-2.779668092727661,1.8507179021835327
1733461400653781500,7.821781494140625,15.425841331481934,-2.207453966140747,1.0893617868423462
1733461400663760600,7.8317607421875,12.887988090515137,-1.45806884765625,-0.2322375625371933
1733461400673770200,7.841770263671875,10.395624160766602,-0.033518824726343155,-1.9153614044189453
1733461400683780000,7.851780029296875,8.497021675109863,0.35434186458587646,-2.2026655673980713
1733461400693759500,7.861759521484375,7.422025203704834,0.40222588181495667,-2.1380221843719482
1733461400703769300,7.871769287109375,6.493074893951416,0.2777273952960968,-1.6496049165725708
1733461400713779000,7.881779052734375,5.784391403198242,0.08858546614646912,-1.170764684677124
1733461400723758300,7.89175830078125,5.097255229949951,0.028730420395731926,-1.0199298858642578
1733461400733768200,7.901768310546875,5.1331682205200195,0.05985504388809204,-0.8858546018600464
1733461400743777800,7.91177783203125,5.207388877868652,0.2537853717803955,-1.280897855758667
1733461400753757000,7.9217568359375,5.537788391113281,-0.13407529890537262,-0.5291185975074768
1733461400763766800,7.931766845703125,5.815515995025635,-0.24420857429504395,-0.5147533416748047
1733461400773776400,7.9417763671875,6.162675380706787,-0.22266076505184174,-0.790086567401886
1733461400783755800,7.951755859375,6.840234279632568,-0.2561795711517334,-0.8762778043746948
1733461400793765600,7.961765625,7.615955829620361,-0.05027823522686958,-1.278503656387329
1733461400803775200,7.971775146484375,8.090007781982422,0.15083470940589905,-1.6903064250946045
1733461400813754600,7.981754638671875,8.62630844116211,0.37828385829925537,-1.9488801956176758
1733461400823764500,7.991764404296875,8.980650901794434,0.6057330369949341,-2.0638017654418945
1733461400833774000,8.001774169921875,9.090784072875977,0.9145850539207458,-2.161964178085327
1733461400843784000,8.011783935546875,8.89685344696045,1.1085153818130493,-2.051830768585205
1733461400853763000,8.02176318359375,8.528146743774414,1.213860273361206,-1.9369091987609863
1733461400863773000,8.03177294921875,8.202534675598145,1.316810965538025,-2.011129379272461
1733461400873782800,8.04178271484375,8.121131896972656,1.2952631711959839,-1.9919757843017578
1733461400883762000,8.051761962890625,8.149862289428711,1.3263877630233765,-2.0901381969451904
1733461400893771500,8.061771484375,8.197746276855469,1.3287819623947144,-2.185906171798706
1733461400903781400,8.071781494140625,8.367734909057617,1.381454348564148,-2.0925323963165283
1733461400913760800,8.0817607421875,8.604761123657227,1.4053963422775269,-2.013523578643799
1733461400923770400,8.091770263671876,8.863334655761719,1.5682021379470825,-1.9991583824157715
1733461400933780200,8.1017802734375,9.064447402954102,1.8411411046981812,-2.0422539710998535
1733461400943759600,8.111759521484375,9.313444137573242,2.118868589401245,-2.1547815799713135
1733461400953769500,8.12176953125,9.533711433410645,2.343923568725586,-2.1787235736846924
1733461400963779000,8.131779052734375,9.50498104095459,2.5761611461639404,-1.9584569931030273
1733461400973758200,8.14175830078125,9.306262016296387,2.6886885166168213,-1.86508309841156
1733461400983768000,8.15176806640625,9.01895809173584,2.8203697204589844,-1.5873557329177856
1733461400993777700,8.161777587890626,8.87291145324707,2.75812029838562,-1.2018892765045166
1733461401003757000,8.171757080078125,8.757989883422852,2.6599581241607666,-0.9983820915222168
1733461401013767000,8.181766845703125,9.01895809173584,2.937685489654541,-0.7781155705451965
1733461401023776500,8.191776611328125,9.402029991149902,2.7317841053009033,-0.4668693244457245
1733461401033756000,8.201755859375,9.327810287475586,2.8993782997131348,-0.5123591423034668
1733461401043765800,8.211765869140624,9.320627212524414,2.612074136734009,0.24420857429504395
1733461401053775400,8.221775390625,9.397241592407227,2.4013843536376953,0.5674257874488831
1733461401063754800,8.231754638671875,9.519346237182617,2.298433542251587,0.7852981686592102
1733461401073764400,8.241764404296875,9.655815124511719,2.1356279850006104,0.8978256583213806
1733461401083774000,8.25177392578125,9.744400978088379,2.212242364883423,0.4692635238170624
1733461401093783800,8.26178369140625,9.672574996948242,2.4636335372924805,-0.5027823448181152
1733461401103763200,8.27176318359375,9.672574996948242,2.6384103298187256,-1.036689281463623
1733461401113772800,8.281772705078126,9.658209800720215,2.7485435009002686,-1.4891934394836426
1733461401123782700,8.29178271484375,9.718064308166504,2.832340717315674,-1.7190368175506592
1733461401133762000,8.301761962890625,9.813833236694336,2.7317841053009033,-1.7717092037200928
1733461401143771600,8.311771728515625,10.031704902648926,2.6024973392486572,-1.7477672100067139
1733461401153781500,8.321781494140625,10.371682167053223,2.604891538619995,-1.5921441316604614
1733461401163760600,8.3317607421875,10.99656867980957,2.5953147411346436,-1.2832920551300049
1733461401173770200,8.341770263671876,11.796232223510742,2.607285737991333,-0.8595184087753296
1733461401183780000,8.351780029296876,12.775460243225098,2.7485435009002686,-0.5793967843055725
1733461401193759500,8.361759521484375,13.136984825134277,2.8203697204589844,-0.6129156351089478
1733461401203769300,8.371769287109375,13.160926818847656,2.5474305152893066,-0.47165772318840027
1733461401213779000,8.381779052734375,12.899958610534668,1.8770540952682495,-0.33997663855552673
1733461401223758300,8.39175830078125,12.97657299041748,1.0127472877502441,-0.2537853717803955
1733461401233768200,8.401768310546874,13.524845123291016,0.2944868206977844,-1.237802267074585
1733461401243777800,8.41177783203125,14.935029983520508,-0.7829039692878723,-0.6536170840263367
1733461401253757000,8.4217568359375,16.350004196166992,-1.723825216293335,-0.17238251864910126
1733461401263766800,8.431766845703125,16.70195198059082,-2.0183119773864746,-0.08140286058187485
1733461401273776400,8.4417763671875,15.773000717163086,-1.216254472732544,-0.2082955539226532
1733461401283755800,8.451755859375,14.159308433532715,-1.0414776802062988,-1.9081788063049316
1733461401293765600,8.461765625,11.686098098754883,-0.4692635238170624,-1.0462661981582642
1733461401303775200,8.471775146484376,9.512163162231445,-0.2513911724090576,0.035913024097681046
1733461401313754600,8.481754638671875,7.084442615509033,-0.18914192914962769,0.5841852426528931
1733461401323764500,8.491764404296875,5.032611846923828,0.10055647045373917,0.9361328482627869
1733461401333774000,8.501774169921875,3.6535518169403076,0.1364694982767105,1.048660397529602
1733461401343784000,8.511783935546875,3.0885202884674072,0.05267243832349777,1.173158884048462
1733461401353763300,8.521763427734374,3.426102638244629,-0.12928688526153564,1.1803414821624756
1733461401363773000,8.53177294921875,4.134786128997803,0.014365210197865963,0.5985504388809204
1733461401373782800,8.54178271484375,5.827486991882324,-0.06703764945268631,1.070208191871643
1733461401383762000,8.551761962890625,7.184999465942383,-0.5171475410461426,1.4987702369689941
1733461401393771500,8.561771484375,7.841010570526123,-0.6248866319656372,1.9728221893310547
1733461401403781400,8.571781494140625,8.200140953063965,-0.2513911724090576,1.436521053314209
1733461401413760800,8.5817607421875,8.559270858764648,0.33997663855552673,0.47884035110473633
1733461401423770400,8.591770263671876,8.528146743774414,0.9481038451194763,-0.5291185975074768
1733461401433780200,8.6017802734375,8.427590370178223,1.460463047027588,-0.9864110946655273
1733461401443759600,8.611759521484375,8.528146743774414,1.6424223184585571,-1.0845733880996704
1733461401453769500,8.62176953125,8.616731643676758,1.8363527059555054,-1.1659762859344482
1733461401463779000,8.631779052734375,8.825027465820312,1.889025092124939,-1.1803414821624756
1733461401473758200,8.64175830078125,9.102754592895508,1.8171991109848022,-0.9217676520347595
1733461401483768000,8.65176806640625,9.071630477905273,1.8411411046981812,-0.9648633003234863
1733461401493777700,8.661777587890626,9.07641887664795,1.7621324062347412,-0.9576807022094727
1733461401503757000,8.671757080078125,9.107542991638184,1.7286136150360107,-0.8690952062606812
1733461401513767000,8.681766845703125,9.074024200439453,1.7262194156646729,-0.8930372595787048
1733461401523776500,8.691776611328125,9.023746490478516,1.7477672100067139,-0.7757213711738586
1733461401533756000,8.701755859375,8.942343711853027,1.766920804977417,-0.5315127968788147
1733461401543765800,8.711765869140624,8.892065048217773,1.7980455160140991,-0.3902548849582672
1733461401553775400,8.721775390625,9.004592895507812,2.0254945755004883,-0.5602431893348694
1733461401563754800,8.731754638671875,9.387664794921875,2.3080103397369385,-0.7350199222564697
1733461401573764400,8.741764404296875,9.734824180603027,2.3798365592956543,-0.6512228846549988
1733461401583774000,8.75177392578125,10.168174743652344,2.3319525718688965,-0.47165772318840027
1733461401593783800,8.76178369140625,10.474632263183594,2.2409727573394775,-0.23702596127986908
1733461401603763200,8.77176318359375,10.752359390258789,2.1523873805999756,-0.14844051003456116
1733461401613772800,8.781772705078126,10.900800704956055,2.118868589401245,-0.1364694982767105
1733461401623782700,8.79178271484375,10.881647109985352,2.0231003761291504,-0.1628057211637497
1733461401633762000,8.801761962890625,10.87446403503418,1.8938134908676147,-0.21308395266532898
1733461401643771600,8.811771728515625,10.931924819946289,1.6831238269805908,-0.44532153010368347
1733461401653781500,8.821781494140625,11.250353813171387,1.6160861253738403,-0.6560112833976746
1733461401663760600,8.8317607421875,11.736376762390137,1.6711528301239014,-0.7374141216278076
1733461401673770200,8.841770263671876,12.373234748840332,1.6950948238372803,-0.7996633648872375
1733461401683780000,8.851780029296876,12.919112205505371,1.7693150043487549,-0.9002198576927185
1733461401693759500,8.861759521484375,13.46020221710205,2.0374655723571777,-0.7398083209991455
1733461401703769300,8.871769287109375,13.374011039733887,2.169146776199341,-0.6655880808830261
1733461401713779000,8.881779052734375,12.435483932495117,2.1811177730560303,-0.7996633648872375
1733461401723758300,8.89175830078125,11.279084205627441,2.1930887699127197,-0.871489405632019
1733461401733768200,8.901768310546874,10.268731117248535,2.2864625453948975,-1.0223240852355957
1733461401743777800,8.91177783203125,9.84256362915039,2.4827871322631836,-1.2976573705673218
1733461401753757000,8.9217568359375,9.684545516967773,2.513911724090576,-1.845929503440857
1733461401763766800,8.931766845703125,9.425971984863281,2.123656988143921,-2.22660756111145
1733461401773776400,8.9417763671875,9.349357604980469,1.5538369417190552,-2.6024973392486572
1733461401783755800,8.951755859375,10.062829971313477,0.4429273009300232,-2.827552318572998
1733461401793765600,8.961765625,11.623848915100098,-0.5626373887062073,-2.5258827209472656
1733461401803775200,8.971775146484376,13.716381072998047,-1.3000515699386597,-1.9584569931030273
1733461401813754600,8.981754638671875,15.042769432067871,-1.4939818382263184,-1.9847931861877441
1733461401823764500,8.991764404296875,15.40429401397705,-1.1563993692398071,-2.2840683460235596
1733461401833774000,9.001774169921875,14.743494033813477,-0.49320554733276367,-2.7509377002716064
1733461401843784000,9.011783935546875,12.84968090057373,-0.2537853717803955,-3.6391866207122803
1733461401853763300,9.021763427734374,10.953473091125488,-0.019153613597154617,-3.823540210723877
1733461401863773000,9.03177294921875,8.813055992126465,0.009576806798577309,-3.8762125968933105
1733461401873782800,9.04178271484375,7.12035608291626,-0.047884032130241394,-4.046200752258301
1733461401883762000,9.051761962890625,6.088454723358154,-0.17956513166427612,-3.773261785507202
1733461401893771500,9.061771484375,5.360617637634277,-0.1843535304069519,-3.0406360626220703
1733461401903781400,9.071781494140625,4.757278919219971,-0.16519992053508759,-1.9943699836730957
1733461401913760800,9.0817607421875,3.3662476539611816,-0.10055647045373917,-0.5985504388809204
1733461401923770400,9.091770263671876,2.999934673309326,0.19393034279346466,0.19393034279346466
1733461401933780200,9.1017802734375,4.177882194519043,0.5506663918495178,0.22266076505184174
1733461401943759600,9.111759521484375,5.688623428344727,0.8858546018600464,-0.11252748221158981
1733461401953769500,9.12176953125,7.386112213134766,1.2617442607879639,-0.5961562395095825
1733461401963779000,9.131779052734375,8.834604263305664,1.5394717454910278,-1.1180921792984009
1733461401973758200,9.14175830078125,10.086771965026855,1.6328455209732056,-1.5083470344543457
1733461401983768000,9.15176806640625,10.647014617919922,1.699883222579956,-1.6136919260025024
1733461401993777700,9.161777587890626,10.675745010375977,1.6711528301239014,-1.3982137441635132
1733461402003757000,9.171757080078125,10.201693534851074,1.5275006294250488,-1.0989385843276978
1733461402013767000,9.181766845703125,9.373299598693848,1.5729905366897583,-0.8810662031173706
1733461402023776500,9.191776611328125,8.489839553833008,1.6879122257232666,-0.8020575642585754
1733461402033756000,9.201755859375,7.936778545379639,1.7980455160140991,-0.8068459630012512
1733461402043765800,9.211765869140624,7.503427982330322,1.889025092124939,-0.7972691655158997
1733461402053775400,9.221775390625,7.156269073486328,1.9273324012756348,-0.5722141861915588
1733461402063754800,9.231754638671875,6.825869083404541,1.9345149993896484,-0.3687070608139038
1733461402073764400,9.241764404296875,6.806715488433838,1.9536685943603516,-0.3711012601852417
1733461402083774000,9.25177392578125,7.038952827453613,2.0685901641845703,-0.3495534360408783
1733461402093783800,9.26178369140625,7.450755596160889,2.1547815799713135,-0.4812345504760742
1733461402103763200,9.27176318359375,7.8314337730407715,2.293645143508911,-0.6200982332229614
1733461402113772800,9.281772705078126,8.24084186553955,2.4181437492370605,-0.768538773059845
1733461402123782700,9.29178271484375,8.537723541259766,2.52109432220459,-0.706289529800415
1733461402133762000,9.301761962890625,8.813055992126465,2.6671407222747803,-0.6033388376235962
1733461402143771600,9.311771728515625,9.14345645904541,2.7892448902130127,-0.5578489899635315
1733461402153781500,9.321781494140625,9.519346237182617,2.8610711097717285,-0.42856210470199585
1733461402163760600,9.3317607421875,9.720458984375,2.8874073028564453,-0.4620809257030487
1733461402173770200,9.341770263671876,9.787496566772461,2.9472622871398926,-0.608127236366272
1733461402183780000,9.351780029296876,9.684545516967773,2.827552318572998,-0.7350199222564697
1733461402193759500,9.361759521484375,8.904036521911621,2.3511061668395996,-1.3982137441635132
1733461402203769300,9.371769287109375,5.705382823944092,3.0190882682800293,-0.038307227194309235
1733461402213779000,9.381779052734375,7.750030994415283,2.985569477081299,0.6224924325942993
1733461402223758300,9.39175830078125,10.038887977600098,2.0183119773864746,0.5195417404174805
1733461402233768200,9.401768310546874,10.345345497131348,1.7310078144073486,-0.07422025501728058
1733461402243777800,9.41177783203125,10.60152530670166,1.7501614093780518,-0.4381389021873474
1733461402253757000,9.4217568359375,10.857705116271973,1.1300631761550903,-0.3232172429561615
1733461402263766800,9.431766845703125,11.808202743530273,0.6009446382522583,-0.3687070608139038
1733461402273776400,9.4417763671875,12.528857231140137,0.6560112833976746,-0.5817909836769104
1733461402283755800,9.451755859375,13.618219375610352,0.3758896589279175,-0.2561795711517334
1733461402293765600,9.461765625,15.133749008178711,0.3878606855869293,-0.569819986820221
1733461402303775200,9.471775146484376,16.426618576049805,0.8571242094039917,-1.482010841369629
1733461402313754600,9.481754638671875,17.087417602539062,1.2306196689605713,-2.0685901641845703
1733461402323764500,9.491764404296875,17.171215057373047,0.9265560507774353,-2.293645143508911
1733461402333774000,9.501774169921875,16.70195198059082,0.016759412363171577,-2.315192937850952
1733461402343784000,9.511783935546875,16.383522033691406,-0.6775590777397156,-2.0183119773864746
1733461402353763300,9.521763427734374,16.074670791625977,-1.0199298858642578,-1.8315643072128296
1733461402363773000,9.53177294921875,15.52160930633545,-1.1516109704971313,-1.7549498081207275
1733461402373782800,9.54178271484375,14.451401710510254,-0.7565677165985107,-1.8626888990402222
1733461402383762000,9.551761962890625,13.275848388671875,-0.5099649429321289,-1.434126853942871
1733461402393771500,9.561771484375,11.513715744018555,-0.5123591423034668,-0.4429273009300232
1733461402403781400,9.571781494140625,9.639056205749512,-0.40940847992897034,0.19153612852096558
1733461402413760800,9.5817607421875,7.570465564727783,-0.3519476354122162,0.6320692300796509
1733461402423770400,9.591770263671876,5.547365188598633,-0.3280056416988373,0.9768342971801758
1733461402433780200,9.6017802734375,3.6320040225982666,-0.3926490843296051,1.3311761617660522
1733461402443759600,9.611759521484375,2.5498247146606445,-0.5123591423034668,1.256955862045288
1733461402453769500,9.62176953125,2.612074136734009,-0.6943184733390808,1.1228805780410767
1733461402463779000,9.631779052734375,3.375824451446533,-0.9241618514060974,1.1803414821624756
1733461402473758200,9.64175830078125,4.778826713562012,-0.9217676520347595,1.0342950820922852
1733461402483768000,9.65176806640625,6.54574728012085,-1.113303780555725,1.414973258972168
1733461402493777700,9.661777587890626,7.733271598815918,-1.01753568649292,1.37906014919281
1733461402503757000,9.671757080078125,8.415618896484375,-0.2082955539226532,0.08379705995321274
1733461402513767000,9.681766845703125,8.932766914367676,0.38307225704193115,-0.6967126727104187
1733461402523776500,9.691776611328125,9.469067573547363,1.0055646896362305,-1.3958195447921753
1733461402533756000,9.701755859375,9.737217903137207,1.4245500564575195,-1.7717092037200928
1733461402543765800,9.711765869140624,9.576807022094727,1.7310078144073486,-1.7860745191574097
1733461402553775400,9.721775390625,9.050082206726074,2.097320795059204,-1.764526605606079
1733461402563754800,9.731754638671875,8.40843677520752,2.2242133617401123,-1.7525556087493896
1733461402573764400,9.741764404296875,7.73087739944458,2.296039342880249,-1.699883222579956
1733461402583774000,9.75177392578125,7.297526836395264,2.212242364883423,-1.4508862495422363
1733461402593783800,9.76178369140625,7.1706342697143555,2.1140801906585693,-1.0773907899856567
1733461402603763200,9.77176318359375,7.177816867828369,2.0470423698425293,-0.828393816947937
1733461402613772800,9.781772705078126,7.340622425079346,2.054224967956543,-0.7541735172271729
1733461402623782700,9.79178271484375,7.6351094245910645,2.051830768585205,-0.7015010714530945
1733461402633762000,9.801761962890625,8.02536392211914,2.0159177780151367,-0.5985504388809204
1733461402643771600,9.811771728515625,8.40843677520752,1.98958158493042,-0.43095630407333374
1733461402653781500,9.821781494140625,8.62630844116211,1.9823989868164062,-0.30885201692581177
1733461402663760600,9.8317607421875,8.822632789611816,2.0614075660705566,-0.2825157940387726
1733461402673770200,9.841770263671876,8.980650901794434,2.123656988143921,-0.12689268589019775
1733461402683780000,9.851780029296876,9.030928611755371,2.121262788772583,0.06703764945268631
1733461402693759500,9.861759521484375,9.169792175292969,2.051830768585205,0.2968810200691223
1733461402703769300,9.871769287109375,9.423578262329102,2.0015525817871094,0.4668693244457245
1733461402713779000,9.881779052734375,9.660603523254395,2.0159177780151367,0.5482721924781799
1733461402723758300,9.89175830078125,9.861717224121094,2.0207061767578125,0.6943184733390808
1733461402733768200,9.901768310546874,10.038887977600098,2.0446481704711914,0.5506663918495178
1733461402743777800,9.91177783203125,10.103530883789062,1.9943699836730957,0.14365209639072418
1733461402753757000,9.9217568359375,10.132261276245117,1.946485996246338,-0.15801730751991272
1733461402763766800,9.931766845703125,10.158597946166992,1.987187385559082,-0.5578489899635315
1733461402773776600,9.941776611328125,10.431536674499512,1.8938134908676147,-0.9026140570640564
1733461402783755800,9.951755859375,10.790667533874512,1.5825673341751099,-0.9911994934082031
1733461402793765600,9.961765625,11.312602996826172,1.170764684677124,-0.8259995579719543
1733461402803775200,9.971775146484376,11.87763500213623,0.7924807667732239,-0.6847416758537292
1733461402813754600,9.981754638671875,12.660538673400879,0.5602431893348694,-0.8044517636299133
1733461402823764500,9.991764404296875,13.350069046020508,0.5602431893348694,-1.0319008827209473
1733461402833774000,10.001774169921875,13.84566879272461,0.9864110946655273,-1.7549498081207275
1733461402843784000,10.011783935546875,13.977349281311035,1.5825673341751099,-2.456450939178467
1733461402853763300,10.021763427734374,13.917494773864746,1.8076223134994507,-2.868253707885742
1733461402863773000,10.03177294921875,13.472172737121582,1.414973258972168,-3.3949780464172363
1733461402873782800,10.04178271484375,13.273454666137695,0.667982280254364,-3.600879430770874
1733461402883762000,10.051761962890625,13.800178527832031,-0.3447650372982025,-3.581725835800171
1733461402893771500,10.061771484375,15.093047142028809,-1.1899182796478271,-3.222595453262329
1733461402903781400,10.071781494140625,16.845603942871094,-1.7381904125213623,-3.0095114707946777
1733461402913760800,10.0817607421875,18.011579513549805,-1.6352397203445435,-2.7940332889556885
1733461402923770400,10.091770263671876,17.843984603881836,-1.2018892765045166,-2.7437551021575928
1733461402933780200,10.1017802734375,16.23029327392578,-0.7709329724311829,-2.9903578758239746
1733461402943759600,10.111759521484375,13.69962215423584,-0.6655880808830261,-2.940079689025879
1733461402953769500,10.12176953125,11.23598861694336,-0.689530074596405,-2.8658595085144043
1733461402963779000,10.131779052734375,8.370129585266113,-0.6512228846549988,-3.066972494125366
1733461402973758200,10.14175830078125,5.6455278396606445,-0.6560112833976746,-2.851494312286377
1733461402983768000,10.15176806640625,3.8953661918640137,-0.586579442024231,-2.5785553455352783
1733461402993777700,10.161777587890626,2.9903578758239746,-0.6560112833976746,-2.2194249629974365
1733461403003757000,10.171757080078125,2.9281086921691895,-0.5530605912208557,-2.008735179901123
1733461403013767000,10.181766845703125,3.272873640060425,-0.4141969084739685,-1.3239935636520386
1733461403023776500,10.191776611328125,3.184288263320923,-0.40222588181495667,-0.40222588181495667
1733461403033756000,10.201755859375,3.2369606494903564,-0.23702596127986908,0.2561795711517334
1733461403043765800,10.211765869140624,4.331110954284668,0.021547814831137657,0.09816227108240128
1733461403053775400,10.221775390625,5.604825973510742,0.4620809257030487,-0.5554547905921936
1733461403063754800,10.231754638671875,6.722918510437012,0.9193734526634216,-1.0031704902648926
1733461403073764400,10.241764404296875,8.087613105773926,1.2449848651885986,-1.1013327836990356
1733461403083774000,10.25177392578125,9.074024200439453,1.3742717504501343,-1.1779472827911377
1733461403093783800,10.26178369140625,9.481039047241211,1.482010841369629,-0.9911994934082031
1733461403103763200,10.27176318359375,9.588777542114258,1.601720929145813,-0.7757213711738586
1733461403113772800,10.281772705078126,9.603142738342285,1.6065093278884888,-0.6344634294509888
1733461403123782700,10.29178271484375,9.794678688049316,1.6112977266311646,-0.5027823448181152
1733461403133762000,10.301761962890625,9.861717224121094,1.7286136150360107,-0.6607996821403503
1733461403143771600,10.311771728515625,9.691728591918945,1.8626888990402222,-0.8355764150619507
1733461403153781500,10.321781494140625,9.433155059814453,1.9512743949890137,-0.8643068075180054
1733461403163760600,10.3317607421875,8.944737434387207,1.965639591217041,-0.8858546018600464
1733461403173770200,10.341770263671876,8.35097599029541,2.027888774871826,-0.7733271718025208
1733461403183780000,10.351780029296876,7.726089000701904,2.0638017654418945,-0.3926490843296051
1733461403193759500,10.361759521484375,7.42681360244751,2.078166961669922,-0.0694318488240242
1733461403203769300,10.371769287109375,7.311892032623291,2.1787235736846924,0.002394201699644327
1733461403213779000,10.381779052734375,7.750030994415283,2.360682964324951,-0.22266076505184174
1733461403223758300,10.39175830078125,8.422801971435547,2.470816135406494,-0.4668693244457245
1733461403233768200,10.401768310546874,9.186552047729492,2.513911724090576,-0.6057330369949341
1733461403243777800,10.41177783203125,9.57201862335205,2.583343744277954,-0.7134721279144287
1733461403253757000,10.4217568359375,9.832986831665039,2.695871114730835,-0.7134721279144287
1733461403263766800,10.431766845703125,9.713275909423828,2.734178304672241,-0.569819986820221
1733461403273776600,10.441776611328125,9.248801231384277,2.80361008644104,-0.33039984107017517
1733461403283755800,10.451755859375,8.707711219787598,2.894589900970459,-0.12689268589019775
1733461403293765600,10.461765625,8.348581314086914,2.7988216876983643,-0.10055647045373917
1733461403303775200,10.471775146484376,8.913613319396973,2.6168625354766846,-0.05985504388809204
1733461403313754600,10.481754638671875,9.744400978088379,2.3702597618103027,0.0454898327589035
1733461403323764500,10.491764404296875,10.577583312988281,2.0470423698425293,0.42616790533065796
1733461403333774000,10.501774169921875,11.192893028259277,1.6136919260025024,0.304063618183136
1733461403343784000,10.511783935546875,12.09311294555664,1.2330138683319092,0.31603461503982544
1733461403353763300,10.521763427734374,12.861651420593262,1.0654197931289673,0.15562310814857483
1733461403363773000,10.53177294921875,13.608642578125,1.4269442558288574,-0.2801215946674347
1733461403373782800,10.54178271484375,14.180856704711914,1.9105730056762695,-0.33279404044151306
1733461403383762000,10.551761962890625,13.891158103942871,2.3319525718688965,-0.5315127968788147
1733461403393771500,10.561771484375,13.053187370300293,2.3080103397369385,-0.6727706789970398
1733461403403781400,10.571781494140625,12.09311294555664,1.8339585065841675,-0.4165911078453064
1733461403413760800,10.5817607421875,11.736376762390137,0.8092401623725891,0.0694318488240242
1733461403423770400,10.591770263671876,12.251130104064941,-0.031124621629714966,0.07182604819536209
1733461403433780200,10.6017802734375,13.761871337890625,-0.7637503147125244,-0.07182604819536209
1733461403443759600,10.611759521484375,15.042769432067871,-1.091755986213684,-0.12449848651885986
1733461403453769500,10.62176953125,15.567099571228027,-1.0749965906143188,-0.19871874153614044
1733461403463779000,10.631779052734375,14.94460678100586,-0.7206547260284424,-0.19393034279346466
1733461403473758200,10.64175830078125,13.043610572814941,-0.24660277366638184,-0.1388636976480484
1733461403483768000,10.65176806640625,10.623072624206543,-0.019153613597154617,0.1843535304069519
1733461403493777700,10.661777587890626,7.85537576675415,0.11013327538967133,0.7661445140838623
1733461403503757000,10.671757080078125,6.114790916442871,0.2777273952960968,0.7924807667732239
1733461403513767000,10.681766845703125,5.212177276611328,0.2968810200691223,0.8427590131759644
1733461403523776500,10.691776611328125,5.382165431976318,0.06464344263076782,0.8667010068893433
1733461403533756000,10.701755859375,6.229712963104248,-0.10055647045373917,1.0821791887283325
1733461403543765800,10.711765869140624,7.304709434509277,-0.22266076505184174,1.3215993642807007
1733461403553775400,10.721775390625,7.769184589385986,-0.028730420395731926,0.9433154463768005
1733461403563754800,10.731754638671875,8.188169479370117,0.08858546614646912,0.7565677165985107
1733461403573764400,10.741764404296875,8.530540466308594,0.2561795711517334,0.45010992884635925
1733461403583774000,10.75177392578125,8.633491516113281,0.7374141216278076,-0.6009446382522583
1733461403593783800,10.76178369140625,8.813055992126465,1.1420341730117798,-1.4844050407409668
1733461403603763200,10.77176318359375,8.93037223815918,1.4245500564575195,-2.013523578643799
1733461403613772800,10.781772705078126,8.81784439086914,1.522712230682373,-2.1787235736846924
1733461403623782700,10.79178271484375,8.53532886505127,1.8267759084701538,-2.233790159225464
1733461403633762000,10.801761962890625,8.202534675598145,2.006340980529785,-2.1356279850006104
1733461403643771600,10.811771728515625,7.85537576675415,2.123656988143921,-1.8842366933822632
1733461403653781500,10.821781494140625,7.560888767242432,2.2409727573394775,-1.656787633895874
1733461403663760600,10.8317607421875,7.493851184844971,2.363077163696289,-1.5275006294250488
1733461403673770200,10.841770263671876,7.6111674308776855,2.3535003662109375,-1.2761094570159912
1733461403683780000,10.851780029296876,7.7428483963012695,2.3247697353363037,-1.292868971824646
1733461403693759500,10.861759521484375,7.8960771560668945,2.3558945655822754,-1.3120225667953491
1733461403703769300,10.871769287109375,7.989450931549072,2.3558945655822754,-1.2952631711959839
1733461403713779000,10.881779052734375,8.176198959350586,2.276885747909546,-1.2449848651885986
1733461403723758300,10.89175830078125,8.44434928894043,2.1930887699127197,-1.1755530834197998
1733461403733768200,10.901768310546874,8.669404029846191,2.03507137298584,-1.01753568649292
1733461403743777800,10.91177783203125,8.877699851989746,1.9608511924743652,-1.0342950820922852
1733461403753757000,10.9217568359375,9.265560150146484,2.0207061767578125,-0.8427590131759644
1733461403763766800,10.931766845703125,9.548076629638672,2.0805611610412598,-0.7661445140838623
1733461403773776600,10.941776611328125,9.615114212036133,2.1595699787139893,-0.7374141216278076
1733461403783755800,10.951755859375,9.57441234588623,2.274491548538208,-0.6799532771110535
1733461403793765600,10.961765625,9.560047149658203,2.408566951751709,-0.6488286852836609
1733461403803775200,10.971775146484376,9.514557838439941,2.5115175247192383,-0.6943184733390808
1733461403813754600,10.981754638671875,9.464279174804688,2.5234885215759277,-0.9289502501487732
1733461403823764500,10.991764404296875,9.852140426635742,2.607285737991333,-1.256955862045288
1733461403833774000,11.001774169921875,10.165780067443848,2.765302896499634,-1.436521053314209
1733461403843784000,11.011783935546875,10.086771965026855,2.8419175148010254,-1.359906554222107
1733461403853763300,11.021763427734374,9.641449928283691,2.9281086921691895,-1.256955862045288
1733461403863773000,11.03177294921875,9.5624418258667,3.00711727142334,-1.3766659498214722
1733461403873782800,11.04178271484375,9.674968719482422,2.9735984802246094,-1.2737152576446533
1733461403883762000,11.051761962890625,9.885659217834473,2.832340717315674,-1.0414776802062988
1733461403893771500,11.061771484375,10.101137161254883,2.691082715988159,-0.6727706789970398
1733461403903781400,11.071781494140625,10.60391902923584,3.203441858291626,-1.113303780555725
1733461403913760800,11.0817607421875,10.790667533874512,3.028665065765381,-1.139639973640442
1733461403923770400,11.091770263671876,10.790667533874512,2.999934673309326,-1.0630255937576294
1733461403933780200,11.1017802734375,10.900800704956055,2.918531894683838,-1.161187767982483
1733461403943759600,11.111759521484375,10.879252433776855,2.4684219360351562,-1.3838485479354858
1733461403953769500,11.12176953125,11.05402946472168,1.8124107122421265,-1.50355863571167
1733461403963779000,11.131779052734375,11.91354751586914,0.9074024558067322,-1.5442601442337036
1733461403973758200,11.14175830078125,13.64216136932373,0.043095629662275314,-1.5658079385757446
1733461403983768000,11.15176806640625,16.500837326049805,-0.7445967197418213,-1.4772224426269531
1733461403993777700,11.161777587890626,18.440141677856445,-1.0247182846069336,-1.460463047027588
1733461404003757000,11.171757080078125,18.816030502319336,-0.8188169598579407,-1.623268723487854
1733461404013767000,11.181766845703125,17.475278854370117,-0.3926490843296051,-1.8938134908676147
1733461404023776500,11.191776611328125,14.597447395324707,-0.10055647045373917,-1.6328455209732056
1733461404033756000,11.201755859375,11.602301597595215,0.047884032130241394,-1.436521053314209
1733461404043765800,11.211765869140624,8.329427719116211,0.05267243832349777,-1.6184803247451782
1733461404053775400,11.221775390625,5.861005783081055,0.06703764945268631,-1.723825216293335
1733461404063754500,11.23175439453125,4.199429988861084,0.15083470940589905,-1.6352397203445435
1733461404073764400,11.241764404296875,3.354276657104492,0.1628057211637497,-1.7741034030914307
1733461404083774200,11.251774169921875,3.023876667022705,0.23942017555236816,-1.9991583824157715
1733461404093783800,11.26178369140625,2.9233202934265137,0.38307225704193115,-2.322375535964966
1733461404103763200,11.27176318359375,3.0789434909820557,0.4620809257030487,-2.4181437492370605
1733461404113772800,11.281772705078126,3.40216064453125,0.3256114423274994,-1.7357962131500244
1733461404123782700,11.29178271484375,3.931279182434082,0.36152446269989014,-0.751779317855835
1733461404133762300,11.30176220703125,5.578489780426025,0.3495534360408783,0.12689268589019775
1733461404143772000,11.31177197265625,7.661445617675781,0.38307225704193115,0.5027823448181152
1733461404153781500,11.321781494140625,10.067618370056152,0.6943184733390808,0.3663128614425659
1733461404163760600,11.3317607421875,11.868058204650879,1.1228805780410767,-0.08619125932455063
1733461404173770500,11.3417705078125,13.311761856079102,1.5873557329177856,-0.5099649429321289
1733461404183780000,11.351780029296876,13.848062515258789,2.006340980529785,-0.871489405632019
1733461404193759500,11.361759521484375,13.539210319519043,2.2026655673980713,-0.7134721279144287
1733461404203769300,11.371769287109375,12.715604782104492,2.22660756111145,-0.2298433631658554
1733461404213779000,11.381779052734375,12.02607536315918,2.142810583114624,0.3878606855869293
1733461404223758300,11.39175830078125,10.994174003601074,2.0183119773864746,1.0845733880996704
1733461404233768200,11.401768310546874,10.201693534851074,1.9033904075622559,1.7166426181793213
1733461404243777800,11.41177783203125,9.636661529541016,1.702277421951294,2.274491548538208
1733461404253757000,11.4217568359375,9.390059471130371,1.5610195398330688,2.319981336593628
1733461404263766800,11.431766845703125,9.308655738830566,1.4844050407409668,2.3127987384796143
1733461404273776600,11.441776611328125,9.320627212524414,1.434126853942871,2.229001760482788
1733461404283755800,11.451755859375,9.313444137573242,1.577778935432434,1.6280571222305298
1733461404293765600,11.461765625,9.47146224975586,1.7860745191574097,1.867477297782898
1733461404303775200,11.471775146484376,8.992621421813965,1.6496049165725708,1.6328455209732056
1733461404313754600,11.481754638671875,8.853757858276367,1.7286136150360107,1.8698714971542358
1733461404323764500,11.491764404296875,8.494627952575684,1.7477672100067139,1.4867992401123047
1733461404333774300,11.5017744140625,8.35336971282959,1.7501614093780518,1.3024457693099976
1733461404343784000,11.511783935546875,8.2312650680542,1.6759412288665771,1.2473790645599365
1733461404353763300,11.521763427734374,8.17141056060791,1.5538369417190552,1.0079588890075684
1733461404363773000,11.53177294921875,8.552088737487793,1.3982137441635132,1.1228805780410767
1733461404373782800,11.54178271484375,9.136273384094238,1.2449848651885986,1.3024457693099976
1733461404383762000,11.551761962890625,9.696516990661621,1.0845733880996704,1.2282254695892334
1733461404393771800,11.561771728515625,10.139444351196289,1.0989385843276978,1.0654197931289673
1733461404403781400,11.571781494140625,10.187328338623047,1.0414776802062988,0.9361328482627869
1733461404413760800,11.5817607421875,9.931148529052734,0.9433154463768005,0.8667010068893433
1733461404423770400,11.591770263671876,9.548076629638672,0.8834604024887085,0.849941611289978
1733461404433780200,11.6017802734375,9.287108421325684,0.8667010068893433,0.730231523513794
1733461404443759600,11.611759521484375,9.354146003723145,0.9911994934082031,0.35673606395721436
1733461404453769500,11.62176953125,9.550470352172852,0.8882488012313843,0.26336219906806946
1733461404463779000,11.631779052734375,9.62947940826416,0.8954314589500427,0.004788403399288654
1733461404473758200,11.64175830078125,9.974244117736816,0.8690952062606812,-0.22026655077934265
1733461404483768000,11.65176806640625,10.512939453125,0.6631938815116882,-0.31842881441116333
1733461404493777700,11.661777587890626,11.140220642089844,0.4381389021873474,-0.35434186458587646
1733461404503757000,11.671757080078125,11.841721534729004,0.23702596127986908,-0.38067805767059326
1733461404513767000,11.681766845703125,12.70602798461914,0.1412578970193863,-0.4189853072166443
1733461404523776500,11.691776611328125,13.184868812561035,0.0454898327589035,-0.38307225704193115
1733461404533756000,11.701755859375,13.220781326293945,0.11971008777618408,-0.3902548849582672
1733461404543765800,11.711765869140624,12.447454452514648,0.33997663855552673,-0.5746083855628967
1733461404553775400,11.721775390625,11.022904396057129,0.7038952708244324,-0.7709329724311829
1733461404563754800,11.731754638671875,9.852140426635742,0.8930372595787048,-0.6560112833976746
1733461404573764400,11.741764404296875,8.56645393371582,1.01753568649292,-0.5386953949928284
1733461404583774000,11.75177392578125,7.558494567871094,1.0678139925003052,-0.31603461503982544
1733461404593783800,11.76178369140625,6.885724067687988,0.9289502501487732,-0.023942016065120697
1733461404603763200,11.77176318359375,6.967126846313477,0.7541735172271729,0.14604631066322327
1733461404613772800,11.781772705078126,7.489062786102295,0.3734954595565796,0.33039984107017517
1733461404623782700,11.79178271484375,8.224082946777344,0.011971008032560349,0.3974374830722809
1733461404633762000,11.801761962890625,9.045293807983398,-0.1867477297782898,0.4213795065879822
1733461404643771600,11.811771728515625,9.68933391571045,-0.16998831927776337,0.2968810200691223
1733461404653781500,11.821781494140625,10.02691650390625,-0.26815059781074524,0.524330198764801
1733461404663760600,11.8317607421875,10.041281700134277,-0.304063618183136,1.0462661981582642
1733461404673770200,11.841770263671876,9.801861763000488,-0.17717093229293823,1.158793568611145
1733461404683780000,11.851780029296876,9.521739959716797,-0.031124621629714966,1.2401964664459229
1733461404693759500,11.861759521484375,9.224859237670898,0.035913024097681046,1.2473790645599365
1733461404703769300,11.871769287109375,9.10993766784668,0.026336219161748886,1.455674648284912
1733461404713779000,11.881779052734375,9.033323287963867,-0.07900865375995636,1.7310078144073486
1733461404723758300,11.89175830078125,8.999804496765137,-0.2537853717803955,1.9536685943603516
1733461404733768200,11.901768310546874,9.181763648986816,-0.3998316824436188,2.070984363555908
1733461404743777800,11.91177783203125,9.399636268615723,-0.4189853072166443,1.9321208000183105
1733461404753757200,11.921757080078125,9.746794700622559,-0.4429273009300232,1.802833914756775
1733461404763766800,11.931766845703125,10.029311180114746,-0.33518823981285095,1.558625340461731
1733461404773776600,11.941776611328125,10.002974510192871,-0.11013327538967133,1.2210428714752197
1733461404783755800,11.951755859375,9.691728591918945,0.35913026332855225,0.44771572947502136
1733461404793765600,11.961765625,9.639056205749512,0.7972691655158997,-0.1388636976480484
1733461404803775200,11.971775146484376,9.773131370544434,0.950498104095459,-0.42377370595932007
1733461404813754600,11.981754638671875,10.046070098876953,1.0462661981582642,-0.6248866319656372
1733461404823764500,11.991764404296875,10.268731117248535,1.1013327836990356,-0.6488286852836609
1733461404833774000,12.001774169921875,10.680533409118652,1.1827356815338135,-0.7661445140838623
1733461404843784000,12.011783935546875,10.891223907470703,1.3072341680526733,-0.9528923034667969
1733461404853763300,12.021763427734374,11.250353813171387,1.4844050407409668,-1.1037269830703735
1733461404863773000,12.03177294921875,11.621455192565918,1.6496049165725708,-1.3479355573654175
1733461404873782800,12.04178271484375,11.868058204650879,1.766920804977417,-1.5179238319396973
1733461404883762000,12.051761962890625,12.11705493927002,1.8531121015548706,-1.6831238269805908
1733461404893771500,12.061771484375,12.24394702911377,1.946485996246338,-1.745373010635376
1733461404903781400,12.071781494140625,12.088324546813965,2.1116859912872314,-1.6639702320098877
1733461404913760800,12.0817607421875,11.91354751586914,2.1140801906585693,-1.3742717504501343
1733461404923770400,12.091770263671876,11.403582572937012,2.140416383743286,-1.048660397529602
1733461404933780200,12.1017802734375,10.697293281555176,2.099714994430542,-0.6177040338516235
1733461404943759600,12.111759521484375,10.08198356628418,1.9393033981323242,-0.2059013396501541
1733461404953769500,12.12176953125,9.263166427612305,1.9153614044189453,0.07422025501728058
1733461404963779000,12.131779052734375,8.801085472106934,1.8507179021835327,0.3471592366695404
1733461404973758200,12.14175830078125,8.446743965148926,1.721431016921997,0.5027823448181152
1733461404983768000,12.15176806640625,8.010998725891113,1.742978811264038,0.5985504388809204
1733461404993777700,12.161777587890626,7.644686222076416,1.8555063009262085,0.7637503147125244
1733461405003757000,12.171757080078125,7.378929615020752,1.886630892753601,0.9050082564353943
1733461405013767000,12.181766845703125,7.158663272857666,1.8698714971542358,0.9576807022094727
1733461405023776500,12.191776611328125,7.180211067199707,1.9177556037902832,0.9983820915222168
1733461405033756000,12.201755859375,7.314286231994629,1.965639591217041,0.9361328482627869
1733461405043765800,12.211765869140624,7.5968017578125,2.0039467811584473,0.8068459630012512
1733461405053775400,12.221775390625,7.671022415161133,2.03507137298584,0.7565677165985107
1733461405063754500,12.23175439453125,7.771578788757324,2.006340980529785,0.6823474764823914
1733461405073764400,12.241764404296875,7.929595947265625,1.98958158493042,0.5099649429321289
1733461405083774200,12.251774169921875,8.374917984008789,2.140416383743286,0.26096799969673157
1733461405093783800,12.26178369140625,8.774748802185059,2.3271639347076416,-0.1867477297782898
1733461405103763200,12.27176318359375,9.150638580322266,2.3918075561523438,-0.6440402865409851
1733461405113772800,12.281772705078126,9.653421401977539,2.5067291259765625,-0.8978256583213806
1733461405123782700,12.29178271484375,10.247182846069336,2.652775526046753,-1.3120225667953491
1733461405133762000,12.301761962890625,10.721235275268555,2.784456491470337,-1.6352397203445435
1733461405143772000,12.31177197265625,11.1474027633667,2.942473888397217,-1.9536685943603516
1733461405153781500,12.321781494140625,11.444284439086914,3.117250680923462,-2.3918075561523438
1733461405163760600,12.3317607421875,11.60708999633789,3.4596214294433594,-3.2752678394317627
1733461405173770500,12.3417705078125,11.57596492767334,3.4572272300720215,-2.75812029838562
1733461405183780000,12.351780029296876,11.66694450378418,3.406949043273926,-2.3726539611816406
1733461405193759500,12.361759521484375,11.724405288696289,3.6128504276275635,-2.964021682739258
1733461405203769300,12.371769287109375,11.547234535217285,3.9217023849487305,-3.114856481552124
1733461405213779000,12.381779052734375,11.099518775939941,4.120420932769775,-2.918531894683838
1733461405223758300,12.39175830078125,10.486603736877441,4.261679172515869,-2.8419175148010254
1733461405233768200,12.401768310546874,9.706093788146973,4.240131378173828,-2.561795711517334
1733461405243777800,12.41177783203125,9.188945770263672,3.9887399673461914,-2.2409727573394775
1733461405253757200,12.421757080078125,9.26795482635498,3.4380736351013184,-1.8291701078414917
1733461405263766800,12.431766845703125,9.988609313964844,2.7916390895843506,-1.7405846118927002
1733461405273776600,12.441776611328125,11.097125053405762,1.9345149993896484,-1.7764976024627686
1733461405283755800,12.451755859375,12.813767433166504,1.0845733880996704,-1.7046716213226318
1733461405293765600,12.461765625,14.338873863220215,0.4405331015586853,-1.4628572463989258
1733461405303775200,12.471775146484376,15.437812805175781,-0.07900865375995636,-1.1013327836990356
1733461405313754600,12.481754638671875,15.574281692504883,-0.21308395266532898,-1.1085153818130493
1733461405323764500,12.491764404296875,14.90869426727295,0.06703764945268631,-1.3503297567367554
1733461405333774300,12.5017744140625,13.673285484313965,0.23702596127986908,-1.3838485479354858
1733461405343784000,12.511783935546875,11.999738693237305,0.43335050344467163,-1.4532804489135742
1733461405353763300,12.521763427734374,10.486603736877441,0.6655880808830261,-1.6352397203445435
1733461405363773000,12.53177294921875,9.08838939666748,0.8690952062606812,-1.9153614044189453
1733461405373782800,12.54178271484375,8.212111473083496,0.9193734526634216,-2.142810583114624
1733461405383762000,12.551761962890625,7.8314337730407715,0.8188169598579407,-2.3032219409942627
1733461405393771800,12.561771728515625,7.603984832763672,0.6703764796257019,-2.580949544906616
1733461405403781400,12.571781494140625,7.362170219421387,0.5937620401382446,-2.7030537128448486
1733461405413760800,12.5817607421875,6.797138690948486,0.43335050344467163,-2.7772738933563232
1733461405423770600,12.5917705078125,6.066906929016113,0.21547815203666687,-2.6671407222747803
1733461405433780200,12.6017802734375,5.260061264038086,-0.07661445438861847,-2.2457611560821533
1733461405443759600,12.611759521484375,4.750096321105957,-0.29209262132644653,-1.7549498081207275
1733461405453769500,12.62176953125,4.642356872558594,-0.4644751250743866,-1.400607943534851
1733461405463779000,12.631779052734375,4.99669885635376,-0.47644615173339844,-1.4652514457702637
1733461405473758200,12.64175830078125,5.87776517868042,-0.24660277366638184,-1.8076223134994507
1733461405483768000,12.65176806640625,6.8593878746032715,0.0454898327589035,-2.1715409755706787
1733461405493777700,12.661777587890626,7.6566572189331055,0.35913026332855225,-2.585737943649292
1733461405503757000,12.671757080078125,8.803479194641113,0.7852981686592102,-3.07415509223938
1733461405513767000,12.681766845703125,9.888052940368652,1.072602391242981,-3.4620156288146973
1733461405523776500,12.691776611328125,11.051634788513184,1.3048399686813354,-3.6080620288848877
1733461405533756000,12.701755859375,11.729193687438965,1.2665326595306396,-3.184288263320923
1733461405543765800,12.711765869140624,12.085929870605469,1.2641384601593018,-2.612074136734009
1733461405553775400,12.721775390625,11.93509578704834,1.259350061416626,-2.140416383743286
1733461405563754800,12.731754638671875,11.63103199005127,1.3694833517074585,-1.5538369417190552
1733461405573764400,12.741764404296875,11.128249168395996,1.5107412338256836,-1.1037269830703735
1733461405583774000,12.75177392578125,10.280701637268066,1.7310078144073486,-0.8331822156906128
1733461405593783800,12.76178369140625,9.339780807495117,1.968033790588379,-0.7015010714530945
1733461405603763200,12.77176318359375,8.44195556640625,2.185906171798706,-0.646434485912323
1733461405613772800,12.781772705078126,7.580042362213135,2.365471363067627,-0.6727706789970398
1733461405623782700,12.79178271484375,6.964732646942139,2.4420857429504395,-0.7805097699165344
1733461405633762000,12.801761962890625,6.469132900238037,2.516305923461914,-0.871489405632019
1733461405643771600,12.811771728515625,6.179434776306152,2.5498247146606445,-0.9552865028381348
1733461405653781500,12.821781494140625,6.110002517700195,2.5546131134033203,-1.0199298858642578
1733461405663760600,12.8317607421875,6.2201361656188965,2.5115175247192383,-1.1779472827911377
1733461405673770200,12.841770263671876,6.497863292694092,2.432508945465088,-1.3287819623947144
1733461405683780000,12.851780029296876,6.97430944442749,2.3080103397369385,-1.3455413579940796
1733461405693759500,12.861759521484375,7.539340972900391,2.1475989818573,-1.3024457693099976
1733461405703769300,12.871769287109375,7.994239330291748,2.070984363555908,-1.2425906658172607
1733461405713779000,12.881779052734375,8.195352554321289,2.070984363555908,-1.2401964664459229
1733461405723758300,12.89175830078125,8.434772491455078,2.1164743900299072,-1.158793568611145
1733461405733768000,12.901767822265626,8.647856712341309,2.185906171798706,-1.094150185585022
1733461405743777800,12.91177783203125,8.848969459533691,2.3511061668395996,-1.1827356815338135
1733461405753757200,12.921757080078125,9.117119789123535,2.5474305152893066,-1.2449848651885986
