time,seconds_elapsed,z,y,x
1733461486762557700,0.2015576171875,0.03737640380859375,0.005092024803161621,-0.0008790791034698486
1733461486772353000,0.21135302734375,0.07343673706054688,0.08711910247802734,-0.14683786034584045
1733461486782332400,0.22133251953125,0.062347412109375,0.10135507583618164,-0.18052193522453308
1733461486792342000,0.231342041015625,0.0753774642944336,0.026621699333190918,-0.11624795198440552
1733461486802321400,0.2413212890625,0.0951700210571289,-0.052841901779174805,0.025011152029037476
1733461486812331000,0.2513310546875,0.09643268585205078,-0.08674466609954834,0.1657225638628006
1733461486822340900,0.2613408203125,0.06250858306884766,-0.07836782932281494,0.1377762407064438
1733461486832350700,0.271350830078125,0.04107856750488281,-0.0611644983291626,0.131778746843338
1733461486842329900,0.281329833984375,0.0748291015625,-0.05650675296783447,0.1476391702890396
1733461486852339500,0.29133935546875,0.1095418930053711,-0.017160892486572266,0.1201283261179924
1733461486862349300,0.301349365234375,0.1469097137451172,-0.011714458465576172,0.06869043409824371
1733461486872328700,0.31132861328125,0.14412879943847656,0.011292815208435059,0.06589073687791824
1733461486882338300,0.32133837890625,0.017531394958496094,0.001677870750427246,-0.050584644079208374
1733461486892348200,0.33134814453125,-0.11055374145507812,0.03560972213745117,-0.05991905927658081
1733461486902327600,0.34132763671875,-0.1059885025024414,0.0561138391494751,-0.1241569072008133
1733461486912337200,0.351337158203125,-0.05106639862060547,0.06263959407806396,-0.1429918259382248
1733461486922347000,0.361346923828125,0.03237628936767578,0.06579554080963135,-0.12063367664813995
1733461486932326100,0.371326171875,0.09590530395507812,0.047361016273498535,-0.08338889479637146
1733461486942335700,0.381335693359375,0.061081886291503906,0.04156374931335449,-0.06512528657913208
1733461486952345600,0.391345703125,0.051605224609375,-0.02194821834564209,0.006404370069503784
1733461486962325000,0.401324951171875,0.013892173767089844,-0.0467836856842041,-0.0016555488109588623
1733461486972334600,0.41133447265625,0.04032421112060547,0.0041637420654296875,-0.045151084661483765
1733461486982344400,0.421344482421875,0.054962158203125,0.004869699478149414,-0.06814688444137573
1733461486992323800,0.43132373046875,0.11724090576171875,0.02585422992706299,-0.033875465393066406
1733461487002333400,0.44133349609375,0.1698284149169922,-0.003742814064025879,-0.050004273653030396
1733461487012343300,0.45134326171875,0.215362548828125,0.019511938095092773,-0.05788499116897583
1733461487022322400,0.461322509765625,0.22491836547851562,0.01508474349975586,-0.06608536839485168
1733461487032332000,0.47133203125,0.20507240295410156,0.0680466890335083,-0.12953105568885803
1733461487042342000,0.481341796875,0.19325733184814453,0.10030806064605713,-0.11844983696937561
1733461487052321300,0.4913212890625,0.2581768035888672,0.1266266107559204,-0.05872476100921631
1733461487062331100,0.5013310546875,0.2872171401977539,0.1722933053970337,0.04668670892715454
1733461487072340700,0.5113408203125,0.2900238037109375,0.23851251602172852,0.11755454540252686
1733461487082350600,0.5213505859375,0.2187356948852539,0.29150426387786865,0.1583825945854187
1733461487092329700,0.531329833984375,0.08535957336425781,0.31410300731658936,0.17327672243118286
1733461487102339600,0.541339599609375,0.050215721130371094,0.31162357330322266,0.18550588190555573
1733461487112349400,0.551349365234375,0.13713741302490234,0.31387341022491455,0.1650216281414032
1733461487122328600,0.56132861328125,0.2312183380126953,0.28999245166778564,0.20180220901966095
1733461487132338200,0.571338134765625,0.32528209686279297,0.25209343433380127,0.19368015229701996
1733461487142348000,0.58134814453125,0.30700111389160156,0.24924588203430176,0.12949736416339874
1733461487152327400,0.591327392578125,0.186065673828125,0.2732119560241699,0.12537184357643127
1733461487162337000,0.6013369140625,0.03186988830566406,0.23567748069763184,0.10938848555088043
1733461487172347000,0.611346923828125,-0.07184123992919922,0.2400979995727539,0.08207206428050995
1733461487182326300,0.621326171875,-0.19697189331054688,0.2270801067352295,0.11968493461608887
1733461487192336000,0.6313359375,-0.20004940032958984,0.18810319900512695,0.16395846009254456
1733461487202345700,0.641345703125,-0.21050739288330078,0.17462515830993652,0.13461211323738098
1733461487212324900,0.651324951171875,-0.24257850646972656,0.18316364288330078,0.14803390204906464
1733461487222334700,0.661334716796875,-0.23885440826416016,0.14948058128356934,0.18305703997612
1733461487232344300,0.67134423828125,-0.26398563385009766,0.14068925380706787,0.20162561535835266
1733461487242323700,0.68132373046875,-0.22470855712890625,0.12144756317138672,0.1647878885269165
1733461487252333600,0.69133349609375,-0.10669517517089844,0.13973534107208252,0.17476162314414978
1733461487262343200,0.70134326171875,-0.003322601318359375,0.10211098194122314,0.24299323558807373
1733461487272322600,0.711322509765625,0.013666152954101562,0.13508832454681396,0.11424039304256439
1733461487282332400,0.72133251953125,-0.038726806640625,0.14640557765960693,0.08452299237251282
1733461487292342000,0.731342041015625,-0.004866600036621094,0.1408907175064087,0.14528363943099976
1733461487302321400,0.7413212890625,0.0792551040649414,0.14535033702850342,0.11438530683517456
1733461487312331000,0.7513310546875,0.14672565460205078,0.19970703125,0.0711771547794342
1733461487322340900,0.7613408203125,0.23103713989257812,0.23926007747650146,0.1552715003490448
1733461487332350700,0.771350830078125,0.10723114013671875,0.2848242521286011,0.15283288061618805
1733461487342329900,0.781329833984375,-0.11192035675048828,0.3825150728225708,0.18635162711143494
1733461487352339500,0.79133935546875,-0.20607376098632812,0.38576650619506836,0.20718050003051758
1733461487362349300,0.801349365234375,-0.3287324905395508,0.4162473678588867,0.25966620445251465
1733461487372328700,0.81132861328125,-0.27660369873046875,0.42017436027526855,0.33810487389564514
1733461487382338300,0.82133837890625,-0.1935291290283203,0.3916395902633667,0.3569193482398987
1733461487392348200,0.83134814453125,-0.16575336456298828,0.3454486131668091,0.43188709020614624
1733461487402327600,0.84132763671875,-0.1524515151977539,0.3287692070007324,0.4433930516242981
1733461487412337200,0.851337158203125,0.0426177978515625,0.30127012729644775,0.58085697889328
1733461487422347000,0.861346923828125,0.12233734130859375,0.2427520751953125,0.7527486681938171
1733461487432326100,0.871326171875,0.35262584686279297,0.2579982280731201,0.7039552927017212
1733461487442335700,0.881335693359375,0.34812068939208984,0.26515817642211914,0.6716992259025574
1733461487452345600,0.891345703125,0.3079395294189453,0.25232040882110596,0.6884417533874512
1733461487462325000,0.901324951171875,0.16041088104248047,0.23284661769866943,0.6340096592903137
1733461487472334600,0.91133447265625,-0.03455162048339844,0.2014981508255005,0.6248677372932434
1733461487482344400,0.921344482421875,-0.1549673080444336,0.19012117385864258,0.6453241109848022
1733461487492323800,0.93132373046875,-0.23929977416992188,0.17316007614135742,0.6399988532066345
1733461487502333400,0.94133349609375,-0.19921302795410156,0.16409730911254883,0.6686880588531494
1733461487512343300,0.95134326171875,-0.04456901550292969,0.13577699661254883,0.6334587931632996
1733461487522322400,0.961322509765625,0.07622909545898438,0.18123960494995117,0.477770060300827
1733461487532332000,0.97133203125,0.18962955474853516,0.1967933177947998,0.40783536434173584
1733461487542342000,0.981341796875,0.24066448211669922,0.17212891578674316,0.30492156744003296
1733461487552321300,0.9913212890625,0.31321144104003906,0.13778293132781982,0.15303578972816467
1733461487562331100,1.0013310546875,0.4312114715576172,0.1296144723892212,-0.031063541769981384
1733461487572340700,1.0113408203125,0.5538349151611328,0.06904613971710205,-0.11333857476711273
1733461487582350600,1.0213505859375,0.7050676345825195,-0.029554128646850586,-0.016981050372123718
1733461487592329700,1.031329833984375,0.7247085571289062,-0.004469513893127441,-0.15673604607582092
1733461487602339600,1.041339599609375,0.6941471099853516,0.11832249164581299,-0.3723044991493225
1733461487612349400,1.051349365234375,0.6614990234375,0.06940066814422607,-0.34058329463005066
1733461487622328600,1.06132861328125,0.4761075973510742,0.10876178741455078,-0.38702768087387085
1733461487632338200,1.071338134765625,0.0399322509765625,0.10891711711883545,-0.17431528866291046
1733461487642348000,1.08134814453125,-0.32130908966064453,0.17966389656066895,-0.06405732035636902
1733461487652327400,1.091327392578125,-0.6084423065185547,0.2729818820953369,-0.017069466412067413
1733461487662337000,1.1013369140625,-0.7355861663818359,0.3282681703567505,0.03303492069244385
1733461487672347000,1.111346923828125,-0.6431570053100586,0.3229658603668213,0.007299691438674927
1733461487682326300,1.121326171875,-0.31465911865234375,0.2918839454650879,-0.049894608557224274
1733461487692335900,1.1313359375,0.06083393096923828,0.2584543228149414,-0.21312111616134644
1733461487702345700,1.141345703125,0.5194597244262695,0.24520790576934814,-0.3212568759918213
1733461487712324900,1.151324951171875,0.9433679580688477,0.18068170547485352,-0.541838526725769
1733461487722334700,1.161334716796875,1.121129035949707,0.13972711563110352,-0.663854718208313
1733461487732344300,1.17134423828125,1.1201372146606445,0.11339223384857178,-0.7904004454612732
1733461487742323700,1.18132373046875,0.9407157897949219,0.0699610710144043,-0.8177140951156616
1733461487752333600,1.19133349609375,0.6321907043457031,0.08570635318756104,-0.8691211938858032
1733461487762343200,1.20134326171875,0.10256099700927734,0.11767446994781494,-0.8450372815132141
1733461487772322600,1.211322509765625,-0.3764829635620117,0.08619308471679688,-0.7621866464614868
1733461487782332400,1.22133251953125,-0.8160839080810547,0.008153557777404785,-0.6482547521591187
1733461487792342000,1.231342041015625,-1.1244182586669922,-0.010506629943847656,-0.4243798851966858
1733461487802321400,1.2413212890625,-1.407588005065918,-0.00857698917388916,-0.38088881969451904
1733461487812331000,1.2513310546875,-1.793238639831543,0.04252660274505615,-0.4585525393486023
1733461487822340900,1.2613408203125,-2.186460494995117,0.32691526412963867,-0.692508339881897
1733461487832350500,1.2713505859375,-2.5173420906066895,0.557925820350647,-0.8797524571418762
1733461487842329900,1.281329833984375,-2.7349257469177246,0.6770515441894531,-0.8473392724990845
1733461487852339500,1.29133935546875,-2.685265064239502,0.7519509792327881,-0.7252811193466187
1733461487862349300,1.301349365234375,-2.2961812019348145,0.660408616065979,-0.4476865530014038
1733461487872328700,1.31132861328125,-1.5481204986572266,0.5002238750457764,-0.0541081428527832
1733461487882338300,1.32133837890625,-0.6611137390136719,0.40000367164611816,0.20168283581733704
1733461487892348200,1.33134814453125,0.4205741882324219,0.34043169021606445,0.3129860758781433
1733461487902327600,1.34132763671875,1.316946029663086,0.3780043125152588,0.37154433131217957
1733461487912337200,1.351337158203125,2.060042381286621,0.404636025428772,0.41123270988464355
1733461487922347000,1.361346923828125,2.430431365966797,0.5047010183334351,0.3707616329193115
1733461487932326100,1.371326171875,2.4634294509887695,0.6317044496536255,0.35744261741638184
1733461487942335700,1.381335693359375,2.173130989074707,0.7820205688476562,0.38929319381713867
1733461487952345600,1.391345703125,1.5329341888427734,0.8825138807296753,0.2629294991493225
1733461487962325000,1.401324951171875,0.6025905609130859,0.9786413908004761,0.2359190285205841
1733461487972334800,1.4113349609375,-0.15878009796142578,1.0111771821975708,0.1305643916130066
1733461487982344400,1.421344482421875,-0.892974853515625,1.0312684774398804,0.05960911512374878
1733461487992323800,1.43132373046875,-1.3539495468139648,0.98240065574646,0.06160491704940796
1733461488002333400,1.44133349609375,-1.6594581604003906,0.9533027410507202,0.0649380087852478
1733461488012343300,1.45134326171875,-1.8424243927001953,0.8023791313171387,-0.02249455451965332
1733461488022322400,1.461322509765625,-1.873159408569336,0.7141485214233398,0.14055496454238892
1733461488032332000,1.47133203125,-1.849708080291748,0.6508193016052246,0.03527182340621948
1733461488042342000,1.481341796875,-1.6116743087768555,0.5869052410125732,-0.023190438747406006
1733461488052321300,1.4913212890625,-1.169912338256836,0.5648337602615356,-0.05450981855392456
1733461488062331100,1.5013310546875,-0.8713617324829102,0.5526919364929199,-0.12847000360488892
1733461488072340700,1.5113408203125,-0.7353038787841797,0.6414387226104736,-0.16190481185913086
1733461488082350600,1.5213505859375,-0.7016115188598633,0.6892862319946289,-0.29816848039627075
1733461488092329700,1.531329833984375,-0.6126308441162109,0.7157180309295654,-0.44185948371887207
1733461488102339600,1.541339599609375,-0.5286216735839844,0.6741397380828857,-0.41198980808258057
1733461488112349400,1.551349365234375,-0.31870079040527344,0.5712156295776367,-0.3805595636367798
1733461488122328600,1.56132861328125,-0.08809661865234375,0.4695093631744385,-0.31921815872192383
1733461488132338200,1.571338134765625,0.2684040069580078,0.3598198890686035,-0.3189544677734375
1733461488142348000,1.58134814453125,0.700932502746582,0.36396265029907227,-0.3561704158782959
1733461488152327400,1.591327392578125,1.2552003860473633,0.3969717025756836,-0.23043930530548096
1733461488162337000,1.6013369140625,1.5737266540527344,0.3481132984161377,0.12291347980499268
1733461488172347000,1.611346923828125,1.65240478515625,0.3636136054992676,0.525081217288971
1733461488182326300,1.621326171875,1.3380050659179688,0.41840410232543945,0.8093332052230835
1733461488192336000,1.6313359375,0.7891082763671875,0.5285754203796387,1.12224543094635
1733461488202345700,1.641345703125,0.06068992614746094,0.4397296905517578,1.2841662168502808
1733461488212324900,1.651324951171875,-0.2825584411621094,0.45527172088623047,1.2108006477355957
1733461488222334700,1.661334716796875,-0.33486461639404297,0.3259422779083252,1.1822290420532227
1733461488232344300,1.67134423828125,-0.01421356201171875,0.1315467357635498,1.30579674243927
1733461488242323700,1.68132373046875,0.6999483108520508,-0.09426569938659668,1.4440761804580688
1733461488252333600,1.69133349609375,1.3706884384155273,-0.2154078483581543,1.5483161211013794
1733461488262343200,1.70134326171875,1.894418716430664,-0.17563772201538086,1.4082146883010864
1733461488272322600,1.711322509765625,2.2693557739257812,0.11744427680969238,0.906147301197052
1733461488282332400,1.72133251953125,2.301616668701172,0.3495635986328125,0.704425036907196
1733461488292342000,1.731342041015625,2.2591781616210938,0.42878174781799316,0.808212161064148
1733461488302321400,1.7413212890625,2.3687849044799805,0.47091102600097656,0.9520736336708069
1733461488312331000,1.7513310546875,2.628389358520508,0.4089663028717041,0.8875882029533386
1733461488322340900,1.7613408203125,2.802680015563965,0.3091132640838623,0.8230572938919067
1733461488332350500,1.7713505859375,3.250584602355957,0.21206045150756836,0.6008078455924988
1733461488342329900,1.781329833984375,3.6538543701171875,0.13731098175048828,0.4578043818473816
1733461488352339500,1.79133935546875,3.8193283081054688,-0.1257779598236084,0.4737905263900757
1733461488362349300,1.801349365234375,3.8125152587890625,-0.44344329833984375,0.3765971064567566
1733461488372328700,1.81132861328125,3.806476593017578,-0.9593650102615356,0.4054511487483978
1733461488382338300,1.82133837890625,4.119265556335449,-1.520181655883789,0.5227246880531311
1733461488392348200,1.83134814453125,4.677252769470215,-2.032909393310547,0.7243980169296265
1733461488402327600,1.84132763671875,5.2929887771606445,-2.549729824066162,1.125283122062683
1733461488412337200,1.851337158203125,5.137541770935059,-2.904306650161743,1.3005046844482422
1733461488422347000,1.861346923828125,4.686463356018066,-2.7128872871398926,1.3612356185913086
1733461488432326100,1.871326171875,3.683896064758301,-2.513545274734497,1.1926255226135254
1733461488442335700,1.881335693359375,1.8737764358520508,-2.2997560501098633,1.2271734476089478
1733461488452345600,1.891345703125,-0.011620521545410156,-2.327789545059204,1.2624874114990234
1733461488462325000,1.901324951171875,-2.0581107139587402,-2.5615110397338867,1.5800182819366455
1733461488472334600,1.91133447265625,-3.631598472595215,-2.8812713623046875,2.0460994243621826
1733461488482344400,1.921344482421875,-4.985589504241943,-2.957129955291748,1.9926953315734863
1733461488492323800,1.93132373046875,-5.5436201095581055,-2.951861619949341,1.6926069259643555
1733461488502333400,1.94133349609375,-5.438691139221191,-2.8993117809295654,1.635650873184204
1733461488512343300,1.95134326171875,-4.982926368713379,-2.9774515628814697,1.4578537940979004
1733461488522322400,1.961322509765625,-4.2011189460754395,-3.1489412784576416,1.1120039224624634
1733461488532332000,1.97133203125,-3.438798427581787,-3.211031913757324,1.106694221496582
1733461488542342000,1.981341796875,-2.8260550498962402,-3.300489664077759,1.256024956703186
1733461488552321300,1.9913212890625,-2.421724796295166,-3.420286178588867,1.3474507331848145
1733461488562331100,2.0013310546875,-2.5483903884887695,-3.4674758911132812,1.4123203754425049
1733461488572340700,2.0113408203125,-2.856074810028076,-3.4125423431396484,1.3520009517669678
1733461488582350600,2.0213505859375,-2.8760876655578613,-3.203183650970459,1.2858912944793701
1733461488592329700,2.031329833984375,-2.415444850921631,-2.86586332321167,1.0856268405914307
1733461488602339600,2.041339599609375,-1.4326105117797852,-2.4640088081359863,0.818146824836731
1733461488612349400,2.051349365234375,-0.5180025100708008,-2.0903496742248535,0.5053702592849731
1733461488622328600,2.06132861328125,0.5405855178833008,-1.595727562904358,0.2286810278892517
1733461488632338200,2.071338134765625,1.349900245666504,-1.205558180809021,0.029330849647521973
1733461488642348000,2.08134814453125,1.8966856002807617,-0.8278369903564453,0.05602669715881348
1733461488652327400,2.091327392578125,2.1868553161621094,-0.6524028778076172,0.32456982135772705
1733461488662337000,2.1013369140625,2.1333608627319336,-0.4734635353088379,0.5970280170440674
1733461488672347000,2.111346923828125,1.8596506118774414,-0.24701976776123047,0.7556060552597046
1733461488682326300,2.121326171875,1.4776983261108398,-0.0016896724700927734,1.0127172470092773
1733461488692335900,2.1313359375,1.149998664855957,0.13664841651916504,1.241011142730713
1733461488702345700,2.141345703125,0.6361026763916016,0.27842044830322266,1.3244519233703613
1733461488712324900,2.151324951171875,0.21050167083740234,0.45215702056884766,1.3093880414962769
1733461488722334700,2.161334716796875,-0.06531620025634766,0.5411105155944824,1.3310043811798096
1733461488732344300,2.17134423828125,-0.3186779022216797,0.614328145980835,1.115370750427246
1733461488742323700,2.18132373046875,-0.41999244689941406,0.6667525768280029,0.9975823163986206
1733461488752333600,2.19133349609375,-0.40984058380126953,0.5674154758453369,1.0578914880752563
1733461488762343200,2.20134326171875,-0.37908935546875,0.514991283416748,1.221019983291626
1733461488772322600,2.211322509765625,-0.35418701171875,0.4214932918548584,1.2915297746658325
1733461488782332400,2.22133251953125,-0.2364788055419922,0.27940869331359863,0.819765567779541
1733461488792342000,2.231342041015625,-0.10452461242675781,0.16501450538635254,0.8351258039474487
1733461488802321400,2.2413212890625,-0.03489398956298828,-0.10452842712402344,1.0218870639801025
1733461488812331000,2.2513310546875,0.19227313995361328,-0.4227321147918701,1.146388053894043
1733461488822340900,2.2613408203125,1.0837125778198242,-0.568575382232666,1.1231259107589722
1733461488832350500,2.2713505859375,2.066019058227539,-0.7293577194213867,1.041938066482544
1733461488842329900,2.281329833984375,3.347322463989258,-0.8359682559967041,0.9791020750999451
1733461488852339500,2.29133935546875,4.3078413009643555,-1.0239872932434082,0.8673706650733948
1733461488862349300,2.301349365234375,4.833124160766602,-1.2407894134521484,0.8525020480155945
1733461488872328700,2.31132861328125,4.8351030349731445,-1.3404067754745483,0.8616166710853577
1733461488882338300,2.32133837890625,4.278779029846191,-1.3207733631134033,0.5217901468276978
1733461488892348200,2.33134814453125,3.464280128479004,-1.2098528146743774,0.0602913498878479
1733461488902327600,2.34132763671875,2.51254940032959,-0.9635629653930664,-0.4295141100883484
1733461488912337200,2.351337158203125,1.9223508834838867,-0.7344245910644531,-0.5621190667152405
1733461488922347000,2.361346923828125,1.5355396270751953,-0.45543622970581055,-0.6360346078872681
1733461488932326100,2.371326171875,1.5838565826416016,-0.20784401893615723,-0.848107635974884
1733461488942335700,2.381335693359375,1.6492118835449219,-0.37337207794189453,-1.1631455421447754
1733461488952345600,2.391345703125,1.9877386093139648,-0.8275742530822754,-1.2798478603363037
1733461488962325000,2.401324951171875,2.7649402618408203,-1.5093194246292114,-0.9190317988395691
1733461488972334600,2.41133447265625,4.18403434753418,-2.5808093547821045,-0.13023516535758972
1733461488982344400,2.421344482421875,5.646385192871094,-3.3650646209716797,0.4016735851764679
1733461488992323800,2.43132373046875,6.759047508239746,-3.856243848800659,0.6230280995368958
1733461489002333400,2.44133349609375,6.879997253417969,-3.848717212677002,0.16601893305778503
1733461489012343300,2.45134326171875,5.689695358276367,-3.566889524459839,-0.8350887894630432
1733461489022322400,2.461322509765625,3.090923309326172,-3.3615715503692627,-1.71990966796875
1733461489032332000,2.47133203125,-0.03983783721923828,-3.2890729904174805,-2.2704360485076904
1733461489042342000,2.481341796875,-2.635772705078125,-3.29580020904541,-2.339719533920288
1733461489052321300,2.4913212890625,-4.592613220214844,-3.2709197998046875,-2.7695484161376953
1733461489062331100,2.5013310546875,-6.057705879211426,-2.7574856281280518,-3.26870059967041
1733461489072340700,2.5113408203125,-6.513141632080078,-2.155212640762329,-3.784730911254883
1733461489082350600,2.5213505859375,-6.559427261352539,-1.703237771987915,-3.9950246810913086
1733461489092329700,2.531329833984375,-5.745055198669434,-1.8403198719024658,-3.059443712234497
1733461489102339600,2.541339599609375,-4.480965614318848,-2.6087770462036133,-1.173653483390808
1733461489112349400,2.551349365234375,-3.374197006225586,-3.188713312149048,0.2444332242012024
1733461489122328600,2.56132861328125,-2.0334677696228027,-3.6722960472106934,1.2032278776168823
1733461489132338200,2.571338134765625,-0.7486724853515625,-3.7773232460021973,1.4188569784164429
1733461489142348000,2.58134814453125,0.2075185775756836,-3.6508655548095703,1.1579301357269287
1733461489152327400,2.591327392578125,0.5429811477661133,-3.3068721294403076,0.6563427448272705
1733461489162337000,2.6013369140625,0.5231695175170898,-2.9859390258789062,0.2645014822483063
1733461489172347000,2.611346923828125,0.2800178527832031,-2.569704055786133,-0.19139280915260315
1733461489182326300,2.621326171875,0.05155181884765625,-2.151580810546875,-0.6181527376174927
1733461489192336000,2.6313359375,-0.27893638610839844,-1.6187353134155273,-1.0665677785873413
1733461489202345700,2.641345703125,-0.5448894500732422,-1.2705469131469727,-1.2015138864517212
1733461489212324900,2.651324951171875,-1.0397119522094727,-0.9823107719421387,-1.2894259691238403
1733461489222334700,2.661334716796875,-1.5510883331298828,-0.8511290550231934,-1.1436063051223755
1733461489232344300,2.67134423828125,-1.979532241821289,-0.8219790458679199,-0.9558439254760742
1733461489242323700,2.68132373046875,-2.0414061546325684,-0.776763916015625,-0.7812753915786743
1733461489252333600,2.69133349609375,-1.814258098602295,-0.6818032264709473,-0.7508105039596558
1733461489262343200,2.70134326171875,-1.4599852561950684,-0.6266164779663086,-0.7812150120735168
1733461489272322600,2.711322509765625,-1.1051430702209473,-0.6266279220581055,-0.7900420427322388
1733461489282332400,2.72133251953125,-0.5933218002319336,-0.6572329998016357,-0.6480865478515625
1733461489292342000,2.731342041015625,-0.21837520599365234,-0.748633861541748,-0.4399409294128418
1733461489302321400,2.7413212890625,0.07777118682861328,-0.7467474937438965,-0.39981377124786377
1733461489312331300,2.751331298828125,0.2765474319458008,-0.6985745429992676,-0.4008041024208069
1733461489322340900,2.7613408203125,0.6021385192871094,-0.4772167205810547,-0.2271205484867096
1733461489332350500,2.7713505859375,0.8181390762329102,-0.41469264030456543,-0.0543120801448822
1733461489342329900,2.781329833984375,0.8708820343017578,-0.2640566825866699,0.3532039225101471
1733461489352339500,2.79133935546875,0.8152608871459961,-0.055451393127441406,0.4033997654914856
1733461489362349300,2.801349365234375,0.7641887664794922,0.10418200492858887,0.36096006631851196
1733461489372328700,2.81132861328125,0.6666278839111328,0.22720122337341309,0.35346853733062744
1733461489382338300,2.82133837890625,0.6486568450927734,0.21355962753295898,0.31381767988204956
1733461489392348200,2.83134814453125,0.8538799285888672,0.08550763130187988,0.38549232482910156
1733461489402327600,2.84132763671875,0.8952569961547852,-0.01993536949157715,0.3894728124141693
1733461489412337200,2.851337158203125,1.070572853088379,-0.24473023414611816,0.5859414935112
1733461489422347000,2.861346923828125,1.360966682434082,-0.5076937675476074,0.4073473811149597
1733461489432326100,2.871326171875,1.879805564880371,-0.6354703903198242,0.06023629009723663
1733461489442335700,2.881335693359375,2.4807281494140625,-0.6875519752502441,0.029990673065185547
1733461489452345600,2.891345703125,3.362762451171875,-0.5616180896759033,0.5530927181243896
1733461489462325000,2.901324951171875,4.191725730895996,-0.4956216812133789,1.106655478477478
1733461489472334600,2.91133447265625,5.122095108032227,-0.2458484172821045,1.2508211135864258
1733461489482344400,2.921344482421875,5.607381820678711,-0.0264284610748291,1.0696208477020264
1733461489492323800,2.93132373046875,5.241487503051758,0.01652693748474121,1.020168662071228
1733461489502333400,2.94133349609375,4.294928550720215,-0.49472904205322266,0.8655216693878174
1733461489512343300,2.95134326171875,3.823762893676758,-1.1381356716156006,0.8200418949127197
1733461489522322400,2.961322509765625,3.905531883239746,-1.8075579404830933,0.8475030064582825
1733461489532332000,2.97133203125,4.576745986938477,-2.3603453636169434,1.4482932090759277
1733461489542342000,2.981341796875,5.164547920227051,-2.7961647510528564,2.0829336643218994
1733461489552321300,2.9913212890625,4.532895088195801,-2.853464365005493,2.196200370788574
1733461489562331100,3.0013310546875,2.83701229095459,-2.665601968765259,1.8527963161468506
1733461489572340700,3.0113408203125,1.0453710556030273,-2.673090934753418,1.9599963426589966
1733461489582350600,3.0213505859375,-0.9553136825561523,-2.694977045059204,2.073028564453125
1733461489592329700,3.031329833984375,-2.569730281829834,-2.691938877105713,1.9139891862869263
1733461489602339600,3.041339599609375,-3.5817270278930664,-2.8557591438293457,1.8236290216445923
1733461489612349400,3.051349365234375,-4.086315631866455,-3.1090660095214844,1.872642159461975
1733461489622328600,3.06132861328125,-3.909503936767578,-3.4436750411987305,2.2260940074920654
1733461489632338200,3.071338134765625,-3.0240468978881836,-3.754488229751587,2.5445072650909424
1733461489642348000,3.08134814453125,-2.3785781860351562,-3.4958059787750244,1.7767407894134521
1733461489652327400,3.091327392578125,-1.9358181953430176,-2.8950154781341553,0.7861678600311279
1733461489662337000,3.1013369140625,-1.8908534049987793,-2.5763297080993652,0.39090240001678467
1733461489672347000,3.111346923828125,-2.0120558738708496,-2.3239431381225586,0.08430537581443787
1733461489682326300,3.121326171875,-2.0939440727233887,-2.0240068435668945,-0.15972641110420227
1733461489692335900,3.1313359375,-2.0564675331115723,-1.6516978740692139,-0.4993472695350647
1733461489702345700,3.141345703125,-1.6844615936279297,-1.3174786567687988,-0.904209315776825
1733461489712324900,3.151324951171875,-1.3629837036132812,-0.9014840126037598,-1.3209514617919922
1733461489722334700,3.161334716796875,-1.029902458190918,-0.6034133434295654,-1.659224510192871
1733461489732344300,3.17134423828125,-0.6536045074462891,-0.5070095062255859,-1.5675060749053955
1733461489742323700,3.18132373046875,-0.3097810745239258,-0.5622856616973877,-1.243215560913086
1733461489752333600,3.19133349609375,-0.13323402404785156,-0.6488204002380371,-0.8659576177597046
1733461489762343200,3.20134326171875,-0.08219242095947266,-0.6588912010192871,-0.6107431650161743
1733461489772322600,3.211322509765625,-0.03977680206298828,-0.521359920501709,-0.5693823099136353
1733461489782332400,3.22133251953125,-0.1722574234008789,-0.3852810859680176,-0.5643841624259949
1733461489792342000,3.231342041015625,-0.3668937683105469,-0.2971630096435547,-0.5434426069259644
1733461489802321400,3.2413212890625,-0.753056526184082,-0.3027200698852539,-0.28755801916122437
1733461489812331300,3.251331298828125,-1.1922121047973633,-0.4708285331726074,0.1441214680671692
1733461489822340900,3.2613408203125,-1.536698818206787,-0.5740692615509033,0.5044665932655334
1733461489832350500,3.2713505859375,-1.6890945434570312,-0.6117603778839111,0.7655233144760132
1733461489842329900,3.281329833984375,-1.8059935569763184,-0.6353552341461182,0.903123140335083
1733461489852339500,3.29133935546875,-1.559889793395996,-0.6625535488128662,1.045722484588623
1733461489862349300,3.301349365234375,-1.1903667449951172,-0.7165496349334717,1.1152064800262451
1733461489872328700,3.31132861328125,-0.7832832336425781,-0.7721562385559082,1.2211663722991943
1733461489882338300,3.32133837890625,-0.4769144058227539,-0.740429162979126,1.274390697479248
1733461489892348200,3.33134814453125,-0.18690109252929688,-0.6590192317962646,1.1963441371917725
1733461489902327600,3.34132763671875,-0.02974224090576172,-0.4475135803222656,1.0542210340499878
1733461489912337200,3.351337158203125,0.2077350616455078,-0.18416666984558105,0.7698652744293213
1733461489922347000,3.361346923828125,0.4048194885253906,0.08971118927001953,0.4607091546058655
1733461489932326100,3.371326171875,0.6842136383056641,0.30426788330078125,0.1935274600982666
1733461489942335700,3.381335693359375,0.9270992279052734,0.43644237518310547,0.08674530684947968
1733461489952345600,3.391345703125,1.1605710983276367,0.4281332492828369,0.175808846950531
1733461489962325000,3.401324951171875,1.5794715881347656,0.24196386337280273,0.3521277606487274
1733461489972334600,3.41133447265625,2.0170717239379883,-0.02403879165649414,0.5544735193252563
1733461489982344400,3.421344482421875,2.4685420989990234,-0.30376291275024414,0.8647693395614624
1733461489992323800,3.43132373046875,2.8956918716430664,-0.4645392894744873,0.9484885334968567
1733461490002333400,3.44133349609375,3.3372249603271484,-0.41684889793395996,0.625908374786377
1733461490012343300,3.45134326171875,3.6501855850219727,-0.1537799835205078,0.020848944783210754
1733461490022322400,3.461322509765625,3.8090715408325195,0.2950751781463623,-0.5763267278671265
1733461490032332000,3.47133203125,3.7260303497314453,0.6563501358032227,-0.9189609289169312
1733461490042342000,3.481341796875,3.48276424407959,0.9099955558776855,-1.0871901512145996
1733461490052321300,3.4913212890625,3.1698198318481445,0.8857617378234863,-1.3842920064926147
1733461490062331100,3.5013310546875,3.032655715942383,0.5960886478424072,-1.6671583652496338
1733461490072340700,3.5113408203125,3.502495765686035,-0.14225411415100098,-1.7923305034637451
1733461490082350600,3.5213505859375,4.776582717895508,-1.019704818725586,-1.4716212749481201
1733461490092329700,3.531329833984375,6.636504173278809,-1.8911921977996826,-0.906575620174408
1733461490102339600,3.541339599609375,8.331619262695312,-2.460963249206543,-0.34670305252075195
1733461490112349400,3.551349365234375,9.507850646972656,-2.9637346267700195,0.43542537093162537
1733461490122328600,3.56132861328125,8.579363822937012,-3.0433876514434814,0.7050925493240356
1733461490132338200,3.571338134765625,5.603207588195801,-2.7061638832092285,-0.08310830593109131
1733461490142348000,3.58134814453125,1.88714599609375,-2.679234266281128,-0.23782303929328918
1733461490152327400,3.591327392578125,-1.4199457168579102,-2.78361177444458,-0.49058854579925537
1733461490162337000,3.6013369140625,-4.9445013999938965,-2.722872257232666,-0.8536287546157837
1733461490172347000,3.611346923828125,-7.629743576049805,-2.5416243076324463,-1.0181673765182495
1733461490182326300,3.621326171875,-9.352068901062012,-2.312506914138794,-1.0565080642700195
1733461490192109300,3.631109375,-9.169689178466797,-2.2164595127105713,-1.1602399349212646
1733461490202424300,3.64142431640625,-8.11220645904541,-2.6337456703186035,-0.7862586975097656
1733461490212324900,3.651324951171875,-6.646761894226074,-2.935375928878784,0.030440151691436768
1733461490222334700,3.661334716796875,-4.769418239593506,-3.121391534805298,0.8226261138916016
1733461490232344300,3.67134423828125,-3.0755724906921387,-3.358436107635498,1.3894585371017456
1733461490242323700,3.68132373046875,-1.318483829498291,-3.4757843017578125,1.8533639907836914
1733461490252333600,3.69133349609375,0.10545063018798828,-3.419402837753296,1.9802279472351074
1733461490262343200,3.70134326171875,0.7699222564697266,-3.166114568710327,1.991888165473938
1733461490272322600,3.711322509765625,1.0668001174926758,-2.8075385093688965,1.9376660585403442
1733461490282332400,3.72133251953125,1.0886335372924805,-2.4240050315856934,1.600614070892334
1733461490292342000,3.731342041015625,0.9069061279296875,-1.77671217918396,1.0590977668762207
1733461490302321400,3.7413212890625,0.7264528274536133,-1.234431266784668,0.677915096282959
1733461490312331300,3.751331298828125,0.5867462158203125,-0.7438864707946777,0.4015273451805115
1733461490322340900,3.7613408203125,0.6798553466796875,-0.335923433303833,0.3153808116912842
1733461490332350500,3.7713505859375,0.6391305923461914,-0.026633739471435547,0.3659685552120209
1733461490342329900,3.781329833984375,0.7012672424316406,0.12690067291259766,0.6429716348648071
1733461490352339500,3.79133935546875,0.9021492004394531,0.196488618850708,0.8125438690185547
1733461490362349300,3.801349365234375,0.9122934341430664,0.165055513381958,0.9661612510681152
1733461490372328700,3.81132861328125,0.8597679138183594,0.06759190559387207,1.1428675651550293
1733461490382338300,3.82133837890625,0.6659727096557617,0.1329488754272461,0.8486026525497437
1733461490392348200,3.83134814453125,0.5446863174438477,0.12370848655700684,0.5936874151229858
1733461490402327600,3.84132763671875,0.3851900100708008,0.04922747611999512,0.4047447443008423
1733461490412337200,3.851337158203125,0.26502418518066406,-0.05470776557922363,0.2848380506038666
1733461490422347000,3.861346923828125,0.24967002868652344,-0.23800921440124512,0.2680623531341553
1733461490432326100,3.871326171875,0.12726211547851562,-0.419539213180542,0.27174389362335205
1733461490442335700,3.881335693359375,-0.07076835632324219,-0.6263220310211182,0.24643641710281372
1733461490452345600,3.891345703125,-0.27036571502685547,-0.871768593788147,0.3345792889595032
1733461490462325000,3.901324951171875,-0.5699834823608398,-1.2047145366668701,0.4627361297607422
1733461490472334600,3.91133447265625,-0.7952785491943359,-1.482362985610962,0.6979058980941772
1733461490482344400,3.921344482421875,-0.8893728256225586,-1.6741493940353394,0.8039257526397705
1733461490492323800,3.93132373046875,-0.6807098388671875,-1.8182153701782227,0.7409392595291138
1733461490502333400,3.94133349609375,-0.19064807891845703,-1.8980352878570557,0.6974622011184692
1733461490512343300,3.95134326171875,0.5071563720703125,-1.9630135297775269,0.5313239693641663
1733461490522322400,3.961322509765625,1.116689682006836,-2.0579423904418945,0.3976181149482727
1733461490532332000,3.97133203125,1.6631736755371094,-2.0083343982696533,0.30585581064224243
1733461490542342000,3.981341796875,1.8795433044433594,-1.6456027030944824,0.1444503664970398
1733461490552321300,3.9913212890625,1.7116613388061523,-1.1543676853179932,-0.23045283555984497
1733461490562331100,4.0013310546875,1.110447883605957,-1.0144928693771362,-0.3669393062591553
1733461490572340700,4.0113408203125,0.1280202865600586,-1.1690986156463623,-0.17048317193984985
1733461490582350600,4.0213505859375,-0.3095855712890625,-1.58339262008667,0.5842351317405701
1733461490592329700,4.031329833984375,0.014239311218261719,-2.097593069076538,1.2949129343032837
1733461490602339600,4.041339599609375,1.0192070007324219,-2.185682773590088,1.4069154262542725
1733461490612349400,4.051349365234375,2.5251235961914062,-2.4396893978118896,1.2620038986206055
1733461490622328600,4.06132861328125,3.344972610473633,-2.9462406635284424,1.6726000308990479
1733461490632338200,4.071338134765625,3.6040334701538086,-2.924060821533203,1.4609622955322266
1733461490642348000,4.08134814453125,3.2298288345336914,-2.8319051265716553,1.0995349884033203
1733461490652327400,4.091327392578125,2.408717155456543,-2.6619961261749268,0.801939070224762
1733461490662337000,4.1013369140625,1.3312082290649414,-2.3697195053100586,0.5631155967712402
1733461490672347000,4.111346923828125,0.5517244338989258,-2.2906298637390137,0.4924146831035614
1733461490682326300,4.121326171875,-0.12514400482177734,-2.240295171737671,0.40743476152420044
1733461490692335900,4.1313359375,-0.5093002319335938,-2.1790356636047363,0.4816672205924988
1733461490702345700,4.141345703125,-0.6734914779663086,-2.181522846221924,0.5788114666938782
1733461490712324900,4.151324951171875,-0.9132556915283203,-2.1365933418273926,0.7599799633026123
1733461490722334700,4.161334716796875,-1.2809886932373047,-2.1018729209899902,0.8803020119667053
1733461490732344300,4.17134423828125,-1.780834674835205,-2.063793182373047,0.9354501962661743
1733461490742323700,4.18132373046875,-2.197448253631592,-1.9621851444244385,0.8830261826515198
1733461490752333600,4.19133349609375,-2.5849180221557617,-1.8544727563858032,0.7629629373550415
1733461490762343200,4.20134326171875,-2.4188852310180664,-1.8814345598220825,0.61311936378479
1733461490772322600,4.211322509765625,-2.0644774436950684,-2.06084942817688,0.7240598201751709
1733461490782332400,4.22133251953125,-1.4913535118103027,-2.1144442558288574,0.6801631450653076
1733461490792342000,4.231342041015625,-0.5591497421264648,-2.1158628463745117,0.46145299077033997
1733461490802321400,4.2413212890625,0.8133907318115234,-2.226658821105957,0.6323366761207581
1733461490812331300,4.251331298828125,2.029374122619629,-2.3491404056549072,0.6786743402481079
1733461490822340900,4.2613408203125,2.788698196411133,-1.9564926624298096,0.2576642632484436
1733461490832350500,4.2713505859375,3.1445484161376953,-1.568224549293518,-0.1994001418352127
1733461490842329900,4.281329833984375,3.1013689041137695,-1.3378620147705078,-0.3244989514350891
1733461490852339500,4.29133935546875,2.583634376525879,-1.1456232070922852,-0.45057493448257446
1733461490862349300,4.301349365234375,1.8505592346191406,-0.9300719499588013,-0.47051262855529785
1733461490872328700,4.31132861328125,1.165879249572754,-0.8944116830825806,-0.46769002079963684
1733461490882338300,4.32133837890625,0.3541393280029297,-0.9076474905014038,-0.2583538591861725
1733461490892348200,4.33134814453125,-0.3173961639404297,-0.980796217918396,-0.07110299170017242
1733461490902327600,4.34132763671875,-0.794525146484375,-0.9789713621139526,-0.010043680667877197
1733461490912337200,4.351337158203125,-1.135354995727539,-0.9908210039138794,0.060235485434532166
1733461490922347000,4.361346923828125,-1.3138427734375,-1.0279364585876465,0.13526669144630432
1733461490932326100,4.371326171875,-1.3484621047973633,-1.0827069282531738,0.16992351412773132
1733461490942335700,4.381335693359375,-1.3907642364501953,-1.0545227527618408,0.07806406915187836
1733461490952345600,4.391345703125,-1.4501171112060547,-0.8544484376907349,0.06958024203777313
1733461490962325000,4.401324951171875,-1.4255313873291016,-0.8585336208343506,0.12401881814002991
1733461490972334600,4.41133447265625,-1.5552020072937012,-0.8662383556365967,-0.13785767555236816
1733461490982344400,4.421344482421875,-1.6020302772521973,-0.8675622940063477,-0.21525515615940094
1733461490992323800,4.43132373046875,-1.5111494064331055,-0.9119230508804321,-0.3923411965370178
1733461491002333700,4.441333740234375,-1.2876510620117188,-1.0145998001098633,-0.4640282392501831
1733461491012343300,4.45134326171875,-0.7808055877685547,-1.1727653741836548,-0.3341367542743683
1733461491022322400,4.461322509765625,-0.23279190063476562,-1.2412962913513184,-0.18906179070472717
1733461491032332300,4.471332275390625,0.09438419342041016,-1.031535267829895,-0.3566214144229889
1733461491042342000,4.481341796875,0.3280601501464844,-0.6123158931732178,-0.6006740927696228
1733461491052321300,4.4913212890625,0.4545316696166992,-0.2498239278793335,-0.8531984090805054
1733461491062331100,4.5013310546875,0.584263801574707,0.11452054977416992,-0.9637999534606934
1733461491072340700,4.5113408203125,0.669529914855957,0.43240630626678467,-1.075010061264038
1733461491082350600,4.5213505859375,0.7246103286743164,0.6396853923797607,-0.9898542761802673
1733461491092330000,4.531330078125,0.8044919967651367,0.7076903581619263,-0.8798800706863403
1733461491102339600,4.541339599609375,0.9231281280517578,0.8176769018173218,-0.879143476486206
1733461491112349400,4.551349365234375,1.075714111328125,0.9982360601425171,-0.9819467067718506
1733461491122328600,4.56132861328125,1.2196693420410156,1.064319372177124,-1.0188117027282715
1733461491132338200,4.571338134765625,1.4281768798828125,1.198117971420288,-1.1094422340393066
1733461491142348000,4.58134814453125,1.4887514114379883,1.3191759586334229,-1.1435219049453735
1733461491152327400,4.591327392578125,1.4693937301635742,1.4673081636428833,-1.292127251625061
1733461491162337000,4.6013369140625,1.6040458679199219,1.558143138885498,-1.4718773365020752
1733461491172347000,4.611346923828125,1.8824491500854492,1.5879632234573364,-1.5887231826782227
1733461491182326300,4.621326171875,2.1966609954833984,1.5120763778686523,-1.4540574550628662
1733461491192336000,4.6313359375,2.5753955841064453,1.3466647863388062,-1.1921825408935547
1733461491202345700,4.641345703125,2.920792579650879,1.1767231225967407,-0.9303951263427734
1733461491212324900,4.651324951171875,3.1687421798706055,1.0908750295639038,-0.738372802734375
1733461491222334700,4.661334716796875,3.051706314086914,1.1149266958236694,-0.7653788328170776
1733461491232344600,4.671344482421875,2.7016782760620117,1.2449452877044678,-0.9559763669967651
1733461491242323700,4.68132373046875,2.4355154037475586,1.3632038831710815,-1.156205654144287
1733461491252333300,4.691333251953125,2.3189706802368164,1.3479881286621094,-1.2205464839935303
1733461491262343200,4.70134326171875,2.3251829147338867,1.1591354608535767,-1.304667353630066
1733461491272322600,4.711322509765625,2.656890869140625,0.7815203666687012,-1.384811282157898
1733461491282332200,4.721332275390625,3.3470258712768555,0.27553343772888184,-1.590498447418213
1733461491292342000,4.731342041015625,4.579587936401367,-0.5849350690841675,-1.2938029766082764
1733461491302321400,4.7413212890625,5.893139839172363,-1.5412527322769165,-0.6142333745956421
1733461491312331300,4.751331298828125,6.759495735168457,-2.30486798286438,-0.11046278476715088
1733461491322340900,4.7613408203125,7.136930465698242,-2.8914661407470703,0.48531290888786316
1733461491332350700,4.771350830078125,6.5668745040893555,-3.1433916091918945,0.47141069173812866
1733461491342329600,4.78132958984375,4.979122161865234,-3.0966012477874756,0.04068613052368164
1733461491352339500,4.79133935546875,2.6149911880493164,-3.0156590938568115,-0.696278989315033
1733461491362349300,4.801349365234375,0.3574028015136719,-3.0072953701019287,-1.185706377029419
1733461491372328700,4.81132861328125,-2.32725191116333,-2.906294345855713,-1.4445059299468994
1733461491382338300,4.82133837890625,-4.521266937255859,-2.8976287841796875,-1.4057893753051758
1733461491392348200,4.83134814453125,-6.190199851989746,-2.8917453289031982,-1.4325919151306152
1733461491402327600,4.84132763671875,-6.786767959594727,-2.883605718612671,-1.3240996599197388
1733461491412337200,4.851337158203125,-6.777226448059082,-2.6521031856536865,-1.542472004890442
1733461491422347000,4.861346923828125,-5.463911056518555,-2.514784336090088,-1.6147321462631226
1733461491432326100,4.871326171875,-4.102733612060547,-2.7077345848083496,-1.2447187900543213
1733461491442335700,4.881335693359375,-2.8209829330444336,-2.7515597343444824,-0.608092188835144
1733461491452345600,4.891345703125,-2.009622097015381,-2.606964349746704,-0.6430178880691528
1733461491462325000,4.901324951171875,-1.5879182815551758,-2.092620849609375,-0.8308960795402527
1733461491472334600,4.91133447265625,-1.4806175231933594,-1.6815648078918457,-0.9386685490608215
1733461491482344400,4.921344482421875,-1.694328784942627,-1.2468291521072388,-0.9601128101348877
1733461491492323800,4.93132373046875,-1.7700557708740234,-0.7754499912261963,-1.2439812421798706
1733461491502333400,4.94133349609375,-1.7043704986572266,-0.47635412216186523,-1.6533702611923218
1733461491512343300,4.95134326171875,-1.506086826324463,-0.4148378372192383,-1.7582677602767944
1733461491522322400,4.961322509765625,-1.1428766250610352,-0.2528564929962158,-1.8830909729003906
1733461491532332000,4.97133203125,-0.6304359436035156,-0.1167154312133789,-1.8388371467590332
1733461491542342000,4.981341796875,-0.04773521423339844,-0.2274634838104248,-1.652419924736023
1733461491552321300,4.9913212890625,0.24837017059326172,-0.29482173919677734,-1.3138453960418701
1733461491562331100,5.0013310546875,0.21910667419433594,-0.34827423095703125,-1.0323433876037598
1733461491572340700,5.0113408203125,-0.23238372802734375,-0.3204052448272705,-0.8999606370925903
1733461491582350600,5.0213505859375,-0.7513818740844727,-0.2754020690917969,-0.8764309883117676
1733461491592329700,5.031329833984375,-1.467526912689209,-0.238663911819458,-0.9106310606002808
1733461491602339600,5.041339599609375,-2.0196385383605957,-0.15384936332702637,-0.9230052828788757
1733461491612349400,5.051349365234375,-2.4344682693481445,-0.15021395683288574,-0.9865723252296448
1733461491622328600,5.06132861328125,-2.5766592025756836,-0.11628580093383789,-0.9630141854286194
1733461491632338200,5.071338134765625,-2.5066819190979004,-0.07865357398986816,-1.015857458114624
1733461491642348000,5.08134814453125,-2.3564443588256836,-0.012668848037719727,-1.0987093448638916
1733461491652327400,5.091327392578125,-2.183370590209961,0.04791426658630371,-1.1356686353683472
1733461491662337000,5.1013369140625,-1.9898805618286133,0.12214207649230957,-1.0584036111831665
1733461491672347000,5.111346923828125,-1.7303786277770996,0.10669207572937012,-0.9733636975288391
1733461491682326300,5.121326171875,-1.33349609375,0.18768048286437988,-1.0386669635772705
1733461491692335900,5.1313359375,-0.8798112869262695,0.3048233985900879,-1.191930890083313
1733461491702345700,5.141345703125,-0.4455127716064453,0.4662151336669922,-1.3041834831237793
1733461491712324900,5.151324951171875,-0.22637176513671875,0.6481873989105225,-1.3040621280670166
1733461491722334700,5.161334716796875,0.021414756774902344,0.810396671295166,-1.2666211128234863
1733461491732344600,5.171344482421875,0.20577716827392578,0.9126777648925781,-0.9291366338729858
1733461491742323700,5.18132373046875,0.31260204315185547,0.9882080554962158,-0.47822219133377075
1733461491752333600,5.19133349609375,0.2921895980834961,1.1509220600128174,-0.37130510807037354
1733461491762343200,5.20134326171875,0.22422027587890625,1.1990041732788086,-0.15595024824142456
1733461491772322600,5.211322509765625,0.2857666015625,1.08781099319458,0.19556012749671936
1733461491782332700,5.221332763671875,0.35144519805908203,0.7318601608276367,0.6855150461196899
1733461491792342000,5.231342041015625,0.6312437057495117,0.26081180572509766,1.0178804397583008
1733461491802321400,5.2413212890625,1.495107650756836,0.004705905914306641,1.474435806274414
1733461491812331300,5.251331298828125,2.7365951538085938,-0.2533454895019531,1.8142601251602173
1733461491822340900,5.2613408203125,3.8871564865112305,-0.3969688415527344,2.0592124462127686
1733461491832350700,5.271350830078125,4.822854042053223,-0.2047135829925537,1.686431646347046
1733461491842329900,5.281329833984375,5.547799110412598,-0.26462411880493164,1.975926160812378
1733461491852339500,5.29133935546875,5.845370292663574,-0.33766746520996094,2.265496015548706
1733461491862349300,5.301349365234375,6.098061561584473,-0.4399886131286621,2.443754196166992
1733461491872328700,5.31132861328125,6.178092956542969,-0.5356760025024414,2.446193218231201
1733461491882338300,5.32133837890625,5.845503807067871,-0.5995945930480957,1.9756498336791992
1733461491892348200,5.33134814453125,5.126702308654785,-0.620335578918457,0.8362715840339661
1733461491902327600,5.34132763671875,4.705055236816406,-1.0010401010513306,0.24984833598136902
1733461491912337200,5.351337158203125,4.423496246337891,-1.695015549659729,0.2447371929883957
1733461491922347000,5.361346923828125,4.501540184020996,-2.261725664138794,0.22576726973056793
1733461491932326100,5.371326171875,4.785003662109375,-2.534972667694092,0.34168124198913574
1733461491942335700,5.381335693359375,5.066184043884277,-2.7704849243164062,0.5354995131492615
1733461491952345600,5.391345703125,4.7651214599609375,-2.8498523235321045,0.4942481815814972
1733461491962325000,5.401324951171875,3.6955490112304688,-2.9000115394592285,0.41065627336502075
1733461491972334600,5.41133447265625,1.974766731262207,-2.965853452682495,0.3876199722290039
1733461491982344400,5.421344482421875,-0.5784130096435547,-2.8929851055145264,0.7918554544448853
1733461491992323800,5.43132373046875,-3.189650058746338,-3.5978221893310547,1.12265145778656
1733461492002333700,5.441333740234375,-4.874336242675781,-3.879655361175537,1.0729830265045166
1733461492012343300,5.45134326171875,-6.098208427429199,-3.509446382522583,0.983580470085144
1733461492022322400,5.461322509765625,-7.228971481323242,-3.3569869995117188,1.034122347831726
1733461492032332300,5.471332275390625,-7.24554443359375,-3.464928150177002,1.3739099502563477
1733461492042342000,5.481341796875,-5.841125011444092,-3.6398346424102783,1.4918158054351807
1733461492052321300,5.4913212890625,-3.926298141479492,-3.684563159942627,1.4772992134094238
1733461492062331100,5.5013310546875,-2.652432918548584,-3.4561080932617188,1.2794429063796997
1733461492072340700,5.5113408203125,-1.9324417114257812,-3.119110345840454,0.8437009453773499
1733461492082350600,5.5213505859375,-1.666435718536377,-2.898920774459839,0.9225966930389404
1733461492092330000,5.531330078125,-1.5365405082702637,-2.3858487606048584,0.5615919232368469
1733461492102339600,5.541339599609375,-1.1367902755737305,-1.9246248006820679,0.036665141582489014
1733461492112349200,5.55134912109375,-1.0422868728637695,-1.590468168258667,-0.2957915663719177
1733461492122328600,5.56132861328125,-1.0617055892944336,-1.1393961906433105,-0.4915531873703003
1733461492132338200,5.571338134765625,-1.2418594360351562,-0.8519232273101807,-0.716006875038147
1733461492142348000,5.58134814453125,-1.4066147804260254,-0.5683403015136719,-0.8339419960975647
1733461492152327400,5.591327392578125,-1.4728212356567383,-0.4735276699066162,-0.8424897193908691
1733461492162337000,5.6013369140625,-1.2848806381225586,-0.39905691146850586,-0.5291685461997986
1733461492172347000,5.611346923828125,-1.0480976104736328,-0.3982236385345459,-0.23160499334335327
1733461492182326300,5.621326171875,-0.780613899230957,-0.35324645042419434,-0.06744897365570068
1733461492192336000,5.6313359375,-0.6651802062988281,-0.31937241554260254,0.02561706304550171
1733461492202345700,5.641345703125,-0.6105442047119141,-0.2779064178466797,0.10738539695739746
1733461492212324900,5.651324951171875,-0.6114969253540039,-0.3135416507720947,0.20930084586143494
1733461492222334700,5.661334716796875,-0.5820283889770508,-0.33950209617614746,0.3393513262271881
1733461492232344600,5.671344482421875,-0.5679082870483398,-0.33850526809692383,0.4821919798851013
1733461492242323700,5.68132373046875,-0.5936193466186523,-0.29006266593933105,0.5597051382064819
1733461492252333300,5.691333251953125,-0.6212005615234375,-0.23386859893798828,0.6792415976524353
1733461492262343200,5.70134326171875,-0.5911502838134766,-0.22142410278320312,0.821650505065918
1733461492272322600,5.711322509765625,-0.49632835388183594,-0.2401888370513916,0.996041476726532
1733461492282332200,5.721332275390625,-0.43466663360595703,-0.20479059219360352,0.9754047393798828
1733461492292342000,5.731342041015625,-0.2881031036376953,-0.19675469398498535,0.8886420130729675
1733461492302321400,5.7413212890625,-0.053863525390625,-0.11322855949401855,0.8288499116897583
1733461492312331300,5.751331298828125,0.20686912536621094,-0.06198525428771973,0.6592454314231873
1733461492322340900,5.7613408203125,0.5388116836547852,0.03896808624267578,0.5018126964569092
1733461492332350700,5.771350830078125,0.9128322601318359,0.19381427764892578,0.2841187119483948
1733461492342329600,5.78132958984375,1.247100830078125,0.34706664085388184,0.11590032279491425
1733461492352339500,5.79133935546875,1.4949684143066406,0.38859081268310547,0.06810717284679413
1733461492362349300,5.801349365234375,1.8599472045898438,0.34732556343078613,0.10467194020748138
1733461492372328700,5.81132861328125,2.456355094909668,0.17998933792114258,0.21567359566688538
1733461492382338300,5.82133837890625,3.3793258666992188,-0.09432721138000488,0.4201972484588623
1733461492392348200,5.83134814453125,4.353377342224121,-0.38646793365478516,0.6180042624473572
1733461492402327600,5.84132763671875,5.391023635864258,-0.5643126964569092,0.6955451965332031
1733461492412337200,5.851337158203125,5.955680847167969,-0.4467766284942627,0.4273017346858978
1733461492422347000,5.861346923828125,5.8962297439575195,-0.06833982467651367,-0.4508790671825409
1733461492432326100,5.871326171875,5.159367561340332,0.3413424491882324,-1.1843690872192383
1733461492442335700,5.881335693359375,3.8582935333251953,0.6433923244476318,-1.649261713027954
1733461492452345600,5.891345703125,2.662332534790039,0.6893813610076904,-1.6959253549575806
1733461492462325000,5.901324951171875,1.9930524826049805,0.25641894340515137,-1.7294799089431763
1733461492472334600,5.91133447265625,2.0395565032958984,-0.6242752075195312,-1.653134822845459
1733461492482344400,5.921344482421875,2.9347238540649414,-1.5015751123428345,-1.3479971885681152
1733461492492323800,5.93132373046875,4.552173614501953,-2.3188247680664062,-0.7267031073570251
1733461492502333400,5.94133349609375,5.646112442016602,-2.781491994857788,-0.32643595337867737
1733461492512343300,5.95134326171875,5.671201705932617,-2.867750406265259,-0.44275015592575073
1733461492522322400,5.961322509765625,4.504460334777832,-2.8068296909332275,-0.7901203036308289
1733461492532332000,5.97133203125,1.9820051193237305,-2.872931480407715,-1.0266211032867432
1733461492542342000,5.981341796875,-0.7754631042480469,-2.949145793914795,-0.9687100648880005
1733461492552321300,5.9913212890625,-3.8069639205932617,-2.9947850704193115,-0.9709304571151733
1733461492562331100,6.0013310546875,-6.30615234375,-3.060957193374634,-1.2019726037979126
1733461492572340700,6.0113408203125,-7.541073799133301,-3.0189197063446045,-1.2657227516174316
1733461492582350600,6.0213505859375,-7.542552947998047,-2.991133213043213,-1.2724303007125854
1733461492592329700,6.031329833984375,-6.5343217849731445,-3.0328195095062256,-0.9139654040336609
1733461492602339600,6.041339599609375,-4.827174663543701,-3.3769145011901855,-0.08612915873527527
1733461492612349400,6.051349365234375,-2.9204440116882324,-3.5607597827911377,0.694627046585083
1733461492622328600,6.06132861328125,-1.509908676147461,-3.7168126106262207,1.1674073934555054
1733461492632338200,6.071338134765625,-0.5610885620117188,-3.374319553375244,1.0851263999938965
1733461492642348000,6.08134814453125,-0.08101940155029297,-2.8363497257232666,0.7177677750587463
1733461492652327400,6.091327392578125,0.06615447998046875,-2.428159475326538,0.49510347843170166
1733461492662337000,6.1013369140625,-0.16660499572753906,-1.8731834888458252,0.05855821073055267
1733461492672347000,6.111346923828125,-0.4044036865234375,-1.253517985343933,-0.41428208351135254
1733461492682326300,6.121326171875,-0.440887451171875,-0.7986958026885986,-0.7860395908355713
1733461492692335900,6.1313359375,-0.3686809539794922,-0.33661890029907227,-0.9575204849243164
1733461492702345700,6.141345703125,-0.3156871795654297,-0.08253264427185059,-1.0594066381454468
1733461492712324900,6.151324951171875,-0.1808309555053711,0.0984199047088623,-1.0077142715454102
1733461492722334700,6.161334716796875,-0.17888355255126953,0.21836256980895996,-0.873538076877594
1733461492732344600,6.171344482421875,-0.38785266876220703,0.29326653480529785,-0.7716293334960938
1733461492742323700,6.18132373046875,-0.8190145492553711,0.3446800708770752,-0.7259969115257263
1733461492752333600,6.19133349609375,-1.3501291275024414,0.3649022579193115,-0.5995086431503296
1733461492762343200,6.20134326171875,-1.7857398986816406,0.2514331340789795,-0.6197771430015564
1733461492772322600,6.211322509765625,-2.098153591156006,0.14662790298461914,-0.43739116191864014
1733461492782332400,6.22133251953125,-2.0492444038391113,-0.002737760543823242,-0.5185626149177551
1733461492792342000,6.231342041015625,-1.9245200157165527,-0.12538766860961914,-0.5898128747940063
1733461492802321400,6.2413212890625,-1.623204231262207,-0.25090837478637695,-0.6064929962158203
1733461492812331300,6.251331298828125,-1.2145633697509766,-0.3727724552154541,-0.649297297000885
1733461492822340900,6.2613408203125,-0.7990360260009766,-0.45789098739624023,-0.7446305751800537
1733461492832350500,6.2713505859375,-0.4362602233886719,-0.42793774604797363,-0.8411840796470642
1733461492842329900,6.281329833984375,-0.05195140838623047,-0.3524930477142334,-0.909298300743103
1733461492852339500,6.29133935546875,0.22691726684570312,-0.3006784915924072,-0.8673567175865173
1733461492862349300,6.301349365234375,0.4315757751464844,-0.1841602325439453,-0.6756998896598816
1733461492872328700,6.31132861328125,0.5905914306640625,-0.09816384315490723,-0.4298690855503082
1733461492882338300,6.32133837890625,0.9476861953735352,0.01861429214477539,0.04476027190685272
1733461492892348200,6.33134814453125,1.6266117095947266,0.056859493255615234,0.2458912581205368
1733461492902327600,6.34132763671875,2.2003660202026367,0.05847644805908203,0.18839259445667267
1733461492912337200,6.351337158203125,3.01143741607666,-0.0691382884979248,0.09932684898376465
1733461492922347000,6.361346923828125,3.789109230041504,-0.18583393096923828,-0.11869549751281738
1733461492932326100,6.371326171875,4.548150062561035,-0.2616124153137207,-0.21668139100074768
1733461492942335700,6.381335693359375,5.019798278808594,-0.20634722709655762,-0.1448240578174591
1733461492952345600,6.391345703125,5.494828224182129,0.04338335990905762,0.08352094888687134
1733461492962325000,6.401324951171875,5.714641571044922,0.36043214797973633,0.18480420112609863
1733461492972334600,6.41133447265625,5.843555450439453,0.6290919780731201,0.11327680945396423
1733461492982344400,6.421344482421875,5.727033615112305,0.5981190204620361,-0.08465510606765747
1733461492992323800,6.43132373046875,4.875958442687988,0.05007481575012207,-0.3302018642425537
1733461493002333700,6.441333740234375,3.694769859313965,-0.9893535375595093,-0.17502158880233765
1733461493012343300,6.45134326171875,3.2043027877807617,-1.8896055221557617,-0.16802668571472168
1733461493022322400,6.461322509765625,3.735774040222168,-2.6558523178100586,0.036243736743927
1733461493032332300,6.471332275390625,4.632916450500488,-3.0512256622314453,0.5516873598098755
1733461493042342000,6.481341796875,5.192022323608398,-3.1936354637145996,0.8913686275482178
1733461493052321300,6.4913212890625,4.6802473068237305,-3.169769763946533,1.0037044286727905
1733461493062331100,6.5013310546875,2.465033531188965,-2.9967994689941406,0.8500298261642456
1733461493072340700,6.5113408203125,-0.06915092468261719,-3.0406548976898193,0.908475935459137
1733461493082350600,6.5213505859375,-2.949967384338379,-3.1712594032287598,1.1533315181732178
1733461493092330000,6.531330078125,-5.568599700927734,-3.0948081016540527,1.190710425376892
1733461493102339600,6.541339599609375,-7.913730621337891,-2.886990547180176,0.8450701236724854
1733461493112349200,6.55134912109375,-9.089449882507324,-2.5744500160217285,-0.034235745668411255
1733461493122328600,6.56132861328125,-8.285293579101562,-2.5064010620117188,-0.5758415460586548
1733461493132338200,6.571338134765625,-6.4509172439575195,-2.944269895553589,-0.5889630317687988
1733461493142348000,6.58134814453125,-4.230927467346191,-3.3650128841400146,-0.14398032426834106
1733461493152327400,6.591327392578125,-1.7347016334533691,-3.841320514678955,1.0222092866897583
1733461493162337000,6.6013369140625,-0.22468090057373047,-4.0230712890625,1.7817091941833496
1733461493172347000,6.611346923828125,0.6259880065917969,-3.352700710296631,1.8214713335037231
1733461493182326300,6.621326171875,1.1610631942749023,-2.471160411834717,1.280572772026062
1733461493192336000,6.6313359375,1.1127920150756836,-1.6266460418701172,0.6836575269699097
1733461493202345700,6.641345703125,0.5435686111450195,-1.0341074466705322,0.4063790440559387
1733461493212324900,6.651324951171875,-0.3024921417236328,-0.3742396831512451,0.02961134910583496
1733461493222334700,6.661334716796875,-1.2602462768554688,0.19113922119140625,-0.534361720085144
1733461493232344600,6.671344482421875,-1.653003215789795,0.4914069175720215,-0.6794916391372681
1733461493242323700,6.68132373046875,-1.659121036529541,0.44257211685180664,-0.39157789945602417
1733461493252333300,6.691333251953125,-1.5056099891662598,0.2907891273498535,-0.08338987827301025
1733461493262343200,6.70134326171875,-1.2153921127319336,0.11077499389648438,0.23564651608467102
1733461493272322600,6.711322509765625,-0.8252992630004883,-0.002424001693725586,0.5250524282455444
1733461493282332200,6.721332275390625,-0.42319297790527344,-0.1773824691772461,0.7736511826515198
1733461493292342000,6.731342041015625,-0.20101451873779297,-0.28087854385375977,0.9257733225822449
1733461493302321400,6.7413212890625,-0.029363632202148438,-0.31611061096191406,1.003544569015503
1733461493312331300,6.751331298828125,0.055954933166503906,-0.32694315910339355,1.0433005094528198
1733461493322340900,6.7613408203125,0.1674480438232422,-0.30155014991760254,1.019432544708252
1733461493332350700,6.771350830078125,0.0011930465698242188,-0.3482081890106201,1.0099247694015503
1733461493342329600,6.78132958984375,-0.2081594467163086,-0.3668534755706787,1.1632862091064453
1733461493352339500,6.79133935546875,-0.46126842498779297,-0.3530161380767822,1.1892398595809937
1733461493362349300,6.801349365234375,-0.5793886184692383,-0.25578856468200684,1.0700006484985352
1733461493372328700,6.81132861328125,-0.4204378128051758,-0.08910441398620605,1.0528186559677124
1733461493382338300,6.82133837890625,-0.21457195281982422,0.05686497688293457,1.2244880199432373
1733461493392348200,6.83134814453125,0.06728363037109375,0.26209044456481934,1.421574592590332
1733461493402327600,6.84132763671875,0.21231651306152344,0.3977522850036621,0.9001957774162292
1733461493412337200,6.851337158203125,0.2361898422241211,0.4621710777282715,0.30700331926345825
1733461493422347000,6.861346923828125,0.6896028518676758,0.3897702693939209,-0.1529858261346817
1733461493432326100,6.871326171875,1.6841440200805664,0.4749267101287842,-0.6369664669036865
1733461493442335700,6.881335693359375,3.713254928588867,0.40266919136047363,-0.8974422216415405
1733461493452345600,6.891345703125,5.761493682861328,0.12912464141845703,-0.9149941205978394
1733461493462325000,6.901324951171875,7.448197364807129,-0.16833925247192383,-0.6667258739471436
1733461493472334600,6.91133447265625,8.056046485900879,-0.374161958694458,-0.48455601930618286
1733461493482344400,6.921344482421875,7.357654571533203,-0.6014959812164307,-0.5520071983337402
1733461493492323800,6.93132373046875,5.51496696472168,-0.6443383693695068,-0.7603442072868347
1733461493502333400,6.94133349609375,2.879789352416992,-0.36363863945007324,-0.8241467475891113
1733461493512343300,6.95134326171875,0.8611164093017578,-0.13748836517333984,-0.7943673729896545
1733461493522322400,6.961322509765625,-0.8606815338134766,0.009114265441894531,-1.2128887176513672
1733461493532332000,6.97133203125,-1.9108567237854004,-0.2350919246673584,-1.8035945892333984
1733461493542342000,6.981341796875,-1.461127758026123,-0.8411493301391602,-2.4280028343200684
1733461493552321300,6.9913212890625,0.9504318237304688,-1.6340556144714355,-2.6240932941436768
1733461493562331100,7.0013310546875,3.401240348815918,-2.4513401985168457,-2.2062478065490723
1733461493572340700,7.0113408203125,5.267799377441406,-3.063364028930664,-1.5580966472625732
1733461493582350600,7.0213505859375,5.571874618530273,-3.12823486328125,-1.5207241773605347
1733461493592329700,7.031329833984375,4.0987443923950195,-3.030480146408081,-1.7100459337234497
1733461493602339600,7.041339599609375,1.7754287719726562,-2.9876160621643066,-1.9828710556030273
1733461493612349400,7.051349365234375,-1.2455358505249023,-2.787661075592041,-2.322117328643799
1733461493622328600,7.06132861328125,-3.7322683334350586,-2.455402374267578,-2.937009811401367
1733461493632338200,7.071338134765625,-5.635553359985352,-2.132084369659424,-3.408170461654663
1733461493642348000,7.08134814453125,-6.348155975341797,-1.9925761222839355,-3.5343475341796875
1733461493652327400,7.091327392578125,-5.8853254318237305,-2.0169830322265625,-3.0752644538879395
1733461493662337000,7.1013369140625,-4.240225791931152,-2.3793983459472656,-1.6543704271316528
1733461493672347000,7.111346923828125,-2.2815070152282715,-2.893123149871826,-0.3037363588809967
1733461493682326300,7.121326171875,-0.5362386703491211,-3.114657163619995,0.4487021565437317
1733461493692335900,7.1313359375,0.19713497161865234,-2.8405165672302246,0.47890016436576843
1733461493702345700,7.141345703125,0.06673717498779297,-2.348825216293335,-0.002987414598464966
1733461493712325000,7.1513251953125,-0.3836793899536133,-1.8706823587417603,-0.5366746783256531
1733461493722334700,7.161334716796875,-1.1209545135498047,-1.514467477798462,-0.8228558301925659
1733461493732344600,7.171344482421875,-1.652742862701416,-1.3255077600479126,-0.9484238624572754
1733461493742323700,7.18132373046875,-1.7968096733093262,-1.0624340772628784,-1.2139657735824585
1733461493752333600,7.19133349609375,-1.5955286026000977,-0.7670466899871826,-1.4925270080566406
1733461493762343200,7.20134326171875,-1.1689300537109375,-0.4856247901916504,-1.7562836408615112
1733461493772322600,7.211322509765625,-0.8104515075683594,-0.2978086471557617,-1.89406156539917
1733461493782332400,7.22133251953125,-0.5261039733886719,-0.2167818546295166,-1.801137089729309
1733461493792342000,7.231342041015625,-0.4081859588623047,-0.21498632431030273,-1.6254302263259888
1733461493802321400,7.2413212890625,-0.5409584045410156,-0.19318127632141113,-1.5147087574005127
1733461493812331300,7.251331298828125,-0.7360334396362305,-0.20183801651000977,-1.3044683933258057
1733461493822340900,7.2613408203125,-0.9699630737304688,-0.25145554542541504,-1.0939558744430542
1733461493832350500,7.2713505859375,-1.212111473083496,-0.33602261543273926,-1.0529118776321411
1733461493842329900,7.281329833984375,-1.276158332824707,-0.3874022960662842,-1.0024381875991821
1733461493852339500,7.29133935546875,-1.2344341278076172,-0.4308156967163086,-0.9064222574234009
1733461493862349300,7.301349365234375,-1.2188615798950195,-0.5158114433288574,-0.9109053015708923
1733461493872328700,7.31132861328125,-1.1648740768432617,-0.5583055019378662,-1.0401902198791504
1733461493882338300,7.32133837890625,-0.9102907180786133,-0.5279831886291504,-1.0651676654815674
1733461493892348200,7.33134814453125,-0.6922121047973633,-0.5059821605682373,-1.0963858366012573
1733461493902327600,7.34132763671875,-0.36694812774658203,-0.2817423343658447,-1.165204644203186
1733461493912337200,7.351337158203125,-0.12204647064208984,-0.06867551803588867,-1.1678340435028076
1733461493922347000,7.361346923828125,0.03926372528076172,0.25412678718566895,-1.0737435817718506
1733461493932326100,7.371326171875,0.046820640563964844,0.46175527572631836,-0.8088951110839844
1733461493942335700,7.381335693359375,0.14175128936767578,0.5156021118164062,-0.5565557479858398
1733461493952345600,7.391345703125,0.33151912689208984,0.40314674377441406,-0.5426434874534607
1733461493962325000,7.401324951171875,0.6728372573852539,0.20519542694091797,-0.7187456488609314
1733461493972334600,7.41133447265625,1.353743553161621,0.023636341094970703,-0.8820940256118774
1733461493982344400,7.421344482421875,2.5869674682617188,-0.24549198150634766,-0.9320780038833618
1733461493992323800,7.43132373046875,3.5976524353027344,-0.44911670684814453,-1.021489143371582
1733461494002333700,7.441333740234375,4.588661193847656,-0.4129979610443115,-1.0235379934310913
1733461494012343300,7.45134326171875,5.647393226623535,-0.26043128967285156,-0.9191598892211914
1733461494022322400,7.461322509765625,6.478266716003418,-0.14190292358398438,-0.7084807753562927
1733461494032332300,7.471332275390625,7.222103118896484,-0.042974233627319336,-0.5054194927215576
1733461494042342000,7.481341796875,6.864044189453125,-0.25124335289001465,-0.25543323159217834
1733461494052321300,7.4913212890625,5.366947174072266,-0.7384486198425293,0.08005467057228088
1733461494062331100,7.5013310546875,4.179649353027344,-1.4163014888763428,0.65529865026474
1733461494072340700,7.5113408203125,3.081000328063965,-2.2271175384521484,0.8869524598121643
1733461494082350600,7.5213505859375,2.8262948989868164,-2.5140833854675293,0.7990052103996277
1733461494092330000,7.531330078125,3.074131965637207,-2.619168281555176,0.567658007144928
1733461494102339600,7.541339599609375,3.323772430419922,-2.5992887020111084,0.5524524450302124
1733461494112349400,7.551349365234375,2.7182722091674805,-2.502103328704834,0.6543132662773132
1733461494122328600,7.56132861328125,1.2622528076171875,-2.5289764404296875,0.8498212695121765
1733461494132338200,7.571338134765625,-0.3612947463989258,-2.6095821857452393,1.1261504888534546
1733461494142348000,7.58134814453125,-2.054938316345215,-2.683152198791504,1.1570298671722412
1733461494152327400,7.591327392578125,-3.3616418838500977,-2.9105310440063477,1.3438612222671509
1733461494162337000,7.6013369140625,-4.1261820793151855,-3.012417793273926,1.5011711120605469
1733461494172347000,7.611346923828125,-4.180327415466309,-3.0941994190216064,1.4699037075042725
1733461494182326300,7.621326171875,-3.630614757537842,-3.241954803466797,1.4471509456634521
1733461494192336000,7.6313359375,-2.818605899810791,-3.1473348140716553,1.2310726642608643
1733461494202345700,7.641345703125,-2.199695587158203,-2.662783145904541,0.415202260017395
1733461494212325000,7.6513251953125,-2.1229424476623535,-2.1224281787872314,-0.4154012203216553
1733461494222334700,7.661334716796875,-2.4736971855163574,-1.7862495183944702,-0.7967255115509033
1733461494232344600,7.671344482421875,-2.66245698928833,-1.4951807260513306,-1.0136839151382446
1733461494242323700,7.68132373046875,-2.5978007316589355,-1.2766340970993042,-1.035749077796936
1733461494252333300,7.691333251953125,-2.407804489135742,-1.131915807723999,-0.9608808159828186
1733461494262343200,7.70134326171875,-2.140566349029541,-0.9935779571533203,-0.7642582654953003
1733461494272322600,7.711322509765625,-1.8340368270874023,-0.853402853012085,-0.5321952104568481
1733461494282332200,7.721332275390625,-1.6552271842956543,-0.8091320991516113,-0.2776910960674286
1733461494292342000,7.731342041015625,-1.4071664810180664,-0.7407176494598389,-0.05295418202877045
1733461494302321400,7.7413212890625,-1.3574590682983398,-0.6233720779418945,0.01095627248287201
1733461494312331300,7.751331298828125,-1.4863905906677246,-0.46355605125427246,-0.1703297346830368
1733461494322340900,7.7613408203125,-1.5921626091003418,-0.38308143615722656,-0.2787749767303467
1733461494332350700,7.771350830078125,-1.670720100402832,-0.40094614028930664,-0.14398586750030518
1733461494342329600,7.78132958984375,-1.693619728088379,-0.4803133010864258,0.034713149070739746
1733461494352339500,7.79133935546875,-1.4937500953674316,-0.5741469860076904,0.2561284303665161
1733461494362349300,7.801349365234375,-1.0788860321044922,-0.5823698043823242,0.47778230905532837
1733461494372328700,7.81132861328125,-0.645294189453125,-0.5698142051696777,0.5270050764083862
1733461494382338300,7.82133837890625,-0.3505678176879883,-0.4875960350036621,0.48213818669319153
1733461494392348200,7.83134814453125,-0.23922252655029297,-0.3293757438659668,0.5124567151069641
1733461494402327600,7.84132763671875,-0.09603404998779297,-0.2740139961242676,0.5574283003807068
1733461494412337200,7.851337158203125,0.05939292907714844,-0.2434859275817871,0.6560164093971252
1733461494422347000,7.861346923828125,0.1396961212158203,-0.10384631156921387,0.5693398118019104
1733461494432326100,7.871326171875,0.3235740661621094,0.050118207931518555,0.44327372312545776
1733461494442335700,7.881335693359375,0.45182037353515625,0.10774540901184082,0.2903074622154236
1733461494452345600,7.891345703125,0.4802980422973633,0.1751093864440918,-0.017160363495349884
1733461494462325000,7.901324951171875,0.6661386489868164,0.1391303539276123,-0.36403095722198486
1733461494472334600,7.91133447265625,1.0309648513793945,0.13312268257141113,-0.5688638687133789
1733461494482344400,7.921344482421875,1.7742862701416016,0.16074848175048828,-0.46466201543807983
1733461494492323800,7.93132373046875,2.667095184326172,0.18512463569641113,-0.4429236650466919
1733461494502333400,7.94133349609375,3.216838836669922,0.13344335556030273,-0.40937167406082153
1733461494512343300,7.95134326171875,3.5701913833618164,0.02510523796081543,0.07175467163324356
1733461494522322400,7.961322509765625,3.591031074523926,-0.2275240421295166,0.35369953513145447
1733461494532332000,7.97133203125,3.676790237426758,-0.4163522720336914,0.5585913062095642
1733461494542342000,7.981341796875,3.796163558959961,-0.30608701705932617,0.34636563062667847
1733461494552321300,7.9913212890625,4.03327751159668,0.0374147891998291,-0.0700564831495285
1733461494562331100,8.0013310546875,4.086879730224609,0.430433988571167,-0.8252781629562378
1733461494572340700,8.0113408203125,3.780193328857422,0.1961963176727295,-1.5304688215255737
1733461494582350600,8.0213505859375,3.185112953186035,-0.2583761215209961,-1.8428910970687866
1733461494592329700,8.031329833984374,3.6124658584594727,-0.6004346609115601,-2.8594179153442383
1733461494602339600,8.041339599609374,4.808999061584473,-1.296723484992981,-3.146090269088745
1733461494612349400,8.051349365234374,6.317420959472656,-2.017068862915039,-2.6808719635009766
1733461494622328600,8.06132861328125,7.477129936218262,-2.5905678272247314,-1.7296302318572998
1733461494632338200,8.071338134765625,6.8000688552856445,-2.773176670074463,-1.4316420555114746
1733461494642348000,8.08134814453125,4.357685089111328,-2.647954225540161,-1.6775306463241577
1733461494652327400,8.091327392578124,0.7991237640380859,-2.631554365158081,-1.8524377346038818
1733461494662337000,8.1013369140625,-2.2642674446105957,-2.6408886909484863,-1.8650829792022705
1733461494672347000,8.111346923828124,-5.158949375152588,-2.512010097503662,-2.315953016281128
1733461494682326300,8.121326171875,-6.903653621673584,-2.359872817993164,-2.850696086883545
1733461494692335900,8.1313359375,-7.812346935272217,-2.1140682697296143,-2.721775531768799
1733461494702345700,8.141345703125,-7.207216262817383,-2.0342249870300293,-2.0131850242614746
1733461494712325000,8.1513251953125,-5.668371200561523,-2.309722661972046,-0.7418821454048157
1733461494722334700,8.161334716796874,-3.930128574371338,-2.6200473308563232,0.4380020499229431
1733461494732344600,8.171344482421874,-2.3312864303588867,-2.768892765045166,1.1080423593521118
1733461494742323700,8.18132373046875,-1.3504610061645508,-2.4945318698883057,1.06468665599823
1733461494752333600,8.19133349609375,-0.6766157150268555,-1.9738311767578125,0.5568462610244751
1733461494762343200,8.20134326171875,-0.6070489883422852,-1.6309802532196045,0.16195029020309448
1733461494772322600,8.211322509765624,-0.7393693923950195,-1.3577747344970703,-0.09898838400840759
1733461494782332400,8.22133251953125,-1.0696525573730469,-1.0704803466796875,-0.42356550693511963
1733461494792342000,8.231342041015624,-1.27117919921875,-0.8934997320175171,-0.615241527557373
1733461494802321400,8.2413212890625,-1.1226739883422852,-0.5626583099365234,-0.6479746699333191
1733461494812331300,8.251331298828125,-0.8236560821533203,-0.35939836502075195,-0.6710706949234009
1733461494822340900,8.2613408203125,-0.563014030456543,-0.21476244926452637,-0.635352373123169
1733461494832350500,8.2713505859375,-0.5305881500244141,-0.07136249542236328,-0.5263042449951172
1733461494842329900,8.281329833984374,-0.7932367324829102,0.02427983283996582,-0.5132085680961609
1733461494852339500,8.29133935546875,-0.8864059448242188,0.1053774356842041,-0.5852909088134766
1733461494862349300,8.301349365234374,-0.9638786315917969,0.053870439529418945,-0.570914089679718
1733461494872328700,8.31132861328125,-1.1025581359863281,0.01894545555114746,-0.5292328596115112
1733461494882338300,8.32133837890625,-1.2425594329833984,-0.011858940124511719,-0.6536585092544556
1733461494892348200,8.33134814453125,-1.4628839492797852,-0.03706026077270508,-0.599579930305481
1733461494902327600,8.34132763671875,-1.6151843070983887,-0.10856223106384277,-0.6265671849250793
1733461494912337200,8.351337158203124,-1.6433038711547852,-0.1760883331298828,-0.5715173482894897
1733461494922347000,8.361346923828124,-1.442655086517334,-0.24118971824645996,-0.6604282855987549
1733461494932326100,8.371326171875,-1.4039554595947266,-0.35161542892456055,-0.7924004793167114
1733461494942335700,8.381335693359375,-0.5503377914428711,-0.10239958763122559,-0.6368423104286194
1733461494952345600,8.391345703125,0.0025854110717773438,-0.044481515884399414,-0.7132822275161743
1733461494962325000,8.401324951171874,0.20801353454589844,0.0828390121459961,-0.6558218002319336
1733461494972334600,8.41133447265625,0.3828859329223633,0.31606554985046387,-0.7353125214576721
1733461494982344400,8.421344482421874,0.5056228637695312,0.34241557121276855,-0.5992001891136169
1733461494992323800,8.43132373046875,0.5927543640136719,0.14240479469299316,-0.19288045167922974
1733461495002333700,8.441333740234375,0.793365478515625,-0.03156614303588867,0.08198954164981842
1733461495012343300,8.45134326171875,1.3028688430786133,-0.31372904777526855,-0.012379147112369537
1733461495022322400,8.461322509765624,2.296154022216797,-0.7088797092437744,-0.28207188844680786
1733461495032332300,8.471332275390624,3.0485715866088867,-0.9329773187637329,-0.6127508878707886
1733461495042342000,8.481341796875,4.2412567138671875,-0.8694379329681396,-0.32798153162002563
1733461495052321300,8.4913212890625,5.38984489440918,-0.5489296913146973,0.028296783566474915
1733461495062331100,8.5013310546875,6.394197463989258,0.0559389591217041,0.2669781446456909
1733461495072340700,8.5113408203125,6.663143157958984,0.461108922958374,-0.1331547200679779
1733461495082350600,8.5213505859375,6.277927398681641,0.31698012351989746,-1.102689504623413
1733461495092330000,8.531330078125,5.291528701782227,-0.4249763488769531,-1.181621789932251
1733461495102339600,8.541339599609374,4.948615074157715,-1.7065997123718262,-0.5708144903182983
1733461495112349200,8.55134912109375,5.388625144958496,-2.6060726642608643,0.2555631101131439
1733461495122328600,8.56132861328125,5.913023948669434,-2.928560256958008,1.1412218809127808
1733461495132338400,8.57133837890625,5.734358787536621,-2.9210243225097656,1.6745803356170654
1733461495142348000,8.58134814453125,4.413909912109375,-2.673828601837158,1.6366114616394043
1733461495152327400,8.591327392578124,1.8740882873535156,-2.3327105045318604,1.4972715377807617
1733461495162337000,8.6013369140625,-0.5686454772949219,-2.299684524536133,1.500819206237793
1733461495172347000,8.611346923828124,-3.5545802116394043,-2.2901453971862793,1.2425025701522827
1733461495182326300,8.621326171875,-5.854631423950195,-2.29079532623291,1.1403573751449585
1733461495192336000,8.6313359375,-7.3373637199401855,-2.3709354400634766,1.1137182712554932
1733461495202345700,8.641345703125,-7.246077060699463,-2.4876608848571777,1.2936389446258545
1733461495212325000,8.6513251953125,-5.968472480773926,-2.5950324535369873,1.5231002569198608
1733461495222334700,8.661334716796874,-3.6808156967163086,-2.5150575637817383,1.6753485202789307
1733461495232344600,8.671344482421874,-2.0230517387390137,-2.2809207439422607,1.1680554151535034
1733461495242323700,8.68132373046875,-1.3210363388061523,-1.9510518312454224,0.6887434720993042
1733461495252333600,8.69133349609375,-1.404146671295166,-1.766880750656128,0.5003564953804016
1733461495262343200,8.70134326171875,-1.5168519020080566,-1.4548673629760742,0.057976752519607544
1733461495272322600,8.711322509765624,-1.5686039924621582,-1.2288072109222412,-0.1885712444782257
1733461495282332200,8.721332275390624,-1.5860953330993652,-1.09934401512146,-0.43174493312835693
1733461495292342000,8.731342041015624,-1.360051155090332,-0.8616504669189453,-0.808477520942688
1733461495302321400,8.7413212890625,-1.2359933853149414,-0.8375067710876465,-0.8005526065826416
1733461495312331300,8.751331298828125,-1.1179170608520508,-0.9494611024856567,-0.4185153543949127
1733461495322340900,8.7613408203125,-0.7948789596557617,-0.9539120197296143,-0.3478771150112152
1733461495332350700,8.771350830078125,-0.4839181900024414,-0.910341739654541,-0.2653886675834656
1733461495342329600,8.78132958984375,-0.21211719512939453,-0.8237937688827515,-0.2137850522994995
1733461495352339500,8.79133935546875,-0.1752462387084961,-0.6840600967407227,-0.3653409779071808
1733461495362349300,8.801349365234374,-0.25574779510498047,-0.5618197917938232,-0.5148857831954956
1733461495372328700,8.81132861328125,-0.3148841857910156,-0.533405065536499,-0.36725491285324097
1733461495382338300,8.82133837890625,-0.4583930969238281,-0.623842716217041,-0.027146071195602417
1733461495392348200,8.83134814453125,-0.7559537887573242,-0.7032374143600464,0.16479013860225677
1733461495402327600,8.84132763671875,-1.0737838745117188,-0.7585951089859009,0.3374444842338562
1733461495412337200,8.851337158203124,-1.2470855712890625,-0.6542508602142334,0.5114445686340332
1733461495422347000,8.861346923828124,-1.1874504089355469,-0.5065009593963623,0.464796245098114
1733461495432326100,8.871326171875,-1.2042198181152344,-0.32561588287353516,0.3993965685367584
1733461495442335700,8.881335693359375,-1.0461578369140625,-0.08962392807006836,0.43961411714553833
1733461495452345600,8.891345703125,-0.9124050140380859,0.03289461135864258,0.5668439269065857
1733461495462325000,8.901324951171874,-0.7983570098876953,0.17651963233947754,0.6331239342689514
1733461495472334600,8.91133447265625,-0.6758661270141602,0.26848387718200684,0.5586894750595093
1733461495482344400,8.921344482421874,-0.36676025390625,0.36887264251708984,0.41214531660079956
1733461495492323800,8.93132373046875,0.15913963317871094,0.3938577175140381,0.2885507047176361
1733461495502333400,8.94133349609375,1.0605087280273438,0.3805379867553711,0.21517284214496613
1733461495512343300,8.95134326171875,1.9450721740722656,0.2759523391723633,0.10645879060029984
1733461495522322400,8.961322509765624,3.012542724609375,0.1267869472503662,0.2725112736225128
1733461495532332000,8.97133203125,4.225310325622559,-0.047768592834472656,0.5833222270011902
1733461495542342000,8.981341796875,5.059581756591797,-0.23770737648010254,0.7279897928237915
1733461495552321300,8.9913212890625,5.490257263183594,-0.2013859748840332,0.6038913726806641
1733461495562331100,9.0013310546875,5.507912635803223,0.04146981239318848,0.3999582529067993
1733461495572340700,9.0113408203125,5.189042091369629,0.687856912612915,0.1293017715215683
1733461495582350600,9.0213505859375,4.619983673095703,1.2491226196289062,-0.4358523488044739
1733461495592329700,9.031329833984374,3.790647506713867,1.3829271793365479,-1.2256535291671753
1733461495602339600,9.041339599609374,3.217287063598633,0.8370299339294434,-1.7241907119750977
1733461495612349400,9.051349365234374,3.1951770782470703,-0.3200547695159912,-1.7511579990386963
1733461495622328600,9.06132861328125,3.988175392150879,-1.404442310333252,-1.66343092918396
1733461495632338400,9.07133837890625,5.555901527404785,-2.374246120452881,-1.5690515041351318
1733461495642348000,9.08134814453125,6.840590476989746,-2.99369740486145,-1.1495705842971802
1733461495652327400,9.091327392578124,7.328171730041504,-3.2434372901916504,-1.0022233724594116
1733461495662337000,9.1013369140625,5.661561965942383,-3.296335220336914,-1.2975422143936157
1733461495672347000,9.111346923828124,3.019742965698242,-3.201571464538574,-1.7465540170669556
1733461495682326300,9.121326171875,-0.584691047668457,-3.3388211727142334,-1.7175878286361694
1733461495692335900,9.1313359375,-3.7450170516967773,-3.6225826740264893,-1.5340232849121094
1733461495702345700,9.141345703125,-6.517873764038086,-3.784546375274658,-1.5744922161102295
1733461495712325000,9.1513251953125,-7.787612438201904,-3.6604349613189697,-1.5797114372253418
1733461495722334700,9.161334716796874,-7.546206474304199,-3.452031135559082,-1.662670373916626
1733461495732344600,9.171344482421874,-6.2400922775268555,-3.1839232444763184,-1.52407968044281
1733461495742323700,9.18132373046875,-4.315367221832275,-3.082484245300293,-0.7143541574478149
1733461495752333600,9.19133349609375,-2.639686107635498,-2.9789037704467773,0.15870240330696106
1733461495762343200,9.20134326171875,-1.6809158325195312,-2.691978931427002,0.7192570567131042
1733461495772322600,9.211322509765624,-1.2982988357543945,-2.535108804702759,0.9201627373695374
1733461495782332400,9.22133251953125,-1.6311769485473633,-2.2230420112609863,1.0145035982131958
1733461495792342000,9.231342041015624,-2.174189567565918,-1.810479998588562,0.7781485319137573
1733461495802321400,9.2413212890625,-2.4594621658325195,-1.550845742225647,0.6382320523262024
1733461495812331300,9.251331298828125,-2.669188976287842,-1.166229009628296,0.46172988414764404
1733461495822340900,9.2613408203125,-2.5710291862487793,-0.814781904220581,0.17746588587760925
1733461495832350500,9.2713505859375,-2.123042583465576,-0.4544961452484131,-0.019461840391159058
1733461495842329900,9.281329833984374,-1.7300615310668945,-0.21849441528320312,-0.17044830322265625
1733461495852339500,9.29133935546875,-1.2690324783325195,-0.06383919715881348,-0.2548699378967285
1733461495862349300,9.301349365234374,-0.8039388656616211,-0.01631784439086914,-0.25105395913124084
1733461495872328700,9.31132861328125,-0.3526954650878906,0.02077484130859375,-0.16491521894931793
1733461495882338300,9.32133837890625,0.11140060424804688,0.024631261825561523,-0.024604279547929764
1733461495892348200,9.33134814453125,0.32340240478515625,0.04997396469116211,0.07406074553728104
1733461495902327600,9.34132763671875,0.28627586364746094,0.05402350425720215,0.14093950390815735
1733461495912337200,9.351337158203124,-0.009275436401367188,0.10025382041931152,0.10046573728322983
1733461495922347000,9.361346923828124,-0.40274524688720703,0.09476876258850098,0.020426519215106964
1733461495932326100,9.371326171875,-0.5712203979492188,0.02635979652404785,-0.05959179252386093
1733461495942335700,9.381335693359375,-0.3179483413696289,-0.09369182586669922,-0.006707996129989624
1733461495952345600,9.391345703125,-0.12217044830322266,-0.2018136978149414,-0.019886992871761322
1733461495962325000,9.401324951171874,0.04272937774658203,-0.21746039390563965,-0.12964065372943878
1733461495972334600,9.41133447265625,0.14093875885009766,-0.20080304145812988,-0.16916069388389587
1733461495982344400,9.421344482421874,0.30888843536376953,-0.13731169700622559,-0.21076631546020508
1733461495992323800,9.43132373046875,0.5342731475830078,-0.06180214881896973,-0.2563130855560303
1733461496002333700,9.441333740234375,0.8525753021240234,0.015031576156616211,-0.05759473517537117
1733461496012343300,9.45134326171875,1.128352165222168,0.018178462982177734,0.0045379698276519775
1733461496022322400,9.461322509765624,1.264505386352539,0.04974675178527832,0.17617414891719818
1733461496032332300,9.471332275390624,1.3126230239868164,0.0628812313079834,0.13484831154346466
1733461496042342000,9.481341796875,1.4260129928588867,0.1266188621520996,-0.04465699940919876
1733461496052321300,9.4913212890625,1.7596778869628906,0.15687203407287598,-0.36067938804626465
1733461496062331100,9.5013310546875,2.2849292755126953,0.03866291046142578,-0.4222191572189331
1733461496072340700,9.5113408203125,3.1676626205444336,-0.020701885223388672,-0.05228380113840103
1733461496082350600,9.5213505859375,4.493300437927246,0.12075424194335938,0.5489476323127747
1733461496092330000,9.531330078125,5.93710994720459,0.2923719882965088,0.7992326617240906
1733461496102339600,9.541339599609374,7.013921737670898,0.4045376777648926,0.613732635974884
1733461496112349200,9.55134912109375,7.491050720214844,0.12874507904052734,0.20891451835632324
1733461496122328600,9.56132861328125,7.406391143798828,-0.7987546920776367,0.142843559384346
1733461496132338400,9.57133837890625,6.869417190551758,-1.5893359184265137,0.5423921942710876
1733461496142348000,9.58134814453125,5.82839298248291,-2.2959578037261963,1.0164340734481812
1733461496152327400,9.591327392578124,5.037380218505859,-2.8133292198181152,1.2431596517562866
1733461496162337000,9.6013369140625,3.8559446334838867,-3.105478525161743,1.4631119966506958
1733461496172347000,9.611346923828124,2.3224306106567383,-3.0856006145477295,1.500627875328064
1733461496182326300,9.621326171875,0.3319520950317383,-3.063596725463867,1.4580131769180298
1733461496192336000,9.6313359375,-1.8957695960998535,-3.1042895317077637,1.4005144834518433
1733461496202345700,9.641345703125,-3.6527838706970215,-3.0869016647338867,1.1389753818511963
1733461496212325000,9.6513251953125,-5.284816741943359,-3.107990026473999,0.979036808013916
1733461496222334700,9.661334716796874,-6.255241394042969,-3.1362156867980957,0.9356909990310669
1733461496232344600,9.671344482421874,-6.3821516036987305,-3.13985013961792,0.7942942380905151
1733461496242323700,9.68132373046875,-5.77589225769043,-3.216461181640625,0.7531039714813232
1733461496252333300,9.691333251953125,-4.618438720703125,-3.3001351356506348,0.7350416779518127
1733461496262343200,9.70134326171875,-3.76975679397583,-3.369938373565674,0.759710431098938
1733461496272322600,9.711322509765624,-3.0254483222961426,-3.058457612991333,0.7882581353187561
1733461496282332200,9.721332275390624,-2.2104945182800293,-2.6333673000335693,0.36371660232543945
1733461496292342000,9.731342041015624,-1.5071477890014648,-2.0548553466796875,0.0650012344121933
1733461496302321400,9.7413212890625,-0.9990434646606445,-1.6054155826568604,-0.24862292408943176
1733461496312331300,9.751331298828125,-0.4403514862060547,-1.056413173675537,-0.6292764544487
1733461496322340900,9.7613408203125,-0.33833980560302734,-0.5809571743011475,-0.9943234324455261
1733461496332350700,9.771350830078125,-0.7020587921142578,-0.2889690399169922,-1.251159906387329
1733461496342329600,9.78132958984375,-1.3767776489257812,-0.19082045555114746,-1.1054905652999878
1733461496352339500,9.79133935546875,-1.928140640258789,-0.23059678077697754,-0.6163855791091919
1733461496362349300,9.801349365234374,-2.197404384613037,-0.3483450412750244,-0.4586508870124817
1733461496372328700,9.81132861328125,-1.908681869506836,-0.3604891300201416,-0.3518131375312805
1733461496382338300,9.82133837890625,-1.200221061706543,-0.3328976631164551,-0.36144253611564636
1733461496392348200,9.83134814453125,-0.24860763549804688,-0.27679872512817383,-0.5913596749305725
1733461496402327600,9.84132763671875,0.5041275024414062,-0.09688425064086914,-0.8201188445091248
1733461496412337200,9.851337158203124,0.8851251602172852,0.008349418640136719,-0.850447952747345
1733461496422347000,9.861346923828124,0.8453350067138672,-0.04251265525817871,-0.7637175917625427
1733461496432326100,9.871326171875,0.43786144256591797,-0.07190799713134766,-0.49057865142822266
1733461496442335700,9.881335693359375,0.04675769805908203,-0.16568756103515625,-0.3405216932296753
1733461496452345600,9.891345703125,-0.2683448791503906,-0.2757108211517334,-0.19866621494293213
1733461496462325000,9.901324951171874,-0.30000877380371094,-0.3125145435333252,-0.09287971258163452
1733461496472334600,9.91133447265625,-0.16861343383789062,-0.30475640296936035,0.09846659004688263
1733461496482344400,9.921344482421874,0.04656028747558594,-0.22995209693908691,0.2072383314371109
1733461496492323800,9.93132373046875,0.05590343475341797,-0.10535311698913574,0.14831162989139557
1733461496502333400,9.94133349609375,0.06287765502929688,0.001905202865600586,0.166094571352005
1733461496512343300,9.95134326171875,0.1750345230102539,0.11649227142333984,0.21321354806423187
1733461496521890300,9.960890380859375,0.1054229736328125,0.2899014949798584,-0.06848868727684021
1733461496531900000,9.97089990234375,0.3242073059082031,0.5357084274291992,-0.2811841368675232
1733461496541909800,9.98090966796875,0.5306720733642578,0.7538595199584961,-0.3677375018596649
1733461496551889000,9.990888916015624,0.693659782409668,0.9554750919342041,-0.4196719229221344
1733461496561898800,10.000898681640624,1.283900260925293,0.9173009395599365,-0.1480116844177246
1733461496571908400,10.010908447265624,1.8426952362060547,0.5000722408294678,0.3748592138290405
1733461496581918200,10.020918212890624,2.3242855072021484,-0.18349289894104004,0.8171983957290649
1733461496591897300,10.0308974609375,2.8042144775390625,-0.6663076877593994,0.9003764390945435
1733461496601907200,10.0409072265625,3.320528984069824,-0.846113920211792,0.8828084468841553
1733461496611917000,10.0509169921875,3.659083366394043,-0.568558931350708,0.6702039241790771
1733461496621896400,10.060896484375,3.8721704483032227,0.016699790954589844,-0.07210317254066467
1733461496631906000,10.070906005859374,3.0874814987182617,0.16686201095581055,-0.5506371259689331
1733461496641916000,10.080916015625,2.5523195266723633,-0.21633076667785645,-1.2650936841964722
1733461496651895000,10.09089501953125,2.888707160949707,-1.0050973892211914,-2.0440661907196045
1733461496661904600,10.100904541015625,4.026228904724121,-2.0427956581115723,-2.301781177520752
1733461496671914500,10.11091455078125,6.022568702697754,-3.2272891998291016,-1.6651995182037354
1733461496681894000,10.120893798828124,8.172111511230469,-3.7717525959014893,-0.9703188538551331
1733461496691903500,10.130903564453124,9.338947296142578,-3.6991946697235107,-0.5785138607025146
1733461496701913300,10.140913330078124,8.445138931274414,-3.412548303604126,-0.54899001121521
1733461496711892700,10.150892822265625,5.368856430053711,-3.3759522438049316,-0.669829249382019
1733461496721902300,10.16090234375,1.7279891967773438,-3.3180203437805176,-0.7504774928092957
1733461496731912200,10.170912109375,-2.614236831665039,-3.412454605102539,-0.31540539860725403
1733461496741891300,10.180891357421874,-5.822492599487305,-3.1435658931732178,-0.643929123878479
1733461496751901200,10.190901123046874,-8.965825080871582,-2.47532320022583,-1.675497055053711
1733461496761910800,10.200910888671874,-10.572404861450195,-1.3698276281356812,-3.0381274223327637
1733461496771890200,10.21089013671875,-10.447712898254395,-0.7956221103668213,-3.8678536415100098
1733461496781900000,10.220900146484375,-8.58989429473877,-0.7113204002380371,-3.864786148071289
1733461496791909600,10.23090966796875,-5.830996990203857,-1.1423413753509521,-2.783855438232422
1733461496801889000,10.240888916015624,-2.8191237449645996,-2.173658847808838,-1.4067600965499878
1733461496811899000,10.25089892578125,-0.18894672393798828,-2.6348628997802734,-0.37260597944259644
1733461496821908500,10.260908447265624,2.455526351928711,-2.801485538482666,0.5031266808509827
1733461496831918300,10.27091845703125,3.823033332824707,-2.8397698402404785,0.7708151340484619
1733461496841897500,10.2808974609375,4.250463485717773,-2.297142744064331,0.6681883931159973
1733461496851907000,10.290906982421875,3.534811019897461,-1.7152915000915527,-0.08074064552783966
1733461496861917000,10.3009169921875,2.324840545654297,-0.9996490478515625,-0.5443589091300964
1733461496871896300,10.310896240234374,0.7264614105224609,-0.477231502532959,-0.7463482022285461
1733461496881906000,10.320906005859374,-0.3346261978149414,-0.1967475414276123,-0.7491059899330139
1733461496891915800,10.330915771484374,-1.1399431228637695,0.014918327331542969,-0.5972239971160889
1733461496901895200,10.340895263671875,-1.614546298980713,0.12103819847106934,-0.4816506505012512
1733461496911904800,10.35090478515625,-1.9891390800476074,0.146162748336792,-0.2899039685726166
1733461496921914600,10.36091455078125,-2.2906413078308105,0.13522124290466309,-0.176250159740448
1733461496931894000,10.37089404296875,-2.617373466491699,0.009392738342285156,-0.1325688660144806
1733461496941903600,10.380903564453124,-2.5990185737609863,-0.06592679023742676,-0.1771714687347412
1733461496951913500,10.39091357421875,-2.202580451965332,-0.22547602653503418,-0.16227269172668457
1733461496961892600,10.400892578125,-1.5851149559020996,-0.4211726188659668,-0.07620059698820114
1733461496971902200,10.410902099609375,-0.9548273086547852,-0.6591999530792236,-0.03929143399000168
1733461496981912000,10.420912109375,-0.5185260772705078,-0.8609904050827026,0.1056642234325409
1733461496991891500,10.430891357421874,-0.1839609146118164,-0.9712762832641602,0.17110185325145721
1733461497001901300,10.4409013671875,0.011160850524902344,-0.8653603792190552,-0.06879941374063492
1733461497011911000,10.450910888671874,-0.012158393859863281,-0.595855712890625,-0.31035923957824707
1733461497021890300,10.460890380859375,-0.1727590560913086,-0.31253671646118164,-0.4820437431335449
1733461497031900200,10.470900146484375,-0.23629379272460938,-0.12194466590881348,-0.49266427755355835
1733461497041909800,10.48090966796875,-0.17770671844482422,0.14555716514587402,-0.4715774655342102
1733461497051889000,10.490888916015624,-0.01885986328125,0.17733025550842285,-0.38058021664619446
1733461497061898800,10.500898681640624,0.26910877227783203,0.10697579383850098,-0.24245044589042664
1733461497071908400,10.510908447265624,0.6574201583862305,0.06630873680114746,-0.2677854299545288
1733461497081918200,10.520918212890624,1.0642499923706055,-0.01759791374206543,-0.3289492130279541
1733461497091897600,10.530897705078125,1.1786117553710938,0.024397850036621094,-0.4037152826786041
1733461497101907200,10.5409072265625,1.1418285369873047,-0.09603643417358398,-0.5121413469314575
1733461497111917000,10.5509169921875,1.196497917175293,-0.27751708030700684,-0.25268498063087463
1733461497121896400,10.560896484375,1.4379558563232422,-0.4407975673675537,0.17203886806964874
1733461497131906000,10.570906005859374,1.8670358657836914,-0.348146915435791,0.5203235745429993
1733461497141916000,10.580916015625,2.4985837936401367,-0.07438230514526367,0.5845595598220825
1733461497151895000,10.59089501953125,3.0002269744873047,0.14240813255310059,0.49059027433395386
1733461497161904600,10.600904541015625,3.371490478515625,0.12021732330322266,0.41907334327697754
1733461497171914500,10.61091455078125,3.525806427001953,-0.6678428649902344,0.6229864954948425
1733461497181894000,10.620893798828124,3.532334327697754,-1.8355765342712402,1.0049670934677124
1733461497191903500,10.630903564453124,3.8392763137817383,-2.6875898838043213,1.4463309049606323
1733461497201913300,10.640913330078124,4.798044204711914,-3.2327563762664795,1.7982393503189087
1733461497211892700,10.650892822265625,5.769152641296387,-3.464519500732422,2.171616554260254
1733461497221902600,10.660902587890625,5.990470886230469,-3.491539716720581,2.7388181686401367
1733461497231912200,10.670912109375,5.024877548217773,-3.230319023132324,2.9148128032684326
1733461497241891300,10.680891357421874,2.9712629318237305,-2.928743839263916,2.9247615337371826
1733461497251901000,10.69090087890625,0.9058828353881836,-2.7669053077697754,2.946901559829712
1733461497261910800,10.700910888671874,-1.0188217163085938,-2.679954767227173,2.8589513301849365
1733461497271890200,10.71089013671875,-2.2963056564331055,-2.8034896850585938,2.5809977054595947
1733461497281899800,10.720899658203125,-3.085263252258301,-2.911931037902832,2.49330997467041
1733461497291909600,10.73090966796875,-2.8019819259643555,-2.9701731204986572,2.303133249282837
1733461497301889000,10.740888916015624,-1.7214655876159668,-2.8167009353637695,1.9744340181350708
1733461497311899000,10.75089892578125,-0.22176074981689453,-2.612992286682129,1.389029860496521
1733461497321908500,10.760908447265624,0.32562255859375,-2.484022617340088,1.3422911167144775
1733461497331918300,10.77091845703125,0.6405162811279297,-2.216599464416504,1.2719452381134033
1733461497341897500,10.7808974609375,0.4183320999145508,-1.8979841470718384,0.9545753598213196
1733461497351907300,10.7909072265625,-0.19214725494384766,-1.460073709487915,0.4940029978752136
1733461497361917000,10.8009169921875,-0.8332986831665039,-1.1429132223129272,-0.053944289684295654
1733461497371896300,10.810896240234374,-1.6610403060913086,-0.8208751678466797,-0.53578120470047
1733461497381906000,10.820906005859374,-2.245107650756836,-0.5974676609039307,-0.686450719833374
1733461497391915800,10.830915771484374,-2.7356247901916504,-0.46589040756225586,-0.6514204144477844
1733461497401895200,10.840895263671875,-3.077305316925049,-0.4813046455383301,-0.41169625520706177
1733461497411905000,10.850905029296875,-3.289461135864258,-0.5397393703460693,-0.1517493724822998
1733461497421914600,10.86091455078125,-3.364887237548828,-0.5618665218353271,0.023709118366241455
1733461497431894000,10.87089404296875,-3.3514938354492188,-0.5304234027862549,0.03562694787979126
1733461497441903600,10.880903564453124,-3.3377184867858887,-0.45998454093933105,-0.03792548179626465
1733461497451913500,10.89091357421875,-3.352034091949463,-0.5040225982666016,0.0901557207107544
1733461497461892600,10.900892578125,-3.12392520904541,-0.6454811096191406,0.39417850971221924
1733461497471902500,10.91090234375,-2.6864824295043945,-0.7510545253753662,0.6511087417602539
1733461497481912000,10.920912109375,-1.9772305488586426,-0.9486583471298218,1.019685983657837
1733461497491891500,10.930891357421874,-1.141845703125,-1.1361757516860962,1.3874784708023071
1733461497501901000,10.940901123046874,-0.39249229431152344,-1.3328441381454468,1.726381778717041
1733461497511911000,10.950910888671874,0.11929035186767578,-1.4261093139648438,1.9979499578475952
1733461497521890300,10.960890380859375,0.37578868865966797,-1.4100046157836914,1.9452565908432007
1733461497531900000,10.97089990234375,0.6842212677001953,-1.313352346420288,1.748889684677124
1733461497541909800,10.98090966796875,1.0302705764770508,-1.1233795881271362,1.442988395690918
1733461497551889000,10.990888916015624,1.5870914459228516,-0.8723825216293335,1.119058609008789
1733461497561898800,11.000898681640624,1.9572277069091797,-0.30745136737823486,0.33807289600372314
1733461497571908400,11.010908447265624,2.4818782806396484,0.04435920715332031,0.09972983598709106
1733461497581918200,11.020918212890624,2.7457666397094727,0.37246274948120117,0.1263561248779297
1733461497591897600,11.030897705078125,2.651045799255371,0.7385919094085693,0.2722698748111725
1733461497601907200,11.0409072265625,1.9441595077514648,0.9558475017547607,0.3155677318572998
1733461497611917000,11.0509169921875,0.5056552886962891,1.290268898010254,0.00011032819747924805
1733461497621896400,11.060896484375,-0.6534404754638672,1.4559581279754639,-0.33797168731689453
1733461497631906000,11.070906005859374,-1.5337209701538086,1.407088279724121,-0.6181693077087402
1733461497641916000,11.080916015625,-1.8659968376159668,1.1886911392211914,-0.891688883304596
1733461497651895000,11.09089501953125,-1.4652776718139648,0.788344144821167,-0.9383847713470459
1733461497661904600,11.100904541015625,-0.3788414001464844,0.21796655654907227,-0.8475990295410156
1733461497671914500,11.11091455078125,0.7299280166625977,-0.21816563606262207,-0.8643962740898132
1733461497681894000,11.120893798828124,1.657918930053711,-0.5241429805755615,-0.7922634482383728
1733461497691903500,11.130903564453124,1.8388652801513672,-0.5553005933761597,-0.8558553457260132
1733461497701913300,11.140913330078124,1.3006410598754883,-0.5424678325653076,-0.7857459187507629
1733461497711892700,11.150892822265625,0.47672367095947266,-0.3365497589111328,-0.5711427330970764
1733461497721902300,11.16090234375,-0.5886869430541992,-0.10057473182678223,-0.5011870861053467
1733461497731912200,11.170912109375,-1.7847886085510254,0.11210012435913086,-1.2196320295333862
1733461497741891300,11.180891357421874,-2.2132086753845215,0.3946218490600586,-2.0624423027038574
1733461497751901200,11.190901123046874,-1.1839609146118164,0.051751136779785156,-2.920865535736084
1733461497761910800,11.200910888671874,0.81488037109375,-1.1690081357955933,-3.014842987060547
1733461497771890200,11.21089013671875,4.280014991760254,-2.7138190269470215,-2.7659354209899902
1733461497781900000,11.220900146484375,7.907308578491211,-4.003602504730225,-2.1312150955200195
1733461497791909600,11.23090966796875,11.85400104522705,-4.826707363128662,-0.06523406505584717
1733461497801889000,11.240888916015624,13.986357688903809,-4.866828918457031,1.8322044610977173
1733461497811899000,11.25089892578125,13.961780548095703,-3.928781032562256,3.0426745414733887
1733461497821908500,11.260908447265624,11.595029830932617,-2.9863014221191406,2.6032228469848633
1733461497831918000,11.27091796875,6.731884956359863,-2.2303714752197266,1.6795332431793213
1733461497841897500,11.2808974609375,1.6802310943603516,-1.937832236289978,1.6308542490005493
1733461497851907300,11.2909072265625,-3.7961831092834473,-1.6741613149642944,1.1514949798583984
1733461497861917000,11.3009169921875,-8.18038272857666,-0.894910454750061,0.7225539684295654
1733461497871896300,11.310896240234374,-10.409124374389648,-0.22052407264709473,0.8099365830421448
1733461497881906000,11.320906005859374,-11.207061767578125,0.09137582778930664,1.6805431842803955
1733461497891915800,11.330915771484374,-11.382501602172852,0.41700243949890137,1.5908409357070923
1733461497901895200,11.340895263671875,-10.301973342895508,0.1439371109008789,1.9671604633331299
1733461497911904800,11.35090478515625,-8.294270515441895,-0.7173337936401367,2.3608407974243164
1733461497921914600,11.36091455078125,-5.794851779937744,-2.1682848930358887,3.263979911804199
1733461497931894000,11.37089404296875,-3.7253570556640625,-3.6028475761413574,4.131141662597656
1733461497941903600,11.380903564453124,-0.8725719451904297,-4.631684303283691,4.161223888397217
1733461497951913500,11.39091357421875,2.576687812805176,-4.912139892578125,3.9564156532287598
1733461497961892600,11.400892578125,5.459586143493652,-5.104245185852051,3.364683151245117
1733461497971902200,11.410902099609375,6.771636009216309,-4.389743804931641,3.0234851837158203
1733461497981912000,11.420912109375,7.4341630935668945,-3.576376438140869,2.2049078941345215
1733461497991891500,11.430891357421874,6.792570114135742,-2.5129292011260986,1.7251695394515991
1733461498001901300,11.4409013671875,5.107875823974609,-1.7296113967895508,1.4364078044891357
1733461498011911000,11.450910888671874,2.784688949584961,-1.0617470741271973,1.7769651412963867
1733461498021890300,11.460890380859375,1.184147834777832,-0.8613760471343994,1.9384878873825073
1733461498031900200,11.470900146484375,-0.035531044006347656,-0.8988666534423828,2.3376379013061523
1733461498041909800,11.48090966796875,-1.0812110900878906,-1.0368425846099854,2.5357444286346436
1733461498051889000,11.490888916015624,-1.9185066223144531,-1.134521722793579,2.9100234508514404
1733461498061898800,11.500898681640624,-2.269695281982422,-1.3077948093414307,3.175086498260498
1733461498071908400,11.510908447265624,-2.2438416481018066,-1.5452122688293457,3.2090985774993896
1733461498081918200,11.520918212890624,-1.92460298538208,-1.7283109426498413,3.082448959350586
1733461498091897600,11.530897705078125,-1.458573341369629,-1.9515889883041382,2.8966245651245117
1733461498101907200,11.5409072265625,-0.704350471496582,-2.2131922245025635,2.5533251762390137
1733461498111917000,11.5509169921875,0.1362447738647461,-2.4501850605010986,2.210960865020752
1733461498121896400,11.560896484375,0.9261817932128906,-2.600311040878296,1.6834943294525146
1733461498131906300,11.57090625,1.4765005111694336,-2.555251359939575,1.147849440574646
1733461498141916000,11.580916015625,1.8927326202392578,-2.4595236778259277,0.631816029548645
1733461498151895000,11.59089501953125,2.038588523864746,-2.372838258743286,0.21746540069580078
1733461498161904600,11.600904541015625,2.0433874130249023,-2.300999641418457,-0.09349441528320312
1733461498171914500,11.61091455078125,1.9350242614746094,-2.2042458057403564,-0.503386378288269
1733461498181894000,11.620893798828124,1.7880306243896484,-2.0726494789123535,-1.027830958366394
1733461498191903500,11.630903564453124,1.6341743469238281,-1.8658519983291626,-1.891364336013794
1733461498201913300,11.640913330078124,1.3405513763427734,-1.6864451169967651,-2.313474655151367
1733461498211892700,11.650892822265625,1.149728775024414,-1.5781971216201782,-2.427824020385742
1733461498221902300,11.66090234375,1.0323400497436523,-1.6084648370742798,-2.2557060718536377
1733461498231912200,11.670912109375,0.8919687271118164,-1.6710004806518555,-1.9543200731277466
1733461498241891300,11.680891357421874,0.6248540878295898,-1.7432911396026611,-1.5382577180862427
1733461498251901000,11.69090087890625,0.18709945678710938,-1.7163945436477661,-1.4740710258483887
1733461498261910800,11.700910888671874,-0.1656045913696289,-1.4986504316329956,-1.7994468212127686
1733461498271890200,11.71089013671875,-0.49547290802001953,-1.1748254299163818,-2.3277125358581543
1733461498281899800,11.720899658203125,-0.6524648666381836,-0.9170370101928711,-2.723680019378662
1733461498291909600,11.73090966796875,-0.7508459091186523,-0.7428523302078247,-2.964334011077881
1733461498301889000,11.740888916015624,-0.7405147552490234,-0.5580652952194214,-2.9686384201049805
1733461498311899000,11.75089892578125,-0.6380710601806641,-0.5944631099700928,-2.6869895458221436
1733461498321908500,11.760908447265624,-0.5509319305419922,-0.603878378868103,-2.391201972961426
1733461498331918300,11.77091845703125,-0.5382680892944336,-0.5215938091278076,-2.213353157043457
1733461498341897500,11.7808974609375,-0.5512800216674805,-0.3955855369567871,-2.2091972827911377
1733461498351907300,11.7909072265625,-0.5659599304199219,-0.2476714849472046,-2.429394006729126
1733461498361917000,11.8009169921875,-0.6209220886230469,0.02900385856628418,-2.614471197128296
1733461498371896300,11.810896240234374,-0.8196353912353516,0.24513566493988037,-2.733734607696533
1733461498381906000,11.820906005859374,-0.9643363952636719,0.4431518316268921,-2.714221954345703
1733461498391915800,11.830915771484374,-1.1229753494262695,0.5729769468307495,-2.626966953277588
1733461498401895200,11.840895263671875,-1.179142951965332,0.6654562950134277,-2.5120763778686523
1733461498411904800,11.85090478515625,-1.1213045120239258,0.6292030811309814,-2.2287397384643555
1733461498421914600,11.86091455078125,-0.9378490447998047,0.5487710237503052,-1.9885507822036743
1733461498431894000,11.87089404296875,-0.6733913421630859,0.47419512271881104,-1.7956291437149048
1733461498441903600,11.880903564453124,-0.4257984161376953,0.5069910287857056,-1.6114367246627808
1733461498451913500,11.89091357421875,-0.21857357025146484,0.6451499462127686,-1.4377435445785522
1733461498461892600,11.900892578125,-0.10410690307617188,0.75048828125,-1.3129265308380127
1733461498471902200,11.910902099609375,-0.08254718780517578,0.8146663904190063,-1.1027288436889648
1733461498481912000,11.920912109375,-0.16172027587890625,0.816787600517273,-0.8846811056137085
1733461498491891500,11.930891357421874,-0.19380569458007812,0.7527159452438354,-0.5420849323272705
1733461498501901000,11.940901123046874,-0.11487674713134766,0.690070629119873,-0.3443026542663574
1733461498511911000,11.950910888671874,0.032688140869140625,0.557509183883667,-0.22390496730804443
1733461498521890300,11.960890380859375,0.03719139099121094,0.2226163148880005,0.27160418033599854
1733461498531900000,11.97089990234375,-0.28493213653564453,0.12935185432434082,0.26890552043914795
1733461498541909800,11.98090966796875,-0.7033576965332031,0.2674562931060791,0.02387213706970215
1733461498551889000,11.990888916015624,-1.0314350128173828,0.36466383934020996,-0.13498687744140625
1733461498561898800,12.000898681640624,-1.1638069152832031,0.3859250545501709,-0.2101306915283203
1733461498571908400,12.010908447265624,-1.0869178771972656,0.37255263328552246,-0.2886056900024414
1733461498581918200,12.020918212890624,-0.7644929885864258,0.2762105464935303,-0.29256439208984375
1733461498591897300,12.0308974609375,-0.2840089797973633,0.16262412071228027,-0.25064706802368164
1733461498601907200,12.0409072265625,0.38117408752441406,0.03580880165100098,-0.09358048439025879
1733461498611917000,12.0509169921875,0.8428077697753906,-0.03586864471435547,-0.10210204124450684
1733461498621896400,12.060896484375,1.1765432357788086,0.04551410675048828,-0.12023401260375977
1733461498631906000,12.070906005859374,1.391702651977539,0.22545576095581055,-0.17959976196289062
1733461498641916000,12.080916015625,1.5990848541259766,0.367678165435791,-0.01848769187927246
1733461498651895000,12.09089501953125,1.8490209579467773,0.5886528491973877,0.2001175880432129
1733461498661904600,12.100904541015625,1.8304338455200195,0.8968462944030762,0.2294459342956543
1733461498671914500,12.11091455078125,1.5418281555175781,1.0999538898468018,0.22317075729370117
1733461498681894000,12.120893798828124,1.1391630172729492,1.0594863891601562,0.37206602096557617
1733461498691903500,12.130903564453124,0.8932666778564453,0.8328979015350342,0.49031639099121094
1733461498701913300,12.140913330078124,0.950160026550293,0.4836854934692383,0.5548883676528931
1733461498711892700,12.150892822265625,1.5015029907226562,0.04169273376464844,0.6531851291656494
1733461498721902300,12.16090234375,2.249091148376465,-0.4426189661026001,0.6156288385391235
1733461498731912200,12.170912109375,3.0738134384155273,-0.7639286518096924,0.9364330768585205
1733461498741891300,12.180891357421874,3.6281652450561523,-0.9854106903076172,1.062213659286499
1733461498751901200,12.190901123046874,3.9968481063842773,-1.0432089567184448,1.4250956773757935
1733461498761910800,12.200910888671874,4.282289505004883,-1.0509941577911377,1.649868369102478
1733461498771890200,12.21089013671875,4.3519697189331055,-0.9336442351341248,1.7148463726043701
1733461498781900000,12.220900146484375,4.138175010681152,-0.6944267749786377,1.654041051864624
1733461498791909600,12.23090966796875,3.876832962036133,-0.5127034187316895,1.3989520072937012
1733461498801889000,12.240888916015624,3.58913516998291,-0.5033388137817383,1.601499080657959
1733461498811899000,12.25089892578125,3.439183235168457,-0.7072076797485352,2.1742217540740967
1733461498821908500,12.260908447265624,2.659372329711914,-0.9099173545837402,2.7007672786712646
1733461498831918300,12.27091845703125,1.7144584655761719,-0.9569926261901855,3.104292869567871
1733461498841897500,12.2808974609375,0.47769737243652344,-1.1170611381530762,3.4501469135284424
1733461498851907300,12.2909072265625,-1.0944242477416992,-1.249441385269165,3.689177989959717
1733461498861917000,12.3009169921875,-2.735006809234619,-1.249349594116211,3.8351380825042725
1733461498871896300,12.310896240234374,-4.597219944000244,-1.1680846214294434,3.889800548553467
1733461498881906000,12.320906005859374,-5.954229354858398,-0.858127236366272,3.680006742477417
1733461498891915800,12.330915771484374,-6.978517055511475,-0.3081521987915039,3.3054590225219727
1733461498901895200,12.340895263671875,-7.469846248626709,0.058690547943115234,2.933354139328003
1733461498911904800,12.35090478515625,-7.188055992126465,0.1780838966369629,2.8125827312469482
1733461498921914600,12.36091455078125,-6.392116546630859,0.04586601257324219,2.723041296005249
1733461498931894000,12.37089404296875,-5.15874719619751,-0.22440814971923828,2.7934508323669434
1733461498941903600,12.380903564453124,-3.468043327331543,-0.9495316743850708,3.4386887550354004
1733461498951913500,12.39091357421875,-1.0581703186035156,-2.0739283561706543,4.470605850219727
1733461498961892600,12.400892578125,1.111924171447754,-2.681255578994751,4.84483003616333
1733461498971902200,12.410902099609375,2.3483991622924805,-2.4685964584350586,4.577538013458252
1733461498981912000,12.420912109375,3.381155014038086,-1.6932270526885986,3.2606024742126465
1733461498991891500,12.430891357421874,3.944244384765625,-0.8793609142303467,2.118600368499756
1733461499001901300,12.4409013671875,3.7806806564331055,-0.1390284299850464,1.1833440065383911
1733461499011911000,12.450910888671874,3.133272171020508,0.4957094192504883,0.5638450384140015
1733461499021890300,12.460890380859375,1.881744384765625,0.907537579536438,0.18279564380645752
1733461499031900200,12.470900146484375,0.2646007537841797,0.9257912635803223,0.4368002414703369
1733461499041909800,12.48090966796875,-0.7566604614257812,1.0288071632385254,0.6191558837890625
1733461499051889000,12.490888916015624,-1.011866569519043,1.1667506694793701,0.56468665599823
1733461499061898800,12.500898681640624,-0.8201503753662109,1.0191056728363037,0.7976011633872986
1733461499071908400,12.510908447265624,-0.7165136337280273,0.7496769428253174,1.2733542919158936
1733461499081918200,12.520918212890624,-0.7410831451416016,0.5917515754699707,1.5106251239776611
1733461499091897600,12.530897705078125,-0.8044471740722656,0.5090315341949463,1.5523903369903564
1733461499101907200,12.5409072265625,-0.9197053909301758,0.5596904754638672,1.3227729797363281
1733461499111917000,12.5509169921875,-1.1272821426391602,0.6956443786621094,0.9837853908538818
1733461499121896400,12.560896484375,-1.3967561721801758,0.8202900886535645,0.7199634909629822
1733461499131906000,12.570906005859374,-1.559311866760254,0.8309051990509033,0.6928271651268005
1733461499141916000,12.580916015625,-1.6087732315063477,0.7351381778717041,0.8545710444450378
1733461499151895000,12.59089501953125,-1.6034789085388184,0.5498814582824707,1.1172161102294922
1733461499161904600,12.600904541015625,-1.6998119354248047,0.3449540138244629,1.5878527164459229
1733461499171914500,12.61091455078125,-1.5813279151916504,0.20484280586242676,1.9290574789047241
1733461499181894000,12.620893798828124,-1.228053092956543,0.22406983375549316,2.414759874343872
1733461499191903500,12.630903564453124,-0.5394086837768555,0.3670947551727295,2.128095865249634
1733461499201913300,12.640913330078124,0.31287384033203125,0.600297212600708,1.3637439012527466
1733461499211892700,12.650892822265625,1.0581274032592773,0.8514924049377441,0.5958364009857178
1733461499221902300,12.66090234375,1.5374526977539062,1.0154809951782227,-0.12779879570007324
1733461499231912200,12.670912109375,1.9451160430908203,1.0604283809661865,-0.28112125396728516
1733461499241891300,12.680891357421874,2.8674631118774414,1.0867698192596436,-0.13745594024658203
1733461499251901000,12.69090087890625,3.6871376037597656,1.0476033687591553,0.4593764543533325
1733461499261910800,12.700910888671874,4.6221208572387695,0.9072105884552002,1.1774852275848389
1733461499271890200,12.71089013671875,5.110586166381836,0.8157083988189697,1.5125161409378052
