time,seconds_elapsed,z,y,x
1733461486752921300,0.19192138671875,-0.06536258012056351,-0.02382374368607998,0.028099801391363144
1733461486762625800,0.201625732421875,-0.0708603709936142,-0.009773843921720982,0.025045474991202354
1733461486772447700,0.21144775390625,-0.06841690838336945,-0.007941247895359993,0.02015855349600315
1733461486782404900,0.22140478515625,-0.056810468435287476,-0.015271631069481373,0.018325956538319588
1733461486792436700,0.231436767578125,-0.04153883829712868,-0.016493361443281174,0.015271631069481373
1733461486802393600,0.2413935546875,-0.028099801391363144,-0.007941247895359993,0.015271631069481373
1733461486812425500,0.251425537109375,-0.02321287989616394,0.003054326167330146,0.016493361443281174
1733461486822413300,0.261413330078125,-0.03298672288656235,0.00427605677396059,0.01466076634824276
1733461486832445200,0.271445068359375,-0.04153883829712868,-0.01038470957428217,0.009773843921720982
1733461486842402300,0.28140234375,-0.05253441259264946,-0.021991148591041565,0.005497787147760391
1733461486852434200,0.29143408203125,-0.06658431142568588,-0.02871066704392433,0.005497787147760391
1733461486862422000,0.301422119140625,-0.07819075137376785,-0.031154127791523933,0.014049900695681572
1733461486872423400,0.31142333984375,-0.08307767659425735,-0.02687807008624077,0.02626720629632473
1733461486882411000,0.321410888671875,-0.0910189226269722,-0.027488935738801956,0.039095375686883926
1733461486892443000,0.33144287109375,-0.0910189226269722,-0.036651913076639175,0.04092797264456749
1733461486902400000,0.34139990234375,-0.08368854224681854,-0.03481931984424591,0.02382374368607998
1733461486912431900,0.351431884765625,-0.0757472887635231,-0.033597588539123535,0.014049900695681572
1733461486922419500,0.36141943359375,-0.06841690838336945,-0.0354301854968071,0.009162978269159794
1733461486932420900,0.3714208984375,-0.06291911751031876,-0.03726277872920036,0.01038470957428217
1733461486942408400,0.381408447265625,-0.060475658625364304,-0.036041051149368286,0.01466076634824276
1733461486952440300,0.3914404296875,-0.05925392732024193,-0.036041051149368286,0.015271631069481373
1733461486962397700,0.401397705078125,-0.06291911751031876,-0.0354301854968071,0.01466076634824276
1733461486972429300,0.41142919921875,-0.07024950534105301,-0.027488935738801956,0.01160643994808197
1733461486982417200,0.421417236328125,-0.07330382615327835,-0.02687807008624077,0.007941247895359993
1733461486992418600,0.43141845703125,-0.0708603709936142,-0.02076941914856434,0.00366519158706069
1733461487002406000,0.441406005859375,-0.0708603709936142,-0.015271631069481373,0.001832595793530345
1733461487012438000,0.45143798828125,-0.0708603709936142,-0.012828170321881771,0.00733038317412138
1733461487022395100,0.46139501953125,-0.06536258012056351,-0.005497787147760391,0.013439035043120384
1733461487032427000,0.471427001953125,-0.05925392732024193,-0.00366519158706069,0.018325956538319588
1733461487042414600,0.48141455078125,-0.04581489413976669,-0.00366519158706069,0.021991148591041565
1733461487052416000,0.491416015625,-0.03726277872920036,-0.00427605677396059,0.02382374368607998
1733461487062403600,0.501403564453125,-0.03298672288656235,-0.012828170321881771,0.03176499158143997
1733461487072435500,0.511435546875,-0.03420845419168472,-0.02321287989616394,0.039706241339445114
1733461487082423000,0.521423095703125,-0.03726277872920036,-0.039706241339445114,0.04948008432984352
1733461487092424400,0.531424560546875,-0.04398229718208313,-0.06291911751031876,0.05253441259264946
1733461487102412000,0.541412109375,-0.048258353024721146,-0.07635815441608429,0.04581489413976669
1733461487112443000,0.55144287109375,-0.051312681287527084,-0.07452555745840073,0.039095375686883926
1733461487122400800,0.56140087890625,-0.0507018156349659,-0.06658431142568588,0.0354301854968071
1733461487132432400,0.571432373046875,-0.05375614017248154,-0.05314527451992035,0.045204028487205505
1733461487142420200,0.581420166015625,-0.05375614017248154,-0.051312681287527084,0.06352998316287994
1733461487152421600,0.591421630859375,-0.04764748737215996,-0.04948008432984352,0.07880161702632904
1733461487162409200,0.6014091796875,-0.0403171069920063,-0.042760565876960754,0.08796459436416626
1733461487172440800,0.61144091796875,-0.03420845419168472,-0.03726277872920036,0.09040805697441101
1733461487182398200,0.621398193359375,-0.025656340643763542,-0.03848451003432274,0.08491026610136032
1733461487192429800,0.631429931640625,-0.015271631069481373,-0.02932153269648552,0.06719517707824707
1733461487202444500,0.641444580078125,-0.01038470957428217,-0.030543262138962746,0.06108652427792549
1733461487212419300,0.65141943359375,-0.01038470957428217,-0.02871066704392433,0.05497787147760391
1733461487222407200,0.6614072265625,-0.009162978269159794,-0.02321287989616394,0.04703662544488907
1733461487232438800,0.671438720703125,-0.012828170321881771,-0.028099801391363144,0.03481931984424591
1733461487242396200,0.681396240234375,-0.019547687843441963,-0.039706241339445114,0.019547687843441963
1733461487252427800,0.691427734375,-0.02076941914856434,-0.05192354694008827,0.005497787147760391
1733461487262416000,0.701415771484375,-0.021991148591041565,-0.06352998316287994,-0.00427605677396059
1733461487272417000,0.7114169921875,-0.022602014243602753,-0.05925392732024193,-0.001832595793530345
1733461487282404900,0.72140478515625,-0.012217304669320583,-0.03787364438176155,-0.0012217304902151227
1733461487292436700,0.731436767578125,0.0006108652451075613,-0.018936822190880775,-0.004886921960860491
1733461487302393600,0.7413935546875,0.005497787147760391,0.0012217304902151227,-0.0024434609804302454
1733461487312425500,0.751425537109375,0.013439035043120384,0.009162978269159794,-0.0006108652451075613
1733461487322413300,0.761413330078125,0.02015855349600315,0.01038470957428217,0.00427605677396059
1733461487332444200,0.771444091796875,0.018936822190880775,-0.005497787147760391,0.015882495790719986
1733461487342402300,0.78140234375,0.01466076634824276,-0.02871066704392433,0.030543262138962746
1733461487352433400,0.791433349609375,0.007941247895359993,-0.036651913076639175,0.021991148591041565
1733461487362422000,0.801422119140625,0.00427605677396059,-0.0507018156349659,0.00366519158706069
1733461487372422400,0.81142236328125,-0.0006108652451075613,-0.06108652427792549,-0.019547687843441963
1733461487382411000,0.821410888671875,-0.00733038317412138,-0.06291911751031876,-0.036651913076639175
1733461487392441900,0.83144189453125,-0.01038470957428217,-0.06475171446800232,-0.04459316283464432
1733461487402399700,0.841399658203125,-0.014049900695681572,-0.07635815441608429,-0.05803219974040985
1733461487412430800,0.851430908203125,-0.018325956538319588,-0.10690141469240189,-0.0806342139840126
1733461487422419500,0.86141943359375,-0.031154127791523933,-0.12950342893600464,-0.0861319974064827
1733461487432419800,0.871419921875,-0.0507018156349659,-0.13500121235847473,-0.08857546001672745
1733461487442408400,0.881408447265625,-0.05375614017248154,-0.12278391420841217,-0.06963863968849182
1733461487452439600,0.891439453125,-0.05375614017248154,-0.08796459436416626,-0.04459316283464432
1733461487462397700,0.901397705078125,-0.05375614017248154,-0.05375614017248154,-0.02015855349600315
1733461487472428500,0.911428466796875,-0.04948008432984352,-0.02687807008624077,-0.004886921960860491
1733461487482417000,0.9214169921875,-0.045204028487205505,0.02321287989616394,0.001832595793530345
1733461487492417500,0.93141748046875,-0.05253441259264946,0.04581489413976669,-0.005497787147760391
1733461487502406000,0.941406005859375,-0.06230825558304787,0.05742133408784866,-0.022602014243602753
1733461487512437000,0.95143701171875,-0.07696902006864548,0.05742133408784866,-0.03787364438176155
1733461487522395000,0.961394775390625,-0.09407325088977814,0.05497787147760391,-0.04581489413976669
1733461487532426200,0.97142626953125,-0.10567969083786011,0.05742133408784866,-0.04337143152952194
1733461487542414600,0.98141455078125,-0.11239920556545258,0.06230825558304787,-0.03237585723400116
1733461487552415200,0.991415283203125,-0.11484266817569733,0.0555887371301651,-0.01771509274840355
1733461487562403600,1.001403564453125,-0.10567969083786011,0.06414084881544113,0.0024434609804302454
1733461487572435200,1.011435302734375,-0.0861319974064827,0.08002334833145142,0.016493361443281174
1733461487582423000,1.021423095703125,-0.07024950534105301,0.09651670604944229,0.033597588539123535
1733461487592424400,1.031424560546875,-0.07635815441608429,0.08857546001672745,0.0403171069920063
1733461487602412000,1.041412109375,-0.07147123664617538,0.09285151958465576,0.05925392732024193
1733461487612444000,1.05144384765625,-0.051312681287527084,0.10323622822761536,0.08735372871160507
1733461487622401000,1.061401123046875,-0.04948008432984352,0.10934487730264664,0.12217304855585098
1733461487632432000,1.07143212890625,-0.0507018156349659,0.08857546001672745,0.15760323405265808
1733461487642420700,1.081420654296875,-0.0708603709936142,0.04886921867728233,0.14233160018920898
1733461487652421000,1.091421142578125,-0.09346238523721695,0.001832595793530345,0.09896016865968704
1733461487662409700,1.10140966796875,-0.11056660860776901,-0.04337143152952194,0.039095375686883926
1733461487672441000,1.111441162109375,-0.11728613078594208,-0.0757472887635231,-0.02932153269648552
1733461487682398700,1.121398681640625,-0.11423180252313614,-0.09468411654233932,-0.09040805697441101
1733461487692429800,1.131429931640625,-0.10323622822761536,-0.08429940044879913,-0.12950342893600464
1733461487702418200,1.141418212890625,-0.06352998316287994,-0.0006108652451075613,-0.1368338167667389
1733461487712418600,1.15141845703125,-0.033597588539123535,0.0555887371301651,-0.10506882518529892
1733461487722407200,1.1614072265625,-0.0024434609804302454,0.08552113175392151,-0.0555887371301651
1733461487732438800,1.171438720703125,0.02382374368607998,0.0861319974064827,-0.006719517521560192
1733461487742396200,1.181396240234375,0.04886921867728233,0.048258353024721146,0.03481931984424591
1733461487752427000,1.191427001953125,0.07330382615327835,-0.025045474991202354,0.06230825558304787
1733461487762415900,1.201415771484375,0.10201449692249298,-0.10323622822761536,0.08918632566928864
1733461487772416300,1.211416259765625,0.13744467496871948,-0.15882496535778046,0.1111774742603302
1733461487782404900,1.22140478515625,0.18814650177955627,-0.19364428520202637,0.13316862285137177
1733461487792435700,1.231435791015625,0.2217440903186798,-0.18936823308467865,0.13866640627384186
1733461487802393900,1.241393798828125,0.24556782841682434,-0.15393804013729095,0.14844025671482086
1733461487812425000,1.251425048828125,0.2528982162475586,-0.08674286305904388,0.15943582355976105
1733461487822413300,1.261413330078125,0.251676470041275,-0.006719517521560192,0.14966198801994324
1733461487832444000,1.27144384765625,0.2590068578720093,0.06719517707824707,0.11545353382825851
1733461487842402300,1.28140234375,0.26511552929878235,0.13011430203914642,0.05253441259264946
1733461487852433700,1.29143359375,0.27061331272125244,0.17959438264369965,-0.10995574295520782
1733461487862422000,1.301422119140625,0.2669481039047241,0.18997909128665924,-0.24373523890972137
1733461487872422400,1.31142236328125,0.25595253705978394,0.19792033731937408,-0.3689626157283783
1733461487882410800,1.32141064453125,0.23151792585849762,0.20830504596233368,-0.46731191873550415
1733461487892441900,1.33144189453125,0.19853121042251587,0.19914206862449646,-0.5271766781806946
1733461487902400000,1.34139990234375,0.1667662113904953,0.17104226350784302,-0.5393940210342407
1733461487912430600,1.3514306640625,0.1362229436635971,0.1514945775270462,-0.5002986192703247
1733461487922419500,1.36141943359375,0.10262536257505417,0.12889257073402405,-0.35674530267715454
1733461487932419800,1.371419921875,0.09651670604944229,0.12767083942890167,-0.23273965716362
1733461487942408400,1.381408447265625,0.09407325088977814,0.12217304855585098,-0.10690141469240189
1733461487952439800,1.391439697265625,0.09712757170200348,0.11056660860776901,0.010995574295520782
1733461487962397700,1.401397705078125,0.10995574295520782,0.09407325088977814,0.10201449692249298
1733461487972428800,1.4114287109375,0.12461651116609573,0.0806342139840126,0.15454891324043274
1733461487982417200,1.421417236328125,0.14782938361167908,0.07208210229873657,0.17348572611808777
1733461487992417800,1.431417724609375,0.17348572611808777,0.0659734457731247,0.16493362188339233
1733461488002406000,1.441406005859375,0.2028072625398636,0.08307767659425735,0.11545353382825851
1733461488012437200,1.451437255859375,0.2217440903186798,0.07391469180583954,0.07819075137376785
1733461488022395100,1.46139501953125,0.22907446324825287,0.0959058403968811,0.0354301854968071
1733461488032426500,1.471426513671875,0.2223549485206604,0.11178833991289139,-0.00855211354792118
1733461488042414600,1.48141455078125,0.21074850857257843,0.1362229436635971,-0.0507018156349659
1733461488052415500,1.49141552734375,0.20097467303276062,0.16493362188339233,-0.0910189226269722
1733461488062403600,1.501403564453125,0.19058994948863983,0.19120082259178162,-0.11056660860776901
1733461488072435000,1.51143505859375,0.1814269721508026,0.2168571650981903,-0.11667526513338089
1733461488082423000,1.521423095703125,0.18325957655906677,0.2382374405860901,-0.11972958594560623
1733461488092423700,1.531423583984375,0.19303341209888458,0.26572638750076294,-0.13072516024112701
1733461488102412000,1.541412109375,0.2125810980796814,0.29504790902137756,-0.1508837193250656
1733461488112442400,1.5514423828125,0.2217440903186798,0.3139847218990326,-0.17043140530586243
1733461488122400800,1.56140087890625,0.22663100063800812,0.323147714138031,-0.18509216606616974
1733461488132432000,1.571431884765625,0.21868975460529327,0.3280346393585205,-0.19547687470912933
1733461488142420200,1.581420166015625,0.19547687470912933,0.3170390725135803,-0.20525072515010834
1733461488152420900,1.5914208984375,0.1814269721508026,0.26633724570274353,-0.19486601650714874
1733461488162409200,1.6014091796875,0.16493362188339233,0.16798794269561768,-0.16920967400074005
1733461488172440000,1.611440185546875,0.13988813757896423,0.045204028487205505,-0.1270599663257599
1733461488182398200,1.621398193359375,0.10323622822761536,-0.09346238523721695,-0.06841690838336945
1733461488192429300,1.63142919921875,0.07208210229873657,-0.2223549485206604,-0.012828170321881771
1733461488202417700,1.641417724609375,0.04764748737215996,-0.31031954288482666,0.00733038317412138
1733461488212418800,1.651418701171875,0.022602014243602753,-0.35674530267715454,-0.019547687843441963
1733461488222407200,1.6614072265625,0.036651913076639175,-0.3805690407752991,-0.12034045159816742
1733461488232438300,1.671438232421875,0.05619960278272629,-0.34147366881370544,-0.18936823308467865
1733461488242396200,1.681396240234375,0.06414084881544113,-0.2767219543457031,-0.2272418737411499
1733461488252427500,1.691427490234375,0.06169738993048668,-0.17348572611808777,-0.22540926933288574
1733461488262416000,1.701415771484375,0.04886921867728233,-0.05497787147760391,-0.19425514340400696
1733461488272416300,1.711416259765625,0.028099801391363144,0.05253441259264946,-0.15454891324043274
1733461488282404900,1.72140478515625,0.013439035043120384,0.11484266817569733,-0.10567969083786011
1733461488292435700,1.731435791015625,-0.012217304669320583,0.1258382350206375,-0.06475171446800232
1733461488302393600,1.7413935546875,-0.04214970022439957,0.06658431142568588,-0.0757472887635231
1733461488312425000,1.751425048828125,-0.08674286305904388,-0.02321287989616394,-0.10018189996480942
1733461488322413300,1.761413330078125,-0.12034045159816742,-0.1313360333442688,-0.1270599663257599
1733461488332444400,1.7714443359375,-0.14355333149433136,-0.21074850857257843,-0.15760323405265808
1733461488342402300,1.78140234375,-0.1459967941045761,-0.2785545587539673,-0.16737708449363708
1733461488352433400,1.791433349609375,-0.12217304855585098,-0.3274237811565399,-0.14844025671482086
1733461488362422000,1.801422119140625,-0.05864306539297104,-0.37079519033432007,-0.10934487730264664
1733461488372423000,1.8114228515625,0.004886921960860491,-0.3799581825733185,-0.0959058403968811
1733461488382410800,1.82141064453125,0.06902777403593063,-0.33108896017074585,-0.07819075137376785
1733461488392442600,1.831442626953125,0.1215621829032898,-0.20891591906547546,-0.013439035043120384
1733461488402400000,1.84139990234375,0.14905111491680145,-0.056810468435287476,0.11789698898792267
1733461488412431600,1.851431640625,0.13377949595451355,0.04581489413976669,0.3194825351238251
1733461488422419500,1.86141943359375,0.0806342139840126,0.08796459436416626,0.5467243790626526
1733461488432420400,1.87142041015625,-0.0006108652451075613,0.06169738993048668,0.7819074988365173
1733461488442408400,1.881408447265625,-0.12339477986097336,-0.06841690838336945,1.1020009517669678
1733461488452440000,1.891440185546875,-0.19486601650714874,-0.1973094791173935,1.2321151494979858
1733461488462397400,1.9013974609375,-0.24556782841682434,-0.34574973583221436,1.2736539840698242
1733461488472427800,1.911427734375,-0.2883284091949463,-0.4905247986316681,1.2235630750656128
1733461488482417000,1.9214169921875,-0.33536502718925476,-0.5662720799446106,1.0824532508850098
1733461488492417000,1.9314169921875,-0.35613444447517395,-0.5119050741195679,0.8833111524581909
1733461488502406000,1.941406005859375,-0.3280346393585205,-0.3878994286060333,0.6640105247497559
1733461488512436500,1.9514365234375,-0.26022860407829285,-0.16065755486488342,0.34513887763023376
1733461488522395100,1.96139501953125,-0.2028072625398636,-0.003054326167330146,0.16859880089759827
1733461488532426800,1.9714267578125,-0.12950342893600464,0.11728613078594208,0.04398229718208313
1733461488542414600,1.98141455078125,-0.07391469180583954,0.2125810980796814,-0.04642575979232788
1733461488552415700,1.991415771484375,-0.030543262138962746,0.252287358045578,-0.10995574295520782
1733461488562403600,2.001403564453125,-0.012828170321881771,0.251676470041275,-0.15454891324043274
1733461488572435200,2.011435302734375,-0.030543262138962746,0.2590068578720093,-0.2174680233001709
1733461488582423000,2.021423095703125,-0.08368854224681854,0.26572638750076294,-0.38240164518356323
1733461488592424200,2.031424072265625,-0.1417207419872284,0.294437050819397,-0.5314527750015259
1733461488602412000,2.041412109375,-0.2015855312347412,0.3280346393585205,-0.6615670323371887
1733461488612443600,2.051443603515625,-0.26083946228027344,0.3341432809829712,-0.7422012686729431
1733461488622401000,2.061401123046875,-0.3078760802745819,0.33047810196876526,-0.7764097452163696
1733461488632432000,2.07143212890625,-0.3390302062034607,0.303600013256073,-0.759305477142334
1733461488642420700,2.081420654296875,-0.342695415019989,0.22907446324825287,-0.6951646208763123
1733461488652421000,2.091421142578125,-0.33536502718925476,0.12400564551353455,-0.6053674817085266
1733461488662409700,2.10140966796875,-0.33597588539123535,-0.04153883829712868,-0.4440990388393402
1733461488672440800,2.11144091796875,-0.33597588539123535,-0.1007927656173706,-0.3274237811565399
1733461488682398700,2.121398681640625,-0.32559117674827576,-0.13011430203914642,-0.21135938167572021
1733461488692429800,2.131429931640625,-0.3121521472930908,-0.16310101747512817,-0.10934487730264664
1733461488702418200,2.141418212890625,-0.3017674386501312,-0.20952677726745605,-0.028099801391363144
1733461488712418800,2.151418701171875,-0.2871066629886627,-0.23884831368923187,0.022602014243602753
1733461488722407200,2.1614072265625,-0.26450464129447937,-0.251676470041275,0.05009094998240471
1733461488732438500,2.1714384765625,-0.2272418737411499,-0.2370157092809677,0.07757988572120667
1733461488742396200,2.181396240234375,-0.18631389737129211,-0.18387043476104736,0.09957103431224823
1733461488752427500,2.191427490234375,-0.13377949595451355,-0.10995574295520782,0.1215621829032898
1733461488762415900,2.201415771484375,-0.08857546001672745,-0.03237585723400116,0.14233160018920898
1733461488772416300,2.211416259765625,-0.04764748737215996,0.02626720629632473,0.15760323405265808
1733461488782404900,2.22140478515625,-0.01038470957428217,0.0708603709936142,0.16310101747512817
1733461488792435700,2.231435791015625,0.02871066704392433,0.10445795953273773,0.16065755486488342
1733461488802393600,2.2413935546875,0.07147123664617538,0.12828169763088226,0.15271630883216858
1733461488812425000,2.251425048828125,0.10323622822761536,0.192422553896904,0.11178833991289139
1733461488822413300,2.261413330078125,0.10506882518529892,0.26633724570274353,0.07757988572120667
1733461488832444400,2.2714443359375,0.10262536257505417,0.3072652220726013,0.06108652427792549
1733461488842402300,2.28140234375,0.09346238523721695,0.29565876722335815,0.06169738993048668
1733461488852434200,2.29143408203125,0.07269296050071716,0.1966986060142517,0.08796459436416626
1733461488862422000,2.301422119140625,0.04214970022439957,0.03420845419168472,0.14233160018920898
1733461488872423000,2.3114228515625,-0.004886921960860491,-0.12828169763088226,0.22602014243602753
1733461488882411000,2.321410888671875,-0.09834930300712585,-0.23151792585849762,0.40683624148368835
1733461488892442600,2.331442626953125,-0.13072516024112701,-0.16065755486488342,0.5210680365562439
1733461488902400000,2.34139990234375,-0.12461651116609573,-0.05192354694008827,0.5815436840057373
1733461488912431000,2.35143115234375,-0.08491026610136032,0.025656340643763542,0.5558874011039734
1733461488922419500,2.36141943359375,-0.039095375686883926,0.02321287989616394,0.45692721009254456
1733461488932420000,2.371420166015625,0.010995574295520782,0.01466076634824276,0.3139847218990326
1733461488942408700,2.38140869140625,0.06719517707824707,0.030543262138962746,0.1716531366109848
1733461488952439800,2.391439697265625,0.1472185254096985,0.09651670604944229,-0.03787364438176155
1733461488962397700,2.401397705078125,0.18631389737129211,0.07819075137376785,-0.17531833052635193
1733461488972429000,2.411428955078125,0.19120082259178162,-0.05742133408784866,-0.3023782968521118
1733461488982417200,2.421417236328125,0.15577064454555511,-0.27061331272125244,-0.3640756905078888
1733461488992418300,2.431418212890625,0.09407325088977814,-0.5070181488990784,-0.29077184200286865
1733461489002406000,2.441406005859375,0.012828170321881771,-0.5937610268592834,-0.04459316283464432
1733461489012437800,2.451437744140625,-0.05009094998240471,-0.4954117238521576,0.3677408695220947
1733461489022395100,2.46139501953125,-0.06414084881544113,-0.28099802136421204,0.8515461683273315
1733461489032425500,2.471425537109375,-0.025045474991202354,0.19975294172763824,1.3946053981781006
1733461489042414600,2.48141455078125,0.0012217304902151227,0.45753806829452515,1.5332717895507812
1733461489052416800,2.491416748046875,0.007941247895359993,0.5687155723571777,1.4862351417541504
1733461489062403600,2.501403564453125,0.016493361443281174,0.6017022728919983,1.2822061777114868
1733461489072434000,2.511433837890625,0.05619960278272629,0.5583308339118958,0.9841039180755615
1733461489082423300,2.52142333984375,0.15454891324043274,0.4086688458919525,0.6414085030555725
1733461489092425000,2.531425048828125,0.2974913716316223,0.2028072625398636,0.28038713335990906
1733461489102412000,2.541412109375,0.43799036741256714,-0.2791654169559479,-0.19914206862449646
1733461489112443100,2.551443115234375,0.42760565876960754,-0.5442809462547302,-0.44104471802711487
1733461489122400800,2.56140087890625,0.3640756905078888,-0.588874101638794,-0.6017022728919983
1733461489132432400,2.571432373046875,0.2681698501110077,-0.46731191873550415,-0.6359107494354248
1733461489142420200,2.581420166015625,0.17104226350784302,-0.25961771607398987,-0.5510004758834839
1733461489152421400,2.59142138671875,0.09162978827953339,-0.03237585723400116,-0.3988949954509735
1733461489162409200,2.6014091796875,0.045204028487205505,0.1661553531885147,-0.23457226157188416
1733461489172440800,2.61144091796875,0.01466076634824276,0.394008070230484,-0.04337143152952194
1733461489182398200,2.621398193359375,0.01771509274840355,0.4764748811721802,0.03787364438176155
1733461489192429300,2.63142919921875,0.04214970022439957,0.4813618063926697,0.09285151958465576
1733461489202448100,2.6414482421875,0.08124507963657379,0.4098905920982361,0.11911872029304504
1733461489212418000,2.65141796875,0.13011430203914642,0.2632829248905182,0.13377949595451355
1733461489222407200,2.6614072265625,0.18020524084568024,0.11239920556545258,0.1215621829032898
1733461489232438300,2.671438232421875,0.22540926933288574,-0.014049900695681572,0.07452555745840073
1733461489242396200,2.681396240234375,0.25961771607398987,-0.11178833991289139,0.0006108652451075613
1733461489252427800,2.691427734375,0.2938261926174164,-0.18631389737129211,-0.11545353382825851
1733461489262416000,2.701415771484375,0.3072652220726013,-0.1820378452539444,-0.1667662113904953
1733461489272416500,2.71141650390625,0.3127630054950714,-0.15393804013729095,-0.19792033731937408
1733461489282404900,2.72140478515625,0.31154128909111023,-0.11178833991289139,-0.21319197118282318
1733461489292436200,2.731436279296875,0.2932153046131134,-0.0708603709936142,-0.21013765037059784
1733461489302393600,2.7413935546875,0.2565633952617645,-0.042760565876960754,-0.18997909128665924
1733461489312425000,2.751425048828125,0.21930062770843506,-0.013439035043120384,-0.1661553531885147
1733461489322413300,2.761413330078125,0.17348572611808777,0.02871066704392433,-0.12339477986097336
1733461489332444400,2.7714443359375,0.14233160018920898,0.060475658625364304,-0.07696902006864548
1733461489342402300,2.78140234375,0.11423180252313614,0.07696902006864548,-0.027488935738801956
1733461489352433700,2.79143359375,0.07024950534105301,0.0555887371301651,0.015882495790719986
1733461489362422000,2.801422119140625,0.03420845419168472,0.014049900695681572,0.048258353024721146
1733461489372422400,2.81142236328125,0.006108652334660292,-0.028099801391363144,0.06658431142568588
1733461489382411000,2.821410888671875,-0.009773843921720982,-0.051312681287527084,0.06780604273080826
1733461489392441900,2.83144189453125,0.004886921960860491,-0.05803219974040985,0.039095375686883926
1733461489402400000,2.84139990234375,0.03176499158143997,-0.04948008432984352,0.00733038317412138
1733461489412430800,2.851430908203125,0.06780604273080826,0.012217304669320583,-0.03787364438176155
1733461489422419500,2.86141943359375,0.08246681094169617,0.11911872029304504,-0.07696902006864548
1733461489432419800,2.871419921875,0.06780604273080826,0.2681698501110077,-0.08979719132184982
1733461489442408400,2.881408447265625,0.03787364438176155,0.38240164518356323,-0.09346238523721695
1733461489452439600,2.891439453125,-0.006108652334660292,0.41111230850219727,-0.1160643994808197
1733461489462397700,2.901397705078125,-0.08002334833145142,0.2889392673969269,-0.15882496535778046
1733461489472428300,2.91142822265625,-0.25595253705978394,-0.06963863968849182,-0.18325957655906677
1733461489482417000,2.9214169921875,-0.3597996234893799,-0.304210901260376,-0.11056660860776901
1733461489492417800,2.931417724609375,-0.4239404797554016,-0.4489859640598297,0.031154127791523933
1733461489502406000,2.941406005859375,-0.45631635189056396,-0.4954117238521576,0.16371189057826996
1733461489512437500,2.9514375,-0.45875978469848633,-0.48380526900291443,0.23457226157188416
1733461489522395000,2.961394775390625,-0.43127086758613586,-0.44165557622909546,0.24129177629947662
1733461489532426500,2.971426513671875,-0.37568211555480957,-0.3689626157283783,0.24068090319633484
1733461489542414600,2.98141455078125,-0.37079519033432007,-0.2871066629886627,0.36651915311813354
1733461489552415700,2.991415771484375,-0.42638394236564636,-0.29993483424186707,0.5619960427284241
1733461489562403600,3.001403564453125,-0.484416127204895,-0.26572638750076294,0.7855727076530457
1733461489572435200,3.011435302734375,-0.5082398653030396,-0.21563543379306793,0.9645562171936035
1733461489582423000,3.021423095703125,-0.5204572081565857,-0.19058994948863983,1.0390818119049072
1733461489592423000,3.0314228515625,-0.5222898125648499,-0.20525072515010834,0.9816604256629944
1733461489602412000,3.041412109375,-0.48685958981513977,-0.21807889640331268,0.8124507665634155
1733461489612442600,3.051442626953125,-0.3891211748123169,-0.18081611394882202,0.4178318381309509
1733461489622401000,3.061401123046875,-0.3225368559360504,-0.09529497474431992,0.13316862285137177
1733461489632431900,3.071431884765625,-0.3078760802745819,0.022602014243602753,-0.09834930300712585
1733461489642420700,3.081420654296875,-0.34636059403419495,0.16432274878025055,-0.22479841113090515
1733461489652422000,3.091421875,-0.36713001132011414,0.35613444447517395,-0.2528982162475586
1733461489662409700,3.10140966796875,-0.3732386529445648,0.5125159621238708,-0.23273965716362
1733461489672441300,3.11144140625,-0.3995058834552765,0.607810914516449,-0.22418753802776337
1733461489682398700,3.121398681640625,-0.45204028487205505,0.6230825781822205,-0.252287358045578
1733461489692429600,3.1314296875,-0.5406157374382019,0.5540547966957092,-0.34758231043815613
1733461489702418200,3.141418212890625,-0.5894849896430969,0.4386012554168701,-0.4239404797554016
1733461489712418300,3.151418212890625,-0.618195652961731,0.2687807083129883,-0.48869219422340393
1733461489722407400,3.161407470703125,-0.607200026512146,0.08429940044879913,-0.5326744914054871
1733461489732437800,3.171437744140625,-0.5644394755363464,-0.0757472887635231,-0.5479460954666138
1733461489742396200,3.181396240234375,-0.5076290369033813,-0.17898350954055786,-0.5277875661849976
1733461489752427500,3.191427490234375,-0.44593164324760437,-0.2321287989616394,-0.4746423065662384
1733461489762415900,3.201415771484375,-0.3683517575263977,-0.23945917189121246,-0.3701843321323395
1733461489772416500,3.21141650390625,-0.31520646810531616,-0.2076941877603531,-0.2987131178379059
1733461489782404900,3.22140478515625,-0.24923302233219147,-0.17409659922122955,-0.22296582162380219
1733461489792436200,3.231436279296875,-0.1771509200334549,-0.1466076523065567,-0.14905111491680145
1733461489802393600,3.2413935546875,-0.10445795953273773,-0.13316862285137177,-0.08552113175392151
1733461489812425000,3.251425048828125,-0.0403171069920063,-0.1270599663257599,-0.045204028487205505
1733461489822413300,3.261413330078125,0.0024434609804302454,-0.1007927656173706,-0.03237585723400116
1733461489832444400,3.2714443359375,0.04092797264456749,-0.05192354694008827,-0.05742133408784866
1733461489842402300,3.28140234375,0.05497787147760391,-0.02015855349600315,-0.09712757170200348
1733461489852433400,3.291433349609375,0.06230825558304787,0.019547687843441963,-0.14294247329235077
1733461489862422000,3.301422119140625,0.06719517707824707,0.05253441259264946,-0.17776179313659668
1733461489872422400,3.31142236328125,0.06230825558304787,0.0757472887635231,-0.18936823308467865
1733461489882411000,3.321410888671875,0.054367005825042725,0.10323622822761536,-0.182648703455925
1733461489892441900,3.33144189453125,0.04092797264456749,0.14355333149433136,-0.16371189057826996
1733461489902400000,3.34139990234375,0.02932153269648552,0.1820378452539444,-0.1417207419872284
1733461489912430800,3.351430908203125,0.01160643994808197,0.22846360504627228,-0.1215621829032898
1733461489922419500,3.36141943359375,0.004886921960860491,0.22968533635139465,-0.12095131725072861
1733461489932420000,3.371420166015625,-0.0012217304902151227,0.2015855312347412,-0.13072516024112701
1733461489942408400,3.381408447265625,-0.003054326167330146,0.14844025671482086,-0.14416420459747314
1733461489952439600,3.391439453125,-0.012828170321881771,0.1062905490398407,-0.16371189057826996
1733461489962397700,3.401397705078125,-0.03176499158143997,0.0806342139840126,-0.18997909128665924
1733461489972428300,3.41142822265625,-0.060475658625364304,0.04459316283464432,-0.21930062770843506
1733461489982417200,3.421417236328125,-0.12461651116609573,-0.033597588539123535,-0.24862214922904968
1733461489992418300,3.431418212890625,-0.17592918872833252,-0.039095375686883926,-0.24984388053417206
1733461490002406000,3.441406005859375,-0.21624629199504852,0.001832595793530345,-0.22357667982578278
1733461490012438000,3.45143798828125,-0.23457226157188416,0.08002334833145142,-0.1618792861700058
1733461490022395100,3.46139501953125,-0.21991148591041565,0.19425514340400696,-0.07208210229873657
1733461490032426500,3.471426513671875,-0.17959438264369965,0.3243694305419922,0.028099801391363144
1733461490042414600,3.48141455078125,-0.13377949595451355,0.44287729263305664,0.10567969083786011
1733461490052415200,3.491415283203125,-0.07208210229873657,0.5827654600143433,0.1270599663257599
1733461490062403600,3.501403564453125,-0.03298672288656235,0.6407976150512695,0.06108652427792549
1733461490072435500,3.511435546875,0.014049900695681572,0.656069278717041,-0.06352998316287994
1733461490082423000,3.521423095703125,0.054367005825042725,0.6200281977653503,-0.20402899384498596
1733461490092424000,3.531423828125,0.0757472887635231,0.494189977645874,-0.28099802136421204
1733461490102412000,3.541412109375,0.06780604273080826,0.31154128909111023,-0.23029619455337524
1733461490112443000,3.55144287109375,0.02626720629632473,0.07269296050071716,0.005497787147760391
1733461490122400800,3.56140087890625,-0.06963863968849182,-0.22540926933288574,0.43737950921058655
1733461490132432400,3.571432373046875,-0.21930062770843506,-0.5259549617767334,1.2370021343231201
1733461490142420200,3.581420166015625,-0.21624629199504852,-0.5057964324951172,1.6988162994384766
1733461490152421400,3.59142138671875,-0.19547687470912933,-0.3543018400669098,2.010357618331909
1733461490162409200,3.6014091796875,-0.14844025671482086,-0.14294247329235077,2.143526077270508
1733461490172441600,3.611441650390625,-0.06414084881544113,0.0806342139840126,2.069000482559204
1733461490182398200,3.621398193359375,0.025656340643763542,0.34025195240974426,1.7715091705322266
1733461490192204300,3.631204345703125,0.09834930300712585,0.6029239892959595,1.3103059530258179
1733461490202496500,3.64149658203125,0.20830504596233368,0.5436700582504272,0.5253441333770752
1733461490212418800,3.651418701171875,0.21013765037059784,0.3182607889175415,0.03420845419168472
1733461490222407200,3.6614072265625,0.14844025671482086,0.05192354694008827,-0.37568211555480957
1733461490232438800,3.671438720703125,0.04948008432984352,-0.19608774781227112,-0.655458390712738
1733461490242396200,3.681396240234375,-0.08674286305904388,-0.40072759985923767,-0.797789990901947
1733461490252428000,3.691427978515625,-0.2480112910270691,-0.5106833577156067,-0.8148942589759827
1733461490262416000,3.701415771484375,-0.40072759985923767,-0.5516113042831421,-0.7324274182319641
1733461490272416800,3.711416748046875,-0.5955936312675476,-0.4899139404296875,-0.5277875661849976
1733461490282404900,3.72140478515625,-0.7018841505050659,-0.4043927788734436,-0.4001167416572571
1733461490292436500,3.7314365234375,-0.770301103591919,-0.3219259977340698,-0.2968805134296417
1733461490302393600,3.7413935546875,-0.8008443117141724,-0.252287358045578,-0.2174680233001709
1733461490312425000,3.751425048828125,-0.8026769161224365,-0.19547687470912933,-0.1661553531885147
1733461490322413300,3.761413330078125,-0.7929030656814575,-0.17409659922122955,-0.1411098688840866
1733461490332444700,3.771444580078125,-0.7757988572120667,-0.21624629199504852,-0.12950342893600464
1733461490342402300,3.78140234375,-0.7684684991836548,-0.27000242471694946,-0.12400564551353455
1733461490352433700,3.79143359375,-0.789237916469574,-0.33108896017074585,-0.09651670604944229
1733461490362422000,3.801422119140625,-0.8130616545677185,-0.3793473243713379,-0.05253441259264946
1733461490372422700,3.811422607421875,-0.8442157506942749,-0.4141666293144226,-0.010995574295520782
1733461490382410800,3.82141064453125,-0.8827002644538879,-0.42638394236564636,0.02871066704392433
1733461490392442000,3.831442138671875,-0.9260717034339905,-0.41599923372268677,0.06352998316287994
1733461490402399700,3.841399658203125,-0.9676105380058289,-0.37262779474258423,0.1062905490398407
1733461490412431000,3.85143115234375,-1.0067058801651,-0.3139847218990326,0.152105450630188
1733461490422419500,3.86141943359375,-1.064738154411316,-0.242513507604599,0.22663100063800812
1733461490432420000,3.871420166015625,-1.103833556175232,-0.2278527319431305,0.2767219543457031
1733461490442408400,3.881408447265625,-1.1410962343215942,-0.22663100063800812,0.3188716471195221
1733461490452439600,3.891439453125,-1.1740829944610596,-0.242513507604599,0.3433062732219696
1733461490462397400,3.9013974609375,-1.208902359008789,-0.26145032048225403,0.34636059403419495
1733461490472429300,3.91142919921875,-1.2479976415634155,-0.27611109614372253,0.3194825351238251
1733461490482417000,3.9214169921875,-1.2980886697769165,-0.28527405858039856,0.27000242471694946
1733461490492418300,3.931418212890625,-1.3866641521453857,-0.2834414839744568,0.15027284622192383
1733461490502406000,3.941406005859375,-1.4477506875991821,-0.3029891550540924,0.06291911751031876
1733461490512437800,3.951437744140625,-1.5094480514526367,-0.34574973583221436,-0.00733038317412138
1733461490522395100,3.96139501953125,-1.566258430480957,-0.40072759985923767,-0.04337143152952194
1733461490532426800,3.9714267578125,-1.6169602870941162,-0.4447098970413208,-0.039706241339445114
1733461490542414600,3.98141455078125,-1.6658295392990112,-0.44654250144958496,0.006108652334660292
1733461490552415700,3.991415771484375,-1.7055357694625854,-0.40072759985923767,0.08857546001672745
1733461490562403600,4.001403564453125,-1.7275269031524658,-0.33169981837272644,0.1814269721508026
1733461490572435500,4.011435546875,-1.7556266784667969,-0.2742784917354584,0.23029619455337524
1733461490582423000,4.021423095703125,-1.788002610206604,-0.2724458873271942,0.1514945775270462
1733461490592423000,4.0314228515625,-1.8466455936431885,-0.34758231043815613,-0.01710422709584236
1733461490602412000,4.041412109375,-1.9272798299789429,-0.45142942667007446,-0.2223549485206604
1733461490612444200,4.051444091796875,-1.9883663654327393,-0.5418374538421631,-0.36224308609962463
1733461490622401000,4.061401123046875,-2.0164661407470703,-0.7452555894851685,-0.4129449129104614
1733461490632433200,4.07143310546875,-2.0806069374084473,-0.8973610401153564,-0.39706242084503174
1733461490642420700,4.081420654296875,-2.12703275680542,-0.941343367099762,-0.21441370248794556
1733461490652422000,4.091421875,-2.116647958755493,-0.846659243106842,-0.04398229718208313
1733461490662409700,4.10140966796875,-2.0757200717926025,-0.6536257863044739,0.10934487730264664
1733461490672441300,4.11144140625,-2.0170769691467285,-0.43737950921058655,0.21441370248794556
1733461490682398700,4.121398681640625,-1.9614882469177246,-0.28527405858039856,0.26083946228027344
1733461490692430600,4.1314306640625,-1.9217820167541504,-0.2168571650981903,0.2571742534637451
1733461490702418200,4.141418212890625,-1.9120081663131714,-0.2021963894367218,0.23335053026676178
1733461490712419300,4.15141943359375,-1.949881911277771,-0.24007004499435425,0.20586158335208893
1733461490722407200,4.1614072265625,-2.0030272006988525,-0.26022860407829285,0.20036379992961884
1733461490732439000,4.17143896484375,-2.069000482559204,-0.2626720666885376,0.18936823308467865
1733461490742396200,4.181396240234375,-2.1368067264556885,-0.2638937830924988,0.15821409225463867
1733461490752428000,4.191427978515625,-2.191173553466797,-0.2480112910270691,0.09468411654233932
1733461490762415900,4.201415771484375,-2.22782564163208,-0.18448130786418915,-0.005497787147760391
1733461490772417000,4.2114169921875,-2.2229385375976562,-0.19975294172763824,-0.1362229436635971
1733461490782404900,4.22140478515625,-2.202169179916382,-0.26511552929878235,-0.29993483424186707
1733461490792436700,4.231436767578125,-2.13314151763916,-0.39584067463874817,-0.5534439086914062
1733461490802393600,4.2413935546875,-2.0616703033447266,-0.48685958981513977,-0.6835582256317139
1733461490812425700,4.25142578125,-2.012800931930542,-0.6401867866516113,-0.7562511563301086
1733461490822413300,4.261413330078125,-1.9938641786575317,-0.7470881938934326,-0.7391469478607178
1733461490832445200,4.271445068359375,-1.9620991945266724,-0.7562511563301086,-0.6383541822433472
1733461490842402300,4.28140234375,-1.9254472255706787,-0.7440338730812073,-0.4813618063926697
1733461490852434200,4.29143408203125,-1.9089539051055908,-0.7483099102973938,-0.3127630054950714
1733461490862422000,4.301422119140625,-1.8979582786560059,-0.7293730974197388,-0.11239920556545258
1733461490872423200,4.311423095703125,-1.8955148458480835,-0.720820963382721,-0.029932396486401558
1733461490882411000,4.321410888671875,-1.8949040174484253,-0.7269296646118164,0.01710422709584236
1733461490892442600,4.331442626953125,-1.9040669202804565,-0.7220427393913269,0.029932396486401558
1733461490902399700,4.341399658203125,-1.9175059795379639,-0.7067710757255554,0.018936822190880775
1733461490912430800,4.351430908203125,-1.9254472255706787,-0.6878342628479004,0.003054326167330146
1733461490922419500,4.36141943359375,-1.9285016059875488,-0.656069278717041,-0.02076941914856434
1733461490932419800,4.371419921875,-1.9187277555465698,-0.5962044596672058,-0.06352998316287994
1733461490942408400,4.381408447265625,-1.890017032623291,-0.5528330206871033,-0.09651670604944229
1733461490952439600,4.391439453125,-1.8442021608352661,-0.4996877610683441,-0.12767083942890167
1733461490962397700,4.401397705078125,-1.7904460430145264,-0.44715335965156555,-0.16004669666290283
1733461490972428800,4.4114287109375,-1.7342463731765747,-0.4294382631778717,-0.19975294172763824
1733461490982417200,4.421417236328125,-1.6670511960983276,-0.40072759985923767,-0.24984388053417206
1733461490992418300,4.431418212890625,-1.5876387357711792,-0.37690386176109314,-0.3139847218990326
1733461491002406000,4.441406005859375,-1.5063936710357666,-0.3225368559360504,-0.3830125033855438
1733461491012438000,4.45143798828125,-1.3994922637939453,-0.20830504596233368,-0.46364670991897583
1733461491022395100,4.46139501953125,-1.3640620708465576,-0.13316862285137177,-0.4905247986316681
1733461491032427000,4.471427001953125,-1.3555099964141846,-0.05497787147760391,-0.48258355259895325
1733461491042414600,4.48141455078125,-1.3548991680145264,0.031154127791523933,-0.4538728892803192
1733461491052415200,4.491415283203125,-1.361007809638977,0.1062905490398407,-0.4141666293144226
1733461491062403600,4.501403564453125,-1.3616186380386353,0.14233160018920898,-0.37751471996307373
1733461491072435000,4.51143505859375,-1.36650550365448,0.13255776464939117,-0.3500257730484009
1733461491082423000,4.521423095703125,-1.3585642576217651,0.07819075137376785,-0.32986724376678467
1733461491092424000,4.531423828125,-1.3439035415649414,0.05192354694008827,-0.3219259977340698
1733461491102412000,4.541412109375,-1.3261884450912476,0.036651913076639175,-0.30970868468284607
1733461491112442600,4.551442626953125,-1.29381263256073,0.04153883829712868,-0.2871066629886627
1733461491122400800,4.56140087890625,-1.2455542087554932,0.054367005825042725,-0.2480112910270691
1733461491132432100,4.57143212890625,-1.1850786209106445,0.06414084881544113,-0.19853121042251587
1733461491142420200,4.581420166015625,-1.1166616678237915,0.0555887371301651,-0.1508837193250656
1733461491152420600,4.591420654296875,-1.007927656173706,0.028099801391363144,-0.10445795953273773
1733461491162409200,4.6014091796875,-0.9291260242462158,0.001832595793530345,-0.09407325088977814
1733461491172440600,4.611440673828125,-0.8442157506942749,-0.029932396486401558,-0.09224065393209457
1733461491182398200,4.621398193359375,-0.7568620443344116,-0.08307767659425735,-0.08674286305904388
1733461491192429600,4.6314296875,-0.6786713004112244,-0.11850785464048386,-0.06719517707824707
1733461491202448100,4.6414482421875,-0.6151412725448608,-0.13439035415649414,-0.02382374368607998
1733461491212418800,4.651418701171875,-0.5668829679489136,-0.13744467496871948,0.0507018156349659
1733461491222407200,4.6614072265625,-0.5277875661849976,-0.13866640627384186,0.1417207419872284
1733461491232438500,4.6714384765625,-0.45631635189056396,-0.07696902006864548,0.25961771607398987
1733461491242396200,4.681396240234375,-0.39217549562454224,0.003054326167330146,0.3023782968521118
1733461491252427500,4.691427490234375,-0.3182607889175415,0.08368854224681854,0.31031954288482666
1733461491262416000,4.701415771484375,-0.24495697021484375,0.16432274878025055,0.27977627515792847
1733461491272416300,4.711416259765625,-0.16982053220272064,0.242513507604599,0.2168571650981903
1733461491282404900,4.72140478515625,-0.09162978827953339,0.304210901260376,0.13988813757896423
1733461491292436500,4.7314365234375,-0.003054326167330146,0.3933972120285034,0.08552113175392151
1733461491302393600,4.7413935546875,0.07635815441608429,0.35185837745666504,0.11911872029304504
1733461491312425500,4.751425537109375,0.06414084881544113,0.23335053026676178,0.24495697021484375
1733461491322413300,4.761413330078125,0.006108652334660292,0.031154127791523933,0.455705463886261
1733461491332445000,4.77144482421875,-0.09957103431224823,-0.21868975460529327,0.7415903806686401
1733461491342402300,4.78140234375,-0.2070833146572113,-0.4196644127368927,1.0757336616516113
1733461491352434000,4.791433837890625,-0.28527405858039856,-0.5546656250953674,1.4080443382263184
1733461491362422000,4.801422119140625,-0.3182607889175415,-0.5632177591323853,1.6798794269561768
1733461491372421600,4.811421630859375,-0.29138273000717163,-0.4300491213798523,1.89979088306427
1733461491382410800,4.82141064453125,-0.24923302233219147,-0.2565633952617645,1.86191725730896
1733461491392443600,4.831443603515625,-0.2021963894367218,-0.0806342139840126,1.632842779159546
1733461491402399700,4.841399658203125,-0.1508837193250656,0.022602014243602753,1.2553280591964722
1733461491412432400,4.851432373046875,-0.10384709388017654,0.03726277872920036,0.7935139536857605
1733461491422419500,4.86141943359375,-0.06414084881544113,0.06963863968849182,0.3292563557624817
1733461491432419300,4.87141943359375,-0.009773843921720982,-0.03176499158143997,-0.04337143152952194
1733461491442408400,4.881408447265625,0.001832595793530345,-0.09224065393209457,-0.29504790902137756
1733461491452440000,4.891440185546875,-0.08918632566928864,-0.09407325088977814,-0.4288274049758911
1733461491462397400,4.9013974609375,-0.16371189057826996,-0.00366519158706069,-0.3982841372489929
1733461491472428800,4.9114287109375,-0.22968533635139465,0.05314527451992035,-0.33719760179519653
1733461491482417200,4.921417236328125,-0.2883284091949463,0.045204028487205505,-0.29138273000717163
1733461491492416800,4.931416748046875,-0.34697145223617554,0.04153883829712868,-0.2883284091949463
1733461491502406000,4.941406005859375,-0.3781255781650543,-0.014049900695681572,-0.33169981837272644
1733461491512436700,4.951436767578125,-0.3738495409488678,-0.12217304855585098,-0.4056145250797272
1733461491522395100,4.96139501953125,-0.3139847218990326,-0.3170390725135803,-0.5198463201522827
1733461491532425500,4.971425537109375,-0.24129177629947662,-0.4086688458919525,-0.5674937963485718
1733461491542414600,4.98141455078125,-0.14782938361167908,-0.46792277693748474,-0.5516113042831421
1733461491552415200,4.991415283203125,-0.05803219974040985,-0.47280970215797424,-0.4703662395477295
1733461491562403600,5.001403564453125,0.007941247895359993,-0.45204028487205505,-0.34147366881370544
1733461491572434700,5.0114345703125,0.06291911751031876,-0.42088615894317627,-0.19425514340400696
1733461491582423000,5.021423095703125,0.1111774742603302,-0.3701843321323395,-0.06108652427792549
1733461491592423400,5.03142333984375,0.16798794269561768,-0.28649580478668213,0.06108652427792549
1733461491602412000,5.041412109375,0.1875356286764145,-0.24007004499435425,0.08429940044879913
1733461491612443100,5.051443115234375,0.19425514340400696,-0.2015855312347412,0.06780604273080826
1733461491622401000,5.061401123046875,0.19364428520202637,-0.15027284622192383,0.02932153269648552
1733461491632432400,5.071432373046875,0.18570303916931152,-0.08857546001672745,-0.01710422709584236
1733461491642420700,5.081420654296875,0.17043140530586243,-0.03848451003432274,-0.06108652427792549
1733461491652421600,5.091421630859375,0.15882496535778046,-0.02382374368607998,-0.10384709388017654
1733461491662409700,5.10140966796875,0.14844025671482086,-0.02076941914856434,-0.14294247329235077
1733461491672440800,5.11144091796875,0.13988813757896423,0.00733038317412138,-0.19975294172763824
1733461491682398700,5.121398681640625,0.1362229436635971,0.03787364438176155,-0.22907446324825287
1733461491692429600,5.1314296875,0.13805554807186127,0.06658431142568588,-0.23945917189121246
1733461491702418200,5.141418212890625,0.1514945775270462,0.06841690838336945,-0.23029619455337524
1733461491712418800,5.151418701171875,0.1667662113904953,0.021380282938480377,-0.21563543379306793
1733461491722407200,5.1614072265625,0.18509216606616974,-0.06230825558304787,-0.2064724564552307
1733461491732438300,5.171438232421875,0.20952677726745605,-0.16920967400074005,-0.19975294172763824
1733461491742396400,5.181396484375,0.24068090319633484,-0.32131510972976685,-0.18814650177955627
1733461491752427300,5.19142724609375,0.252287358045578,-0.3878994286060333,-0.18020524084568024
1733461491762415900,5.201415771484375,0.2620611786842346,-0.43676865100860596,-0.17837265133857727
1733461491772416300,5.211416259765625,0.2626720666885376,-0.47280970215797424,-0.19058994948863983
1733461491782405400,5.2214052734375,0.24862214922904968,-0.5057964324951172,-0.22479841113090515
1733461491792435700,5.231435791015625,0.21319197118282318,-0.5247332453727722,-0.29565876722335815
1733461491802393600,5.2413935546875,0.16798794269561768,-0.4893030524253845,-0.39706242084503174
1733461491812425000,5.251425048828125,0.07147123664617538,-0.35185837745666504,-0.5106833577156067
1733461491822413300,5.261413330078125,-0.01038470957428217,-0.24984388053417206,-0.5161811113357544
1733461491832445200,5.271445068359375,-0.09712757170200348,-0.13072516024112701,-0.45142942667007446
1733461491842402300,5.28140234375,-0.14844025671482086,-0.01710422709584236,-0.3384193480014801
1733461491852434000,5.291433837890625,-0.192422553896904,0.009162978269159794,-0.2272418737411499
1733461491862422000,5.301422119140625,-0.23273965716362,-0.012217304669320583,-0.14477506279945374
1733461491872423200,5.311423095703125,-0.2565633952617645,-0.08307767659425735,-0.07452555745840073
1733461491882410800,5.32141064453125,-0.2632829248905182,-0.16982053220272064,0.0006108652451075613
1733461491892442600,5.331442626953125,-0.2070833146572113,-0.20586158335208893,0.10812314599752426
1733461491902400000,5.34139990234375,-0.10018189996480942,-0.18325957655906677,0.152105450630188
1733461491912431600,5.351431640625,-0.0012217304902151227,-0.20036379992961884,0.16920967400074005
1733461491922419500,5.36141943359375,0.054367005825042725,-0.2535090744495392,0.15393804013729095
1733461491932420400,5.37142041015625,0.07757988572120667,-0.3090978264808655,0.15943582355976105
1733461491942408400,5.381408447265625,0.06414084881544113,-0.3433062732219696,0.23090706765651703
1733461491952440000,5.391440185546875,0.01771509274840355,-0.34697145223617554,0.4031710624694824
1733461491962397700,5.401397705078125,-0.07147123664617538,-0.26633724570274353,0.8307767510414124
1733461491972429000,5.411428955078125,-0.10995574295520782,-0.21502456068992615,1.1594222784042358
1733461491982417200,5.421417236328125,-0.12095131725072861,-0.21319197118282318,1.4208725690841675
1733461491992418300,5.431418212890625,-0.16249015927314758,-0.2528982162475586,1.5112806558609009
1733461492002406100,5.44140625,-0.24190263450145721,-0.2480112910270691,1.4086552858352661
1733461492012436500,5.4514365234375,-0.2376265823841095,-0.29016098380088806,1.2003501653671265
1733461492022395100,5.46139501953125,-0.1569923609495163,-0.29626965522766113,0.9187413454055786
1733461492032427500,5.471427490234375,-0.0403171069920063,0.01710422709584236,0.3139847218990326
1733461492042414600,5.48141455078125,-0.02321287989616394,0.2773328125476837,-0.08674286305904388
1733461492052414500,5.49141455078125,-0.05253441259264946,0.4856378734111786,-0.3500257730484009
1733461492062403600,5.501403564453125,-0.12034045159816742,0.6597344875335693,-0.46181413531303406
1733461492072435200,5.511435302734375,-0.20402899384498596,0.8057312369346619,-0.46181413531303406
1733461492082423000,5.521423095703125,-0.2822197377681732,0.8918632864952087,-0.4153883755207062
1733461492092424400,5.531424560546875,-0.3683517575263977,0.8735373020172119,-0.39095374941825867
1733461492102412000,5.541412109375,-0.4642575979232788,0.8515461683273315,-0.3805690407752991
1733461492112442000,5.551442138671875,-0.5174028873443604,0.6511823534965515,-0.34086281061172485
1733461492122400800,5.56140087890625,-0.5229006409645081,0.4489859640598297,-0.33047810196876526
1733461492132432000,5.571431884765625,-0.5027421116828918,0.23335053026676178,-0.33597588539123535
1733461492142420200,5.581420166015625,-0.45753806829452515,0.06291911751031876,-0.3689626157283783
1733461492152420400,5.59142041015625,-0.3854559659957886,-0.05497787147760391,-0.41172316670417786
1733461492162409200,5.6014091796875,-0.29993483424186707,-0.11728613078594208,-0.4502076804637909
1733461492172440300,5.6114404296875,-0.2217440903186798,-0.13439035415649414,-0.4648684561252594
1733461492182398200,5.621398193359375,-0.1313360333442688,-0.14844025671482086,-0.43249258399009705
1733461492192429300,5.63142919921875,-0.08552113175392151,-0.1508837193250656,-0.3854559659957886
1733461492202417700,5.641417724609375,-0.04886921867728233,-0.12889257073402405,-0.33292156457901
1733461492212418600,5.65141845703125,-0.021380282938480377,-0.1007927656173706,-0.2840523421764374
1733461492222407200,5.6614072265625,-0.006108652334660292,-0.08735372871160507,-0.24068090319633484
1733461492232438300,5.671438232421875,-0.00366519158706069,-0.09346238523721695,-0.20952677726745605
1733461492242396200,5.681396240234375,-0.006108652334660292,-0.1062905490398407,-0.19120082259178162
1733461492252427500,5.691427490234375,0.0012217304902151227,-0.11301007121801376,-0.182648703455925
1733461492262416000,5.701415771484375,0.0024434609804302454,-0.1007927656173706,-0.1820378452539444
1733461492272416300,5.711416259765625,0.001832595793530345,-0.09285151958465576,-0.18387043476104736
1733461492282404900,5.72140478515625,-0.0024434609804302454,-0.08979719132184982,-0.1869247704744339
1733461492292435700,5.731435791015625,-0.00366519158706069,-0.08185594528913498,-0.19486601650714874
1733461492302393600,5.7413935546875,-0.00366519158706069,-0.05864306539297104,-0.2015855312347412
1733461492312425000,5.751425048828125,-0.004886921960860491,-0.010995574295520782,-0.19364428520202637
1733461492322413300,5.761413330078125,-0.006719517521560192,0.05742133408784866,-0.17531833052635193
1733461492332444400,5.7714443359375,-0.009162978269159794,0.1820378452539444,-0.14355333149433136
1733461492342402300,5.78140234375,-0.012828170321881771,0.23090706765651703,-0.1362229436635971
1733461492352433400,5.791433349609375,-0.01160643994808197,0.23396138846874237,-0.14538592100143433
1733461492362422000,5.801422119140625,-0.00855211354792118,0.21074850857257843,-0.17959438264369965
1733461492372422700,5.811422607421875,-0.00427605677396059,0.1612684279680252,-0.2382374405860901
1733461492382410800,5.82141064453125,-0.00427605677396059,0.09040805697441101,-0.3029891550540924
1733461492392442600,5.831442626953125,-0.009162978269159794,0.00733038317412138,-0.34513887763023376
1733461492402399700,5.841399658203125,-0.03298672288656235,-0.08552113175392151,-0.30604347586631775
1733461492412431600,5.851431640625,-0.05009094998240471,-0.08307767659425735,-0.1771509200334549
1733461492422419500,5.86141943359375,-0.04153883829712868,0.005497787147760391,0.022602014243602753
1733461492432420000,5.871420166015625,0.00855211354792118,0.14905111491680145,0.2480112910270691
1733461492442408400,5.881408447265625,0.09224065393209457,0.28955012559890747,0.423329621553421
1733461492452439600,5.891439453125,0.19120082259178162,0.4282165467739105,0.49724429845809937
1733461492462397400,5.9013974609375,0.2828305959701538,0.5564982295036316,0.4740314185619354
1733461492472429300,5.91142919921875,0.3805690407752991,0.646295428276062,0.30543261766433716
1733461492482417000,5.9214169921875,0.4105014503002167,0.6090326309204102,0.17531833052635193
1733461492492418000,5.93141796875,0.4043927788734436,0.47280970215797424,0.12034045159816742
1733461492502406000,5.941406005859375,0.3579670190811157,0.2638937830924988,0.1918116807937622
1733461492512438000,5.95143798828125,0.28527405858039856,0.05375614017248154,0.4092797040939331
1733461492522395100,5.96139501953125,0.22602014243602753,-0.08185594528913498,0.7489207983016968
1733461492532426500,5.971426513671875,0.20097467303276062,-0.13805554807186127,1.1337659358978271
1733461492542414600,5.98141455078125,0.19303341209888458,-0.11667526513338089,1.4575244188308716
1733461492552414200,5.991414306640625,0.18570303916931152,0.02321287989616394,1.632842779159546
1733461492562403600,6.001403564453125,0.19058994948863983,0.12828169763088226,1.482569932937622
1733461492572436200,6.011436279296875,0.21135938167572021,0.2119702398777008,1.1441506147384644
1733461492582423000,6.021423095703125,0.2571742534637451,0.24617868661880493,0.6817256212234497
1733461492592423000,6.0314228515625,0.31520646810531616,0.192422553896904,0.19120082259178162
1733461492602412000,6.041412109375,0.3530801236629486,0.05864306539297104,-0.2528982162475586
1733461492612444000,6.05144384765625,0.3286454975605011,-0.09834930300712585,-0.6041457056999207
1733461492622401000,6.061401123046875,0.2168571650981903,-0.42638394236564636,-0.8698720932006836
1733461492632432600,6.0714326171875,0.09957103431224823,-0.44104471802711487,-0.8735373020172119
1733461492642420700,6.081420654296875,0.001832595793530345,-0.33597588539123535,-0.7635815739631653
1733461492652422000,6.091421875,-0.0708603709936142,-0.1875356286764145,-0.6126978397369385
1733461492662409700,6.10140966796875,-0.1258382350206375,-0.0806342139840126,-0.48319441080093384
1733461492672440600,6.111440673828125,-0.1563815027475357,-0.00733038317412138,-0.40683624148368835
1733461492682398700,6.121398681640625,-0.15454891324043274,0.010995574295520782,-0.3842342495918274
1733461492692429800,6.131429931640625,-0.11178833991289139,-0.05009094998240471,-0.384845107793808
1733461492702418200,6.141418212890625,-0.07880161702632904,-0.11239920556545258,-0.37262779474258423
1733461492712418800,6.151418701171875,-0.04214970022439957,-0.16859880089759827,-0.33108896017074585
1733461492722407200,6.1614072265625,-0.010995574295520782,-0.20463985204696655,-0.25473082065582275
1733461492732438300,6.171438232421875,0.012828170321881771,-0.2370157092809677,-0.15882496535778046
1733461492742396400,6.181396484375,0.02871066704392433,-0.26083946228027344,-0.06108652427792549
1733461492752427500,6.191427490234375,0.04337143152952194,-0.2785545587539673,0.009773843921720982
1733461492762415900,6.201415771484375,0.05925392732024193,-0.2840523421764374,0.045204028487205505
1733461492772416300,6.211416259765625,0.08918632566928864,-0.25106561183929443,0.0354301854968071
1733461492782404900,6.22140478515625,0.1007927656173706,-0.19303341209888458,0.006108652334660292
1733461492792436000,6.23143603515625,0.11484266817569733,-0.11667526513338089,-0.014049900695681572
1733461492802393600,6.2413935546875,0.12522737681865692,-0.0354301854968071,-0.027488935738801956
1733461492812425000,6.251425048828125,0.13255776464939117,0.045204028487205505,-0.036041051149368286
1733461492822413300,6.261413330078125,0.12828169763088226,0.10751228034496307,-0.03787364438176155
1733461492832444700,6.271444580078125,0.12095131725072861,0.15271630883216858,-0.03787364438176155
1733461492842402300,6.28140234375,0.10506882518529892,0.18509216606616974,-0.04092797264456749
1733461492852433700,6.29143359375,0.0861319974064827,0.1765400618314743,-0.039095375686883926
1733461492862422000,6.301422119140625,0.05925392732024193,0.14844025671482086,-0.042760565876960754
1733461492872422400,6.31142236328125,0.02687807008624077,0.09896016865968704,-0.06352998316287994
1733461492882411000,6.321410888671875,-0.004886921960860491,0.022602014243602753,-0.11728613078594208
1733461492892442000,6.331442138671875,-0.03481931984424591,-0.05314527451992035,-0.19303341209888458
1733461492902400000,6.34139990234375,-0.042760565876960754,-0.14477506279945374,-0.27122417092323303
1733461492912430800,6.351430908203125,-0.00733038317412138,-0.13011430203914642,-0.3604104816913605
1733461492922419500,6.36141943359375,0.03298672288656235,0.010995574295520782,-0.36529740691185
1733461492932420600,6.371420654296875,0.06902777403593063,0.2217440903186798,-0.3084869384765625
1733461492942408400,6.381408447265625,0.08307767659425735,0.43737950921058655,-0.21380282938480377
1733461492952440000,6.391440185546875,0.05925392732024193,0.578489363193512,-0.11423180252313614
1733461492962397700,6.401397705078125,0.006719517521560192,0.5894849896430969,-0.031154127791523933
1733461492972428500,6.411428466796875,-0.05803219974040985,0.47219884395599365,0.02687807008624077
1733461492982417200,6.421417236328125,-0.11667526513338089,0.2840523421764374,0.0806342139840126
1733461492992417500,6.43141748046875,-0.1411098688840866,-0.042760565876960754,0.16432274878025055
1733461493002406000,6.441406005859375,-0.11362093687057495,-0.23579397797584534,0.15943582355976105
1733461493012437500,6.4514375,-0.0757472887635231,-0.39156460762023926,0.08124507963657379
1733461493022395100,6.46139501953125,-0.021991148591041565,-0.5076290369033813,-0.02076941914856434
1733461493032426500,6.471426513671875,0.028099801391363144,-0.5510004758834839,-0.039706241339445114
1733461493042414600,6.48141455078125,0.048258353024721146,-0.4960225820541382,0.10018189996480942
1733461493052415500,6.49141552734375,0.039706241339445114,-0.3738495409488678,0.39767327904701233
1733461493062403600,6.501403564453125,-0.012217304669320583,-0.2217440903186798,0.9743300676345825
1733461493072435200,6.511435302734375,-0.056810468435287476,-0.1368338167667389,1.2852604389190674
1733461493082423000,6.521423095703125,-0.11239920556545258,-0.1215621829032898,1.4391984939575195
1733461493092423200,6.531423095703125,-0.1716531366109848,-0.16798794269561768,1.3976596593856812
1733461493102412000,6.541412109375,-0.21135938167572021,-0.2076941877603531,1.1545352935791016
1733461493112441600,6.551441650390625,-0.20586158335208893,-0.18081611394882202,0.7434229850769043
1733461493122400800,6.56140087890625,-0.13255776464939117,-0.033597588539123535,0.23518311977386475
1733461493132431000,6.57143115234375,0.1111774742603302,0.08735372871160507,-0.5009095072746277
1733461493142420200,6.581420166015625,0.2583959996700287,0.14355333149433136,-0.8631525635719299
1733461493152421400,6.59142138671875,0.32498031854629517,0.24373523890972137,-1.0427470207214355
1733461493162409200,6.6014091796875,0.2932153046131134,0.31642818450927734,-1.0378600358963013
1733461493172440800,6.61144091796875,0.17898350954055786,0.44104471802711487,-0.9046914577484131
1733461493182398200,6.621398193359375,0.03481931984424591,0.6438519954681396,-0.6872233748435974
1733461493192429800,6.631429931640625,-0.09040805697441101,0.7660250067710876,-0.4404338300228119
1733461493202444500,6.641444580078125,-0.26083946228027344,0.6517932415008545,-0.15393804013729095
1733461493212418600,6.65141845703125,-0.3536909818649292,0.3927863538265228,-0.08429940044879913
1733461493222407200,6.6614072265625,-0.3982841372489929,0.09712757170200348,-0.11239920556545258
1733461493232438500,6.6714384765625,-0.3878994286060333,-0.1319468915462494,-0.19303341209888458
1733461493242396200,6.681396240234375,-0.3378084897994995,-0.3090978264808655,-0.27488934993743896
1733461493252427500,6.691427490234375,-0.27977627515792847,-0.4282165467739105,-0.33292156457901
1733461493262416000,6.701415771484375,-0.21930062770843506,-0.4715879559516907,-0.36163222789764404
1733461493272415700,6.711415771484375,-0.1569923609495163,-0.4789183437824249,-0.3701843321323395
1733461493282404900,6.72140478515625,-0.0659734457731247,-0.384845107793808,-0.32070425152778625
1733461493292435700,6.731435791015625,-0.021380282938480377,-0.29138273000717163,-0.2571742534637451
1733461493302393600,6.7413935546875,0.013439035043120384,-0.19608774781227112,-0.1869247704744339
1733461493312425000,6.751425048828125,0.03237585723400116,-0.09285151958465576,-0.1111774742603302
1733461493322413300,6.761413330078125,0.04337143152952194,0.019547687843441963,-0.031154127791523933
1733461493332444400,6.7714443359375,0.048258353024721146,0.10445795953273773,0.05375614017248154
1733461493342402300,6.78140234375,0.04092797264456749,0.15271630883216858,0.11667526513338089
1733461493352433400,6.791433349609375,0.00427605677396059,0.1771509200334549,0.1459967941045761
1733461493362422000,6.801422119140625,-0.021380282938480377,0.16493362188339233,0.12095131725072861
1733461493372422700,6.811422607421875,-0.0403171069920063,0.13988813757896423,0.0861319974064827
1733461493382410800,6.82141064453125,-0.054367005825042725,0.11667526513338089,0.06536258012056351
1733461493392442000,6.831442138671875,-0.07024950534105301,0.12217304855585098,0.05925392732024193
1733461493402399700,6.841399658203125,-0.0861319974064827,0.18020524084568024,0.06291911751031876
1733461493412431000,6.85143115234375,-0.09224065393209457,0.3017674386501312,0.05619960278272629
1733461493422419500,6.86141943359375,-0.08491026610136032,0.45631635189056396,0.00733038317412138
1733461493432420000,6.871420166015625,-0.04948008432984352,0.675616979598999,-0.14905111491680145
1733461493442408400,6.881408447265625,0.010995574295520782,0.856433093547821,-0.24678955972194672
1733461493452439600,6.891439453125,0.07880161702632904,0.9718865752220154,-0.27000242471694946
1733461493462397400,6.9013974609375,0.1160643994808197,0.921795666217804,-0.17776179313659668
1733461493472429000,6.911428955078125,0.10323622822761536,0.7538077235221863,0.02382374368607998
1733461493482417000,6.9214169921875,0.07024950534105301,0.5247332453727722,0.30054569244384766
1733461493492418000,6.93141796875,0.05375614017248154,0.2767219543457031,0.5754350423812866
1733461493502406000,6.941406005859375,0.1062905490398407,-0.009773843921720982,0.7996225953102112
1733461493512437000,6.95143701171875,0.17470745742321014,-0.09651670604944229,0.7776314616203308
1733461493522395100,6.96139501953125,0.22907446324825287,-0.10384709388017654,0.637132465839386
1733461493532425200,6.97142529296875,0.2730567753314972,-0.06475171446800232,0.4080579876899719
1733461493542414600,6.98141455078125,0.3139847218990326,-0.00366519158706069,0.10445795953273773
1733461493552414700,6.991414794921875,0.35246923565864563,0.018936822190880775,-0.1973094791173935
1733461493562403300,7.0014033203125,0.38667771220207214,-0.06902777403593063,-0.3689626157283783
1733461493572435200,7.011435302734375,0.3536909818649292,-0.33597588539123535,-0.252287358045578
1733461493582423000,7.021423095703125,0.2828305959701538,-0.45326200127601624,0.05619960278272629
1733461493592424200,7.031424072265625,0.2064724564552307,-0.44654250144958496,0.46303585171699524
1733461493602412000,7.041412109375,0.13500121235847473,-0.3854559659957886,0.8326093554496765
1733461493612442600,7.051442626953125,0.07330382615327835,-0.32986724376678467,1.0543533563613892
1733461493622401000,7.061401123046875,0.012828170321881771,-0.24862214922904968,1.0836749076843262
1733461493632433700,7.07143359375,-0.00855211354792118,-0.20097467303276062,0.9187413454055786
1733461493642420700,7.081420654296875,0.01038470957428217,-0.21013765037059784,0.6010913848876953
1733461493652422700,7.091422607421875,0.10384709388017654,-0.2877175211906433,-0.013439035043120384
1733461493662409700,7.10140966796875,0.17043140530586243,-0.37751471996307373,-0.394618958234787
1733461493672441300,7.11144140625,0.1716531366109848,-0.4746423065662384,-0.6499606370925903
1733461493682398500,7.1213984375,0.10690141469240189,-0.5436700582504272,-0.7336491346359253
1733461493692430300,7.131430419921875,0.015271631069481373,-0.4893030524253845,-0.6499606370925903
1733461493702418200,7.141418212890625,-0.06536258012056351,-0.3274237811565399,-0.45875978469848633
1733461493712419300,7.15141943359375,-0.11789698898792267,-0.12828169763088226,-0.2571742534637451
1733461493722407200,7.1614072265625,-0.12950342893600464,0.05009094998240471,-0.08185594528913498
1733461493732438300,7.171438232421875,-0.12522737681865692,0.09040805697441101,-0.08002334833145142
1733461493742396400,7.181396484375,-0.1160643994808197,0.08307767659425735,-0.14416420459747314
1733461493752427500,7.191427490234375,-0.09834930300712585,0.04153883829712868,-0.22296582162380219
1733461493762415900,7.201415771484375,-0.07269296050071716,-0.010995574295520782,-0.27122417092323303
1733461493772416300,7.211416259765625,-0.03848451003432274,-0.06780604273080826,-0.2791654169559479
1733461493782405000,7.221405029296875,0.00427605677396059,-0.11667526513338089,-0.24923302233219147
1733461493792436000,7.23143603515625,0.042760565876960754,-0.18448130786418915,-0.15332718193531036
1733461493802393600,7.2413935546875,0.05803219974040985,-0.24373523890972137,-0.08368854224681854
1733461493812424700,7.2514248046875,0.06719517707824707,-0.2871066629886627,-0.02871066704392433
1733461493822413300,7.261413330078125,0.06719517707824707,-0.3084869384765625,0.012217304669320583
1733461493832444400,7.2714443359375,0.059864792972803116,-0.31093040108680725,0.04092797264456749
1733461493842402300,7.28140234375,0.05009094998240471,-0.29016098380088806,0.05803219974040985
1733461493852433400,7.291433349609375,0.04153883829712868,-0.26450464129447937,0.06658431142568588
1733461493862422000,7.301422119140625,0.03237585723400116,-0.24617868661880493,0.07269296050071716
1733461493872422700,7.311422607421875,0.018325956538319588,-0.21013765037059784,0.06108652427792549
1733461493882410800,7.32141064453125,0.016493361443281174,-0.17531833052635193,0.04764748737215996
1733461493892441900,7.33144189453125,0.015882495790719986,-0.1417207419872284,0.0354301854968071
1733461493902400000,7.34139990234375,0.012217304669320583,-0.09529497474431992,0.021991148591041565
1733461493912430800,7.351430908203125,0.006108652334660292,-0.05253441259264946,0.024434609338641167
1733461493922419500,7.36141943359375,-0.003054326167330146,-0.018325956538319588,0.0354301854968071
1733461493932420000,7.371420166015625,-0.012217304669320583,0.018325956538319588,0.04581489413976669
1733461493942408400,7.381408447265625,-0.01710422709584236,0.07452555745840073,0.018936822190880775
1733461493952439800,7.391439697265625,-0.007941247895359993,0.10812314599752426,-0.039706241339445114
1733461493962397700,7.401397705078125,0.018936822190880775,0.1459967941045761,-0.13316862285137177
1733461493972428800,7.4114287109375,0.06658431142568588,0.22663100063800812,-0.24373523890972137
1733461493982417200,7.421417236328125,0.11545353382825851,0.35735616087913513,-0.33047810196876526
1733461493992417300,7.431417236328125,0.13988813757896423,0.47769662737846375,-0.3591887652873993
1733461494002406000,7.441406005859375,0.1319468915462494,0.588263213634491,-0.35063666105270386
1733461494012438000,7.45143798828125,0.07757988572120667,0.6047565937042236,-0.2926044464111328
1733461494022395100,7.46139501953125,0.028099801391363144,0.43676865100860596,-0.2382374405860901
1733461494032426800,7.4714267578125,-0.025045474991202354,0.15515977144241333,-0.1514945775270462
1733461494042414800,7.481414794921875,-0.054367005825042725,-0.18997909128665924,-0.01160643994808197
1733461494052415700,7.491415771484375,-0.06780604273080826,-0.4691445231437683,0.1313360333442688
1733461494062403600,7.501403564453125,-0.07269296050071716,-0.6114761233329773,0.22113321721553802
1733461494072435200,7.511435302734375,-0.09529497474431992,-0.6536257863044739,0.25045475363731384
1733461494082423000,7.521423095703125,-0.13072516024112701,-0.588263213634491,0.22663100063800812
1733461494092424200,7.531424072265625,-0.15943582355976105,-0.38606682419776917,0.19547687470912933
1733461494102412000,7.541412109375,-0.1618792861700058,-0.2376265823841095,0.26450464129447937
1733461494112443000,7.55144287109375,-0.1661553531885147,-0.13439035415649414,0.41111230850219727
1733461494122400800,7.56140087890625,-0.17409659922122955,-0.06780604273080826,0.5797111392021179
1733461494132432400,7.571432373046875,-0.17592918872833252,-0.03176499158143997,0.7055493593215942
1733461494142420200,7.581420166015625,-0.17348572611808777,-0.02871066704392433,0.7422012686729431
1733461494152420000,7.591420166015625,-0.15454891324043274,-0.05803219974040985,0.6811147332191467
1733461494162409200,7.6014091796875,-0.1270599663257599,-0.09529497474431992,0.4153883755207062
1733461494172439600,7.611439453125,-0.11423180252313614,-0.07696902006864548,0.1973094791173935
1733461494182398200,7.621398193359375,-0.11911872029304504,-0.02076941914856434,0.01160643994808197
1733461494192428800,7.6314287109375,-0.15760323405265808,0.029932396486401558,-0.11362093687057495
1733461494202417700,7.641417724609375,-0.2217440903186798,0.10812314599752426,-0.14782938361167908
1733461494212419600,7.651419677734375,-0.26572638750076294,0.21319197118282318,-0.11423180252313614
1733461494222407200,7.6614072265625,-0.2932153046131134,0.2987131178379059,-0.0659734457731247
1733461494232438500,7.6714384765625,-0.3194825351238251,0.3500257730484009,-0.08246681094169617
1733461494242396200,7.681396240234375,-0.3286454975605011,0.31154128909111023,-0.13744467496871948
1733461494252427500,7.691427490234375,-0.3335324227809906,0.22663100063800812,-0.19486601650714874
1733461494262416000,7.701415771484375,-0.33475416898727417,0.12034045159816742,-0.24007004499435425
1733461494272416800,7.711416748046875,-0.32986724376678467,0.00366519158706069,-0.2632829248905182
1733461494282405000,7.721405029296875,-0.31154128909111023,-0.10323622822761536,-0.26572638750076294
1733461494292436000,7.73143603515625,-0.2919935882091522,-0.1771509200334549,-0.25045475363731384
1733461494302393900,7.741393798828125,-0.26450464129447937,-0.23029619455337524,-0.22052235901355743
1733461494312425000,7.751425048828125,-0.20402899384498596,-0.24984388053417206,-0.16554448008537292
1733461494322413300,7.761413330078125,-0.1417207419872284,-0.21563543379306793,-0.13988813757896423
1733461494332444400,7.7714443359375,-0.06780604273080826,-0.15760323405265808,-0.12278391420841217
1733461494342402300,7.78140234375,0.00366519158706069,-0.08918632566928864,-0.12339477986097336
1733461494352433400,7.791433349609375,0.06414084881544113,-0.016493361443281174,-0.14233160018920898
1733461494362422000,7.801422119140625,0.10934487730264664,0.04764748737215996,-0.16065755486488342
1733461494372422400,7.81142236328125,0.13011430203914642,0.09712757170200348,-0.16310101747512817
1733461494382410800,7.82141064453125,0.13744467496871948,0.13500121235847473,-0.1313360333442688
1733461494392442000,7.831442138671875,0.12522737681865692,0.13377949595451355,-0.1062905490398407
1733461494402399700,7.841399658203125,0.10323622822761536,0.11545353382825851,-0.09529497474431992
1733461494412430800,7.851430908203125,0.07330382615327835,0.06780604273080826,-0.0910189226269722
1733461494422419500,7.86141943359375,0.03848451003432274,0.006108652334660292,-0.0910189226269722
1733461494432420000,7.871420166015625,0.01771509274840355,-0.03176499158143997,-0.0959058403968811
1733461494442408400,7.881408447265625,0.012828170321881771,-0.04092797264456749,-0.0959058403968811
1733461494452439600,7.891439453125,0.025656340643763542,0.021380282938480377,-0.09224065393209457
1733461494462397400,7.9013974609375,0.0555887371301651,0.12522737681865692,-0.10690141469240189
1733461494472428500,7.911428466796875,0.10384709388017654,0.2474004179239273,-0.1368338167667389
1733461494482417000,7.9214169921875,0.15515977144241333,0.3494149148464203,-0.18081611394882202
1733461494492417500,7.93141748046875,0.1966986060142517,0.3836233615875244,-0.2119702398777008
1733461494502406000,7.941406005859375,0.22540926933288574,0.3390302062034607,-0.22113321721553802
1733461494512437000,7.95143701171875,0.2376265823841095,0.20952677726745605,-0.21380282938480377
1733461494522395100,7.96139501953125,0.21074850857257843,0.04581489413976669,-0.2064724564552307
1733461494532426500,7.971426513671875,0.1368338167667389,-0.10567969083786011,-0.2028072625398636
1733461494542414600,7.98141455078125,0.08796459436416626,-0.1014036312699318,-0.18875735998153687
1733461494552414700,7.991414794921875,0.06780604273080826,0.006719517521560192,-0.15515977144241333
1733461494562403600,8.001403564453126,0.07330382615327835,0.1569923609495163,-0.10506882518529892
1733461494572435000,8.01143505859375,0.10873401165008545,0.3176499307155609,-0.05375614017248154
1733461494582423000,8.021423095703126,0.16310101747512817,0.38117989897727966,-0.054367005825042725
1733461494592423000,8.0314228515625,0.19914206862449646,0.41111230850219727,-0.1319468915462494
1733461494602412000,8.041412109375,0.31154128909111023,0.36529740691185,-0.20830504596233368
1733461494612442000,8.051442138671876,0.3695734739303589,0.152105450630188,-0.1667662113904953
1733461494622401000,8.061401123046876,0.37140607833862305,-0.1722639948129654,0.028099801391363144
1733461494632433000,8.071432861328125,0.313373863697052,-0.4398229718208313,0.39217549562454224
1733461494642420700,8.081420654296876,0.251676470041275,-0.5418374538421631,0.837496280670166
1733461494652420600,8.091420654296876,0.22479841113090515,-0.5277875661849976,1.2388347387313843
1733461494662409700,8.10140966796875,0.21563543379306793,-0.403781920671463,1.4819591045379639
1733461494672440000,8.111440185546876,0.20097467303276062,-0.1258382350206375,1.4391984939575195
1733461494682398700,8.121398681640626,0.22540926933288574,0.04214970022439957,1.169806957244873
1733461494692429000,8.131428955078125,0.29626965522766113,0.12217304855585098,0.7641924023628235
1733461494702418200,8.141418212890626,0.37140607833862305,0.07269296050071716,0.29077184200286865
1733461494712418800,8.151418701171876,0.42149701714515686,-0.12095131725072861,-0.15760323405265808
1733461494722407200,8.1614072265625,0.4050036668777466,-0.3585779070854187,-0.5027421116828918
1733461494732437500,8.1714375,0.3237585723400116,-0.5375614166259766,-0.6982190012931824
1733461494742396200,8.181396240234376,0.20952677726745605,-0.5797111392021179,-0.7519751191139221
1733461494752427800,8.191427734375,0.0659734457731247,-0.3604104816913605,-0.6145304441452026
1733461494762415900,8.201415771484376,0.015271631069481373,-0.14844025671482086,-0.46242499351501465
1733461494772417000,8.2114169921875,-0.021991148591041565,0.029932396486401558,-0.3323107063770294
1733461494782404900,8.22140478515625,-0.04153883829712868,0.13927727937698364,-0.25473082065582275
1733461494792436000,8.23143603515625,-0.03848451003432274,0.17470745742321014,-0.23457226157188416
1733461494802393600,8.2413935546875,-0.018325956538319588,0.1569923609495163,-0.2535090744495392
1733461494812424700,8.2514248046875,-0.0012217304902151227,0.09896016865968704,-0.2638937830924988
1733461494822413300,8.261413330078126,0.02382374368607998,-0.0555887371301651,-0.22540926933288574
1733461494832444400,8.2714443359375,0.03237585723400116,-0.1814269721508026,-0.17470745742321014
1733461494842402300,8.28140234375,0.03726277872920036,-0.2981022298336029,-0.12278391420841217
1733461494852433700,8.29143359375,0.05009094998240471,-0.36529740691185,-0.0861319974064827
1733461494862422000,8.301422119140625,0.07208210229873657,-0.40133845806121826,-0.05803219974040985
1733461494872422700,8.311422607421875,0.08735372871160507,-0.40622538328170776,-0.024434609338641167
1733461494882410800,8.32141064453125,0.09224065393209457,-0.36590829491615295,0.018325956538319588
1733461494892441900,8.33144189453125,0.09957103431224823,-0.2321287989616394,0.07819075137376785
1733461494902400000,8.34139990234375,0.09529497474431992,-0.1264491081237793,0.08735372871160507
1733461494912431000,8.35143115234375,0.08246681094169617,-0.05619960278272629,0.060475658625364304
1733461494922419500,8.36141943359375,0.05925392732024193,-0.03726277872920036,0.006719517521560192
1733461494932419800,8.371419921875,0.039706241339445114,-0.0403171069920063,-0.0507018156349659
1733461494942408400,8.381408447265626,0.024434609338641167,-0.04214970022439957,-0.10506882518529892
1733461494952439800,8.391439697265625,0.01771509274840355,-0.1062905490398407,-0.1313360333442688
1733461494962397700,8.401397705078125,0.01466076634824276,-0.12950342893600464,-0.1160643994808197
1733461494972428800,8.4114287109375,-0.0006108652451075613,-0.06902777403593063,-0.08552113175392151
1733461494982417200,8.421417236328125,0.014049900695681572,-0.009773843921720982,-0.08674286305904388
1733461494992417800,8.431417724609375,0.04398229718208313,0.07696902006864548,-0.11545353382825851
1733461495002406000,8.441406005859376,0.07696902006864548,0.18325957655906677,-0.17959438264369965
1733461495012437000,8.45143701171875,0.11789698898792267,0.3396410644054413,-0.26572638750076294
1733461495022395100,8.46139501953125,0.15454891324043274,0.5479460954666138,-0.34025195240974426
1733461495032426800,8.4714267578125,0.16859880089759827,0.750142514705658,-0.36713001132011414
1733461495042414600,8.48141455078125,0.13500121235847473,0.9926560521125793,-0.35246923565864563
1733461495052415700,8.491415771484375,0.04581489413976669,0.988990843296051,-0.32009339332580566
1733461495062403600,8.501403564453126,-0.08429940044879913,0.8087855577468872,-0.25595253705978394
1733461495072434400,8.511434326171875,-0.22968533635139465,0.5204572081565857,-0.16249015927314758
1733461495082423000,8.521423095703126,-0.33475416898727417,0.2431243658065796,-0.039095375686883926
1733461495092424400,8.531424560546874,-0.3591887652873993,0.01160643994808197,0.07391469180583954
1733461495102412300,8.541412353515625,-0.3390302062034607,-0.18448130786418915,0.10812314599752426
1733461495112443100,8.551443115234376,-0.3084869384765625,-0.484416127204895,0.0806342139840126
1733461495122400800,8.56140087890625,-0.29565876722335815,-0.6908885836601257,0.13377949595451355
1733461495132432400,8.571432373046875,-0.3194825351238251,-0.8100073337554932,0.33047810196876526
1733461495142420200,8.581420166015626,-0.3677408695220947,-0.8118399381637573,0.6542366743087769
1733461495152421400,8.59142138671875,-0.4147774875164032,-0.684779942035675,1.0250319242477417
1733461495162409200,8.6014091796875,-0.4453207552433014,-0.48197266459465027,1.32863187789917
1733461495172439600,8.611439453125,-0.4703662395477295,-0.3378084897994995,1.4611896276474
1733461495182398200,8.621398193359376,-0.4612032473087311,-0.30482175946235657,1.3536773920059204
1733461495192428800,8.6314287109375,-0.3738495409488678,-0.35063666105270386,0.7904596328735352
1733461495202444300,8.6414443359375,-0.27061331272125244,-0.35246923565864563,0.27977627515792847
1733461495212418000,8.65141796875,-0.16310101747512817,-0.2981022298336029,-0.19120082259178162
1733461495222407200,8.6614072265625,-0.09346238523721695,-0.1569923609495163,-0.5100724697113037
1733461495232438800,8.671438720703126,-0.08307767659425735,0.04459316283464432,-0.6090326309204102
1733461495242396200,8.681396240234376,-0.09896016865968704,0.25961771607398987,-0.5387831330299377
1733461495252427800,8.691427734375,-0.1264491081237793,0.4508185386657715,-0.41599923372268677
1733461495262416000,8.701415771484376,-0.22296582162380219,0.5968153476715088,-0.31581732630729675
1733461495272416300,8.711416259765626,-0.2987131178379059,0.5577199459075928,-0.303600013256073
1733461495282404900,8.72140478515625,-0.37262779474258423,0.4141666293144226,-0.33108896017074585
1733461495292436000,8.73143603515625,-0.43249258399009705,0.20830504596233368,-0.37201693654060364
1733461495302393600,8.7413935546875,-0.44776421785354614,-0.015882495790719986,-0.40256020426750183
1733461495312425000,8.751425048828125,-0.43615779280662537,-0.19058994948863983,-0.42210787534713745
1733461495322413300,8.761413330078126,-0.42210787534713745,-0.2877175211906433,-0.42577308416366577
1733461495332444400,8.7714443359375,-0.36224308609962463,-0.29077184200286865,-0.3738495409488678
1733461495342402300,8.78140234375,-0.30970868468284607,-0.24678955972194672,-0.3072652220726013
1733461495352433700,8.79143359375,-0.2528982162475586,-0.2076941877603531,-0.22296582162380219
1733461495362422000,8.801422119140625,-0.18509216606616974,-0.16065755486488342,-0.14477506279945374
1733461495372422700,8.811422607421875,-0.09957103431224823,-0.10323622822761536,-0.0757472887635231
1733461495382410800,8.82141064453125,-0.01466076634824276,-0.07696902006864548,-0.01710422709584236
1733461495392441900,8.83144189453125,0.04581489413976669,-0.060475658625364304,0.028099801391363144
1733461495402399700,8.841399658203125,0.08674286305904388,-0.0354301854968071,0.059864792972803116
1733461495412430800,8.851430908203126,0.12889257073402405,0.048258353024721146,0.0806342139840126
1733461495422419500,8.86141943359375,0.13500121235847473,0.10506882518529892,0.08491026610136032
1733461495432420000,8.871420166015625,0.13439035415649414,0.13316862285137177,0.08429940044879913
1733461495442408400,8.881408447265626,0.13072516024112701,0.1411098688840866,0.06902777403593063
1733461495452439600,8.891439453125,0.11850785464048386,0.1258382350206375,0.048258353024721146
1733461495462397400,8.9013974609375,0.09651670604944229,0.10262536257505417,0.02015855349600315
1733461495472428800,8.9114287109375,0.0757472887635231,0.10262536257505417,-0.012217304669320583
1733461495482417200,8.921417236328125,0.06475171446800232,0.16920967400074005,-0.08429940044879913
1733461495492417500,8.93141748046875,0.07391469180583954,0.2076941877603531,-0.1563815027475357
1733461495502406000,8.941406005859376,0.08552113175392151,0.24190263450145721,-0.2370157092809677
1733461495512437000,8.95143701171875,0.10018189996480942,0.2638937830924988,-0.29626965522766113
1733461495522395100,8.96139501953125,0.12217304855585098,0.2828305959701538,-0.3341432809829712
1733461495532426000,8.971426025390626,0.1319468915462494,0.2730567753314972,-0.34636059403419495
1733461495542414600,8.98141455078125,0.11789698898792267,0.2125810980796814,-0.30970868468284607
1733461495552415500,8.99141552734375,0.07208210229873657,0.11545353382825851,-0.16371189057826996
1733461495562403600,9.001403564453126,0.04764748737215996,0.11239920556545258,-0.025656340643763542
1733461495572434400,9.011434326171875,0.04398229718208313,0.1612684279680252,0.11423180252313614
1733461495582423000,9.021423095703126,0.06352998316287994,0.2474004179239273,0.22907446324825287
1733461495592423400,9.03142333984375,0.12217304855585098,0.35552358627319336,0.30054569244384766
1733461495602412000,9.041412109375,0.2064724564552307,0.4544837474822998,0.30543261766433716
1733461495612444000,9.05144384765625,0.2871066629886627,0.47342056035995483,0.24129177629947662
1733461495622401000,9.061401123046876,0.32620203495025635,0.3805690407752991,0.11728613078594208
1733461495632432600,9.0714326171875,0.34086281061172485,0.04886921867728233,-0.04459316283464432
1733461495642420700,9.081420654296876,0.36590829491615295,-0.21502456068992615,-0.004886921960860491
1733461495652422000,9.091421875,0.3836233615875244,-0.4092797040939331,0.21868975460529327
1733461495662409700,9.10140966796875,0.39217549562454224,-0.48747047781944275,0.6359107494354248
1733461495672441300,9.11144140625,0.40133845806121826,-0.4129449129104614,1.1160508394241333
1733461495682398700,9.121398681640626,0.42638394236564636,-0.21135938167572021,1.519832730293274
1733461495692429000,9.131428955078125,0.4495968222618103,0.02015855349600315,1.7250834703445435
1733461495702418200,9.141418212890626,0.4300491213798523,0.2974913716316223,1.5485434532165527
1733461495712420000,9.151420166015624,0.41661009192466736,0.36529740691185,1.1331549882888794
1733461495722407200,9.1614072265625,0.4105014503002167,0.2779437005519867,0.5925393104553223
1733461495732437500,9.1714375,0.4239404797554016,0.05864306539297104,0.06108652427792549
1733461495742396200,9.181396240234376,0.43799036741256714,-0.21319197118282318,-0.3530801236629486
1733461495752428000,9.191427978515625,0.4129449129104614,-0.46792277693748474,-0.5955936312675476
1733461495762415900,9.201415771484376,0.34636059403419495,-0.6053674817085266,-0.6633996367454529
1733461495772416800,9.211416748046876,0.2217440903186798,-0.5326744914054871,-0.5253441333770752
1733461495782404900,9.22140478515625,0.14416420459747314,-0.35674530267715454,-0.3689626157283783
1733461495792436000,9.23143603515625,0.08429940044879913,-0.1368338167667389,-0.24190263450145721
1733461495802393600,9.2413935546875,0.0507018156349659,0.024434609338641167,-0.1973094791173935
1733461495812424700,9.2514248046875,0.03176499158143997,0.09468411654233932,-0.22540926933288574
1733461495822413300,9.261413330078126,0.02321287989616394,0.13011430203914642,-0.29565876722335815
1733461495832444400,9.2714443359375,0.02932153269648552,0.1362229436635971,-0.3732386529445648
1733461495842402300,9.28140234375,0.04153883829712868,0.10995574295520782,-0.42760565876960754
1733461495852433700,9.29143359375,0.06719517707824707,0.06230825558304787,-0.455705463886261
1733461495862422000,9.301422119140625,0.08491026610136032,0.02626720629632473,-0.44776421785354614
1733461495872422100,9.311422119140625,0.09896016865968704,-0.004886921960860491,-0.4239404797554016
1733461495882411000,9.321410888671876,0.10506882518529892,-0.039095375686883926,-0.37201693654060364
1733461495892442000,9.331442138671875,0.10751228034496307,-0.0708603709936142,-0.29626965522766113
1733461495902399700,9.341399658203125,0.10323622822761536,-0.09712757170200348,-0.20525072515010834
1733461495912430800,9.351430908203126,0.0959058403968811,-0.10934487730264664,-0.11850785464048386
1733461495922419500,9.36141943359375,0.08796459436416626,-0.08674286305904388,-0.0354301854968071
1733461495932420000,9.371420166015625,0.08979719132184982,-0.04764748737215996,-0.02076941914856434
1733461495942408700,9.38140869140625,0.08857546001672745,-0.012217304669320583,-0.02015855349600315
1733461495952439600,9.391439453125,0.0757472887635231,0.0006108652451075613,-0.01038470957428217
1733461495962397700,9.401397705078125,0.054367005825042725,0.001832595793530345,0.003054326167330146
1733461495972428500,9.411428466796876,0.033597588539123535,-0.0024434609804302454,0.015271631069481373
1733461495982417200,9.421417236328125,0.01160643994808197,-0.0024434609804302454,0.016493361443281174
1733461495992417800,9.431417724609375,-0.021380282938480377,0.04153883829712868,0.016493361443281174
1733461496002406000,9.441406005859376,-0.03848451003432274,0.08857546001672745,0.01710422709584236
1733461496012437500,9.4514375,-0.06230825558304787,0.11362093687057495,0.018936822190880775
1733461496022395100,9.46139501953125,-0.07635815441608429,0.13011430203914642,0.012828170321881771
1733461496032426500,9.471426513671876,-0.08185594528913498,0.12339477986097336,-0.016493361443281174
1733461496042414600,9.48141455078125,-0.07941248267889023,0.14477506279945374,-0.07391469180583954
1733461496052415500,9.49141552734375,-0.0757472887635231,0.21441370248794556,-0.14294247329235077
1733461496062403600,9.501403564453126,-0.0806342139840126,0.29504790902137756,-0.20830504596233368
1733461496072434400,9.511434326171875,-0.12278391420841217,0.3225368559360504,-0.30482175946235657
1733461496082423000,9.521423095703126,-0.19058994948863983,0.24007004499435425,-0.37079519033432007
1733461496092423400,9.53142333984375,-0.28099802136421204,0.06352998316287994,-0.3982841372489929
1733461496102412000,9.541412109375,-0.3738495409488678,-0.17776179313659668,-0.34574973583221436
1733461496112443000,9.55144287109375,-0.44715335965156555,-0.4098905920982361,-0.21319197118282318
1733461496122400800,9.56140087890625,-0.4691445231437683,-0.607810914516449,-0.018325956538319588
1733461496132432100,9.57143212890625,-0.46303585171699524,-0.7513642311096191,0.20402899384498596
1733461496142420200,9.581420166015626,-0.4538728892803192,-0.837496280670166,0.504574716091156
1733461496152421400,9.59142138671875,-0.44593164324760437,-0.8087855577468872,0.6517932415008545
1733461496162409200,9.6014091796875,-0.4398229718208313,-0.7672467231750488,0.7953465580940247
1733461496172441000,9.611441162109376,-0.44287729263305664,-0.6817256212234497,0.9462302923202515
1733461496182398200,9.621398193359376,-0.4404338300228119,-0.5436700582504272,1.0873401165008545
1733461496192428800,9.6314287109375,-0.42699480056762695,-0.42149701714515686,1.177748203277588
1733461496202418000,9.64141796875,-0.4080579876899719,-0.33475416898727417,1.1630873680114746
1733461496212418000,9.65141796875,-0.32986724376678467,-0.21807889640331268,0.9358455538749695
1733461496222407200,9.6614072265625,-0.23579397797584534,-0.13561208546161652,0.6511823534965515
1733461496232437800,9.671437744140626,-0.12522737681865692,-0.02382374368607998,0.30482175946235657
1733461496242396200,9.681396240234376,-0.01710422709584236,0.10995574295520782,-0.028099801391363144
1733461496252427000,9.691427001953125,0.06169738993048668,0.23640485107898712,-0.303600013256073
1733461496262416000,9.701415771484376,0.09834930300712585,0.3433062732219696,-0.4911356568336487
1733461496272415500,9.71141552734375,0.08552113175392151,0.4343251883983612,-0.6053674817085266
1733461496282404900,9.72140478515625,0.006108652334660292,0.5497786998748779,-0.6609562039375305
1733461496292436700,9.731436767578124,-0.16493362188339233,0.6890559792518616,-0.637132465839386
1733461496302393600,9.7413935546875,-0.3090978264808655,0.7250970602035522,-0.5791002511978149
1733461496312424700,9.7514248046875,-0.4544837474822998,0.6866125464439392,-0.5027421116828918
1733461496322413300,9.761413330078126,-0.5705481171607971,0.5577199459075928,-0.40744712948799133
1733461496332444400,9.7714443359375,-0.6389650702476501,0.3597996234893799,-0.32559117674827576
1733461496342402300,9.78140234375,-0.656069278717041,0.1411098688840866,-0.2834414839744568
1733461496352433700,9.79143359375,-0.6352998614311218,-0.04153883829712868,-0.29077184200286865
1733461496362422000,9.801422119140625,-0.5754350423812866,-0.12950342893600464,-0.37140607833862305
1733461496372422700,9.811422607421875,-0.5082398653030396,-0.09834930300712585,-0.43737950921058655
1733461496382410800,9.82141064453125,-0.4306600093841553,-0.048258353024721146,-0.48685958981513977
1733461496392442000,9.831442138671875,-0.34086281061172485,0.016493361443281174,-0.50335294008255
1733461496402399700,9.841399658203125,-0.2474004179239273,0.06719517707824707,-0.45204028487205505
1733461496412430800,9.851430908203126,-0.15271630883216858,0.11545353382825851,-0.3439171314239502
1733461496422419500,9.86141943359375,-0.0659734457731247,0.13500121235847473,-0.21135938167572021
1733461496432420000,9.871420166015625,0.0354301854968071,0.12461651116609573,-0.03787364438176155
1733461496442408400,9.881408447265626,0.07452555745840073,0.1270599663257599,0.03237585723400116
1733461496452439600,9.891439453125,0.09346238523721695,0.13377949595451355,0.06841690838336945
1733461496462397700,9.901397705078125,0.1014036312699318,0.13561208546161652,0.07941248267889023
1733461496472428500,9.911428466796876,0.09834930300712585,0.12828169763088226,0.07819075137376785
1733461496482417200,9.921417236328125,0.08429940044879913,0.10262536257505417,0.08246681094169617
1733461496492417500,9.93141748046875,0.06475171446800232,0.0507018156349659,0.08674286305904388
1733461496502406000,9.941406005859376,0.05497787147760391,0.006108652334660292,0.08307767659425735
1733461496512437000,9.95143701171875,0.05192354694008827,0.014049900695681572,0.09651670604944229
1733461496521962800,9.960962646484376,0.0507018156349659,0.13011430203914642,0.12034045159816742
1733461496531993600,9.97099365234375,0.06963863968849182,0.28099802136421204,0.13988813757896423
1733461496541982200,9.980982177734376,0.1007927656173706,0.33658674359321594,0.1368338167667389
1733461496551982800,9.99098291015625,0.1368338167667389,0.30115658044815063,0.08735372871160507
1733461496561971200,10.00097119140625,0.1814269721508026,0.23884831368923187,-0.00366519158706069
1733461496572002300,10.011002197265626,0.23640485107898712,0.1362229436635971,-0.09896016865968704
1733461496581990700,10.02099072265625,0.28099802136421204,-0.0555887371301651,-0.22418753802776337
1733461496591992000,10.030991943359375,0.28649580478668213,-0.13255776464939117,-0.2883284091949463
1733461496601979600,10.040979736328126,0.2883284091949463,-0.14477506279945374,-0.3139847218990326
1733461496612011500,10.051011474609375,0.29626965522766113,-0.04764748737215996,-0.27488934993743896
1733461496621968600,10.06096875,0.3170390725135803,0.11301007121801376,-0.182648703455925
1733461496632000000,10.071,0.38117989897727966,0.2669481039047241,-0.08918632566928864
1733461496641988400,10.08098828125,0.45875978469848633,0.3903428912162781,-0.10873401165008545
1733461496651988500,10.090988525390625,0.5436700582504272,0.3787364661693573,-0.34147366881370544
1733461496661977300,10.100977294921876,0.6108652353286743,0.17959438264369965,-0.5393940210342407
1733461496672009000,10.111009033203125,0.6707300543785095,-0.1270599663257599,-0.6969972252845764
1733461496681966300,10.12096630859375,0.6792821288108826,-0.4746423065662384,-0.7159340381622314
1733461496691998000,10.130998046875,0.645684540271759,-0.7391469478607178,-0.46364670991897583
1733461496701985800,10.14098583984375,0.5711590051651001,-0.7312057018280029,0.0806342139840126
1733461496711987200,10.1509873046875,0.46364670991897583,-0.48319441080093384,0.7916813492774963
1733461496721974800,10.160974853515626,0.3543018400669098,-0.27061331272125244,1.444696307182312
1733461496732006400,10.17100634765625,0.14966198801994324,-0.0910189226269722,1.9578231573104858
1733461496741963800,10.1809638671875,0.025656340643763542,-0.11667526513338089,1.9382754564285278
1733461496751994600,10.19099462890625,-0.03848451003432274,-0.14294247329235077,1.6383405923843384
1733461496761983500,10.2009833984375,-0.015882495790719986,-0.045204028487205505,1.1099421977996826
1733461496771983000,10.210983154296875,0.11667526513338089,0.07208210229873657,0.45753806829452515
1733461496781972500,10.220972412109376,0.31154128909111023,0.14294247329235077,-0.2070833146572113
1733461496792005000,10.231005126953125,0.4917465150356293,0.1417207419872284,-0.7776314616203308
1733461496801961500,10.24096142578125,0.5809328556060791,-0.04764748737215996,-1.3243558406829834
1733461496811993300,10.250993408203126,0.5271766781806946,-0.2015855312347412,-1.4605787992477417
1733461496821981000,10.26098095703125,0.41233405470848083,-0.2675589919090271,-1.3982704877853394
1733461496832012800,10.2710126953125,0.2687807083129883,-0.20036379992961884,-1.150259256362915
1733461496841970000,10.280969970703126,0.12278391420841217,-0.06414084881544113,-0.7605272531509399
1733461496852001500,10.29100146484375,0.010995574295520782,0.11239920556545258,-0.3243694305419922
1733461496861989600,10.30098974609375,-0.03176499158143997,0.26022860407829285,0.045204028487205505
1733461496871990000,10.310989990234376,-0.015271631069481373,0.32009339332580566,0.3744603991508484
1733461496881978600,10.320978515625,0.02015855349600315,0.294437050819397,0.4447098970413208
1733461496892009700,10.331009765625,0.06475171446800232,0.25106561183929443,0.4453207552433014
1733461496901967600,10.340967529296876,0.10751228034496307,0.20952677726745605,0.4190535545349121
1733461496911998700,10.350998779296875,0.14905111491680145,0.1472185254096985,0.3744603991508484
1733461496921987000,10.360987060546876,0.17776179313659668,0.05619960278272629,0.3176499307155609
1733461496931987700,10.37098779296875,0.2015855312347412,-0.03481931984424591,0.23884831368923187
1733461496941976000,10.38097607421875,0.22418753802776337,-0.10812314599752426,0.14233160018920898
1733461496952007400,10.39100732421875,0.2535090744495392,-0.1563815027475357,-0.00733038317412138
1733461496961965300,10.40096533203125,0.26083946228027344,-0.14416420459747314,-0.0659734457731247
1733461496971996400,10.410996337890625,0.25106561183929443,-0.09162978827953339,-0.06841690838336945
1733461496981984800,10.42098486328125,0.22479841113090515,-0.00366519158706069,-0.02321287989616394
1733461496991985400,10.4309853515625,0.18020524084568024,0.09712757170200348,0.045204028487205505
1733461497001973800,10.440973876953125,0.11911872029304504,0.1875356286764145,0.11728613078594208
1733461497012004600,10.451004638671876,0.05803219974040985,0.2474004179239273,0.17776179313659668
1733461497021962800,10.460962646484376,-0.012828170321881771,0.2583959996700287,0.22602014243602753
1733461497031993900,10.470993896484375,-0.051312681287527084,0.22296582162380219,0.2223549485206604
1733461497041982200,10.480982177734376,-0.08124507963657379,0.1918116807937622,0.21013765037059784
1733461497051982800,10.49098291015625,-0.0959058403968811,0.1771509200334549,0.2028072625398636
1733461497061971200,10.50097119140625,-0.10873401165008545,0.16432274878025055,0.19608774781227112
1733461497072002600,10.51100244140625,-0.11423180252313614,0.1319468915462494,0.17959438264369965
1733461497081991000,10.520990966796875,-0.09896016865968704,0.09162978827953339,0.1563815027475357
1733461497091991600,10.530991455078125,-0.042760565876960754,0.05803219974040985,0.12767083942890167
1733461497101980000,10.54097998046875,0.024434609338641167,0.12461651116609573,0.11362093687057495
1733461497112010000,10.551010009765625,0.0910189226269722,0.2565633952617645,0.10995574295520782
1733461497121968400,10.560968505859375,0.11239920556545258,0.3830125033855438,0.1062905490398407
1733461497131999500,10.57099951171875,0.07941248267889023,0.44654250144958496,0.08857546001672745
1733461497141987800,10.58098779296875,0.009773843921720982,0.42760565876960754,0.06169738993048668
1733461497151988500,10.590988525390625,-0.0708603709936142,0.313373863697052,0.036041051149368286
1733461497161977000,10.60097705078125,-0.14477506279945374,0.14233160018920898,0.012217304669320583
1733461497172008700,10.6110087890625,-0.2321287989616394,-0.1508837193250656,0.006719517521560192
1733461497181965800,10.6209658203125,-0.29565876722335815,-0.30115658044815063,-0.012217304669320583
1733461497191997700,10.630997802734376,-0.35613444447517395,-0.40072759985923767,-0.06414084881544113
1733461497202014000,10.641013916015625,-0.394618958234787,-0.46242499351501465,-0.1368338167667389
1733461497211987000,10.650987060546875,-0.4196644127368927,-0.5216789245605469,-0.1508837193250656
1733461497221974800,10.660974853515626,-0.45204028487205505,-0.5644394755363464,-0.03420845419168472
1733461497232006700,10.671006591796875,-0.5210680365562439,-0.5650503635406494,0.1973094791173935
1733461497241963800,10.6809638671875,-0.6285803318023682,-0.5467243790626526,0.5656611919403076
1733461497251994600,10.69099462890625,-0.6695083379745483,-0.48380526900291443,0.6951646208763123
1733461497261983500,10.7009833984375,-0.6786713004112244,-0.375071257352829,0.6957755088806152
1733461497271983600,10.710983642578125,-0.6548475623130798,-0.2590068578720093,0.5852088928222656
1733461497281972700,10.72097265625,-0.6004805564880371,-0.13927727937698364,0.38179078698158264
1733461497292002800,10.7310029296875,-0.5418374538421631,-0.04337143152952194,0.11423180252313614
1733461497301961500,10.74096142578125,-0.4996877610683441,0.04153883829712868,-0.1411098688840866
1733461497311993300,10.750993408203126,-0.47769662737846375,0.22540926933288574,-0.31154128909111023
1733461497321981000,10.76098095703125,-0.4954117238521576,0.3286454975605011,-0.25473082065582275
1733461497332013000,10.771012939453126,-0.5632177591323853,0.4300491213798523,-0.13072516024112701
1733461497341970200,10.78097021484375,-0.6627888083457947,0.48380526900291443,0.02076941914856434
1733461497352001500,10.79100146484375,-0.7617489695549011,0.5100724697113037,0.16004669666290283
1733461497361989600,10.80098974609375,-0.8533787727355957,0.5100724697113037,0.2681698501110077
1733461497371990300,10.810990234375,-0.9071348905563354,0.4489859640598297,0.3341432809829712
1733461497381978600,10.820978515625,-0.9224064946174622,0.35552358627319336,0.35124751925468445
1733461497392009200,10.83100927734375,-0.8918632864952087,0.19425514340400696,0.3121521472930908
1733461497401967600,10.840967529296876,-0.8497135639190674,0.09162978827953339,0.2620611786842346
1733461497411999000,10.8509990234375,-0.8020660877227783,0.018325956538319588,0.20402899384498596
1733461497421987000,10.860987060546876,-0.7513642311096191,-0.025045474991202354,0.1411098688840866
1733461497431988000,10.870988037109376,-0.6969972252845764,-0.05253441259264946,0.07880161702632904
1733461497441976000,10.88097607421875,-0.6383541822433472,-0.054367005825042725,0.018325956538319588
1733461497452007400,10.89100732421875,-0.5668829679489136,-0.04581489413976669,-0.04642575979232788
1733461497461965300,10.90096533203125,-0.4660901725292206,-0.030543262138962746,-0.18448130786418915
1733461497471996400,10.910996337890625,-0.4147774875164032,-0.04948008432984352,-0.303600013256073
1733461497481984800,10.92098486328125,-0.37079519033432007,-0.06841690838336945,-0.41661009192466736
1733461497491985200,10.930985107421876,-0.3445279896259308,-0.0861319974064827,-0.4990769028663635
1733461497501973800,10.940973876953125,-0.34697145223617554,-0.08796459436416626,-0.5290092825889587
1733461497512005400,10.95100537109375,-0.3738495409488678,-0.05375614017248154,-0.5149593949317932
1733461497521962800,10.960962646484376,-0.42577308416366577,-0.01466076634824276,-0.47830748558044434
1733461497531994600,10.97099462890625,-0.5070181488990784,0.0507018156349659,-0.43737950921058655
1733461497541982200,10.980982177734376,-0.5540547966957092,0.10445795953273773,-0.4153883755207062
1733461497551983400,10.9909833984375,-0.5870414972305298,0.15943582355976105,-0.384845107793808
1733461497561971200,11.00097119140625,-0.6126978397369385,0.20830504596233368,-0.33108896017074585
1733461497572002800,11.0110029296875,-0.627358615398407,0.24129177629947662,-0.25045475363731384
1733461497581991000,11.020990966796875,-0.6334672570228577,0.24190263450145721,-0.13377949595451355
1733461497591991600,11.030991455078125,-0.6481280326843262,0.21502456068992615,0.02321287989616394
1733461497601979600,11.040979736328126,-0.6841690540313721,0.1612684279680252,0.20463985204696655
1733461497612011000,11.051010986328125,-0.7409795522689819,0.08491026610136032,0.42149701714515686
1733461497621968600,11.06096875,-0.7428121566772461,0.08796459436416626,0.46731191873550415
1733461497632000000,11.071,-0.7171558141708374,0.10873401165008545,0.4349360466003418
1733461497641988400,11.08098828125,-0.6725626587867737,0.1111774742603302,0.33475416898727417
1733461497651988500,11.090988525390625,-0.6035348773002625,0.11972958594560623,0.19914206862449646
1733461497661977300,11.100977294921876,-0.5247332453727722,0.13011430203914642,0.07330382615327835
1733461497672008700,11.1110087890625,-0.4538728892803192,0.14905111491680145,0.009162978269159794
1733461497681966300,11.12096630859375,-0.3604104816913605,0.23090706765651703,0.08307767659425735
1733461497691998200,11.130998291015626,-0.3170390725135803,0.30970868468284607,0.22113321721553802
1733461497701985800,11.14098583984375,-0.2883284091949463,0.3897320330142975,0.3634648323059082
1733461497711986400,11.150986328125,-0.27550023794174194,0.4440990388393402,0.44287729263305664
1733461497721974800,11.160974853515626,-0.29626965522766113,0.5076290369033813,0.44104471802711487
1733461497732005400,11.17100537109375,-0.3335324227809906,0.59803706407547,0.34086281061172485
1733461497741963800,11.1809638671875,-0.34147366881370544,0.7660250067710876,0.12339477986097336
1733461497751994400,11.190994384765625,-0.25473082065582275,0.9669997096061707,-0.4245513379573822
1733461497761983500,11.2009833984375,-0.17348572611808777,0.8454375267028809,-0.8833111524581909
1733461497771983000,11.210983154296875,-0.11972958594560623,0.5320636034011841,-1.3310753107070923
1733461497781972500,11.220972412109376,-0.06902777403593063,0.18509216606616974,-1.6120734214782715
1733461497792004000,11.231004150390625,-0.042760565876960754,-0.12095131725072861,-1.6047430038452148
1733461497801961500,11.24096142578125,-0.1264491081237793,-0.36102136969566345,-1.2608258724212646
1733461497811993000,11.2509931640625,-0.3182607889175415,-0.4178318381309509,-0.5937610268592834
1733461497821981000,11.26098095703125,-0.5418374538421631,-0.2626720666885376,0.3341432809829712
1733461497832013000,11.271012939453126,-0.7672467231750488,0.003054326167330146,1.8026633262634277
1733461497841970000,11.280969970703126,-0.8344419002532959,0.12950342893600464,2.49294114112854
1733461497852001800,11.291001708984375,-0.8796459436416626,0.22418753802776337,2.819143056869507
1733461497861989600,11.30098974609375,-0.8619308471679688,0.25106561183929443,2.7452285289764404
1733461497871989200,11.3109892578125,-0.7721336483955383,0.18325957655906677,2.324953079223633
1733461497881978600,11.320978515625,-0.6548475623130798,-0.00366519158706069,1.6847662925720215
1733461497892011800,11.33101171875,-0.5687155723571777,-0.2528982162475586,0.9743300676345825
1733461497901967600,11.340967529296876,-0.3689626157283783,-0.44593164324760437,-0.0507018156349659
1733461497911998000,11.350998046875,-0.25961771607398987,-0.5412266254425049,-0.6291912198066711
1733461497921987000,11.360987060546876,-0.19425514340400696,-0.6487388610839844,-1.076344609260559
1733461497931987000,11.370987060546875,-0.23090706765651703,-0.7721336483955383,-1.4117095470428467
1733461497941976000,11.38097607421875,-0.3738495409488678,-0.8326093554496765,-1.6578882932662964
1733461497952006700,11.391006591796875,-0.5699372887611389,-0.7825183868408203,-1.7678439617156982
1733461497961965300,11.40096533203125,-0.8020660877227783,-0.5577199459075928,-1.635897159576416
1733461497971996700,11.41099658203125,-1.1789699792861938,-0.006719517521560192,-1.0512990951538086
1733461497981984800,11.42098486328125,-1.4489723443984985,0.31459560990333557,-0.5479460954666138
1733461497991986000,11.43098583984375,-1.6774359941482544,0.3689626157283783,-0.07880161702632904
1733461498001973800,11.440973876953125,-1.8680258989334106,0.22907446324825287,0.2919935882091522
1733461498012005600,11.451005615234376,-1.9969184398651123,0.027488935738801956,0.5283984541893005
1733461498021962800,11.460962646484376,-2.0891592502593994,-0.11423180252313614,0.637132465839386
1733461498031994600,11.47099462890625,-2.146580457687378,-0.23579397797584534,0.6743952035903931
1733461498041982200,11.480982177734376,-2.1838431358337402,-0.38728857040405273,0.6646214127540588
1733461498051982300,11.490982421875,-2.2119431495666504,-0.5668829679489136,0.5571091175079346
1733461498061971200,11.50097119140625,-2.213775634765625,-0.6340781450271606,0.423329621553421
1733461498072001800,11.511001708984375,-2.2119431495666504,-0.675616979598999,0.2736676335334778
1733461498081991000,11.520990966796875,-2.2070560455322266,-0.675616979598999,0.13866640627384186
1733461498091990800,11.53099072265625,-2.1978931427001953,-0.6432411074638367,0.02871066704392433
1733461498101980000,11.54097998046875,-2.194227933883667,-0.5900958180427551,-0.05864306539297104
1733461498112010800,11.5510107421875,-2.193617105484009,-0.5375614166259766,-0.11667526513338089
1733461498121968400,11.560968505859375,-2.2314908504486084,-0.5461135506629944,-0.12950342893600464
1733461498132000000,11.571,-2.2711970806121826,-0.588263213634491,-0.10201449692249298
1733461498141987800,11.58098779296875,-2.3151793479919434,-0.6511823534965515,-0.056810468435287476
1733461498151989200,11.5909892578125,-2.3658812046051025,-0.7116580009460449,-0.00855211354792118
1733461498161977000,11.60097705078125,-2.4239132404327393,-0.7531968355178833,0.04398229718208313
1733461498172008700,11.6110087890625,-2.4831671714782715,-0.7452555894851685,0.10018189996480942
1733461498181965800,11.6209658203125,-2.5271494388580322,-0.6731734871864319,0.16432274878025055
1733461498191996700,11.63099658203125,-2.521040916442871,-0.5088507533073425,0.2718350291252136
1733461498201985300,11.6409853515625,-2.450791358947754,-0.40744712948799133,0.33047810196876526
1733461498211986000,11.65098583984375,-2.3573288917541504,-0.32559117674827576,0.36651915311813354
1733461498221974800,11.660974853515626,-2.2571470737457275,-0.28466320037841797,0.3933972120285034
1733461498232005600,11.671005615234375,-2.175291061401367,-0.30054569244384766,0.41172316670417786
1733461498241963800,11.6809638671875,-2.118480682373047,-0.37201693654060364,0.4300491213798523
1733461498251994600,11.69099462890625,-2.105041742324829,-0.45753806829452515,0.4355469346046448
1733461498261983500,11.7009833984375,-2.1142046451568604,-0.5302310585975647,0.42760565876960754
1733461498271983600,11.710983642578125,-2.1056525707244873,-0.6285803318023682,0.3799581825733185
1733461498281972500,11.720972412109376,-2.065335512161255,-0.6823364496231079,0.3280346393585205
1733461498292003000,11.731003173828125,-1.9901989698410034,-0.7275404930114746,0.25473082065582275
1733461498301961500,11.74096142578125,-1.8857409954071045,-0.7440338730812073,0.16920967400074005
1733461498311992000,11.750991943359375,-1.768454909324646,-0.7348709106445312,0.09162978827953339
1733461498321981000,11.76098095703125,-1.663996934890747,-0.7104362845420837,0.039095375686883926
1733461498332011800,11.77101171875,-1.577254056930542,-0.6407976150512695,0.01466076634824276
1733461498341970000,11.780969970703126,-1.480737328529358,-0.4245513379573822,0.039706241339445114
1733461498352000800,11.791000732421875,-1.4306464195251465,-0.252287358045578,0.08002334833145142
1733461498361989600,11.80098974609375,-1.3903292417526245,-0.13988813757896423,0.12278391420841217
1733461498371989800,11.81098974609375,-1.3536773920059204,-0.09529497474431992,0.14844025671482086
1733461498381978600,11.820978515625,-1.3084733486175537,-0.08124507963657379,0.14477506279945374
1733461498392009000,11.831009033203125,-1.263269305229187,-0.0959058403968811,0.11972958594560623
1733461498401967600,11.840967529296876,-1.2101240158081055,-0.11362093687057495,0.07513642311096191
1733461498411998200,11.850998291015625,-1.1178834438323975,-0.11423180252313614,-0.00427605677396059
1733461498421987300,11.8609873046875,-1.056796908378601,-0.08918632566928864,-0.05192354694008827
1733461498431987200,11.8709873046875,-1.0024298429489136,-0.06536258012056351,-0.08307767659425735
1733461498441976000,11.88097607421875,-0.9566149711608887,-0.03787364438176155,-0.09468411654233932
1733461498452007000,11.8910068359375,-0.9138544201850891,-0.01160643994808197,-0.08796459436416626
1733461498461965300,11.90096533203125,-0.8729264140129089,0.006719517521560192,-0.06841690838336945
1733461498471995400,11.910995361328125,-0.8350527882575989,-0.010995574295520782,-0.051312681287527084
1733461498481984800,11.92098486328125,-0.8014551997184753,-0.06169738993048668,-0.042760565876960754
1733461498491984600,11.930984619140625,-0.7574729323387146,-0.14966198801994324,-0.0403171069920063
1733461498501973800,11.940973876953125,-0.7385360598564148,-0.18631389737129211,-0.036041051149368286
1733461498512004400,11.95100439453125,-0.7269296646118164,-0.2076941877603531,-0.006108652334660292
1733461498521962800,11.960962646484376,-0.7165449261665344,-0.22479841113090515,0.04703662544488907
1733461498531993300,11.970993408203125,-0.7079927921295166,-0.22663100063800812,0.10384709388017654
1733461498541982200,11.980982177734376,-0.6896668672561646,-0.19486601650714874,0.1466076523065567
1733461498551982300,11.990982421875,-0.6572909951210022,-0.1466076523065567,0.1612684279680252
1733461498561971200,12.00097119140625,-0.5955936312675476,-0.1215621829032898,0.10018189996480942
1733461498572001800,12.011001708984375,-0.5473352670669556,-0.1514945775270462,0.012217304669320583
1733461498581991000,12.020990966796875,-0.49296826124191284,-0.20525072515010834,-0.08674286305904388
1733461498591990800,12.03099072265625,-0.4386012554168701,-0.25473082065582275,-0.1765400618314743
1733461498601980000,12.04097998046875,-0.39217549562454224,-0.2968805134296417,-0.24068090319633484
1733461498612010200,12.05101025390625,-0.36163222789764404,-0.3084869384765625,-0.2669481039047241
1733461498621968600,12.06096875,-0.3390302062034607,-0.2840523421764374,-0.25595253705978394
1733461498631999500,12.07099951171875,-0.31581732630729675,-0.16920967400074005,-0.18814650177955627
1733461498641988400,12.08098828125,-0.29626965522766113,-0.05925392732024193,-0.11423180252313614
1733461498651988500,12.090988525390625,-0.2840523421764374,0.04581489413976669,-0.024434609338641167
1733461498661977300,12.100977294921876,-0.2773328125476837,0.1014036312699318,0.05009094998240471
1733461498672008000,12.111008056640625,-0.25595253705978394,0.1007927656173706,0.08979719132184982
1733461498681966300,12.12096630859375,-0.21441370248794556,0.06475171446800232,0.07269296050071716
1733461498691997000,12.130996826171875,-0.1569923609495163,-0.010995574295520782,-0.014049900695681572
1733461498701985800,12.14098583984375,-0.0910189226269722,-0.12278391420841217,-0.16737708449363708
1733461498711986400,12.150986328125,0.01771509274840355,-0.2718350291252136,-0.46181413531303406
1733461498721975000,12.16097509765625,0.08429940044879913,-0.3170390725135803,-0.6352998614311218
1733461498732006400,12.17100634765625,0.14049901068210602,-0.34086281061172485,-0.7397578358650208
1733461498741963800,12.1809638671875,0.15943582355976105,-0.313373863697052,-0.7568620443344116
1733461498751995600,12.19099560546875,0.15271630883216858,-0.2535090744495392,-0.6939429044723511
1733461498761983500,12.2009833984375,0.09957103431224823,-0.1820378452539444,-0.5613851547241211
1733461498771984400,12.210984375,0.013439035043120384,-0.16065755486488342,-0.3836233615875244
1733461498781972500,12.220972412109376,-0.1514945775270462,-0.27122417092323303,-0.08918632566928864
1733461498792004000,12.231004150390625,-0.24007004499435425,-0.4092797040939331,0.08368854224681854
1733461498801961500,12.24096142578125,-0.2822197377681732,-0.5827654600143433,0.2217440903186798
1733461498811993000,12.2509931640625,-0.30970868468284607,-0.8191702961921692,0.3390302062034607
1733461498821981000,12.26098095703125,-0.3543018400669098,-1.0946705341339111,0.47342056035995483
1733461498832012800,12.2710126953125,-0.40072759985923767,-1.303586483001709,0.6328563690185547
1733461498841970000,12.280969970703126,-0.4434881806373596,-1.3634512424468994,0.8283332586288452
1733461498852000500,12.29100048828125,-0.5088507533073425,-1.2418889999389648,1.1484266519546509
1733461498861989600,12.30098974609375,-0.5436700582504272,-1.0867292881011963,1.3084733486175537
1733461498871989200,12.3109892578125,-0.5729916095733643,-0.8588765263557434,1.3720033168792725
1733461498881978600,12.320978515625,-0.5900958180427551,-0.588263213634491,1.3182471990585327
1733461498892013300,12.331013427734375,-0.5754350423812866,-0.31093040108680725,1.1465940475463867
1733461498901968000,12.3409677734375,-0.5222898125648499,-0.07391469180583954,0.8765916228294373
1733461498912000000,12.351,-0.44104471802711487,0.12400564551353455,0.5314527750015259
1733461498921987300,12.3609873046875,-0.3591887652873993,0.24434609711170197,0.15515977144241333
1733461498931987200,12.3709873046875,-0.22602014243602753,0.3604104816913605,-0.37751471996307373
1733461498941976000,12.38097607421875,-0.15027284622192383,0.42088615894317627,-0.6768386960029602
1733461498952006700,12.391006591796875,-0.1563815027475357,0.4001167416572571,-0.8998045325279236
1733461498961965300,12.40096533203125,-0.26145032048225403,0.22540926933288574,-1.0268645286560059
1733461498971995400,12.410995361328125,-0.4251621961593628,0.02382374368607998,-1.0396926403045654
1733461498981985000,12.420985107421876,-0.5852088928222656,-0.056810468435287476,-0.9395107626914978
