time,seconds_elapsed,z,y,x
1733461486762689300,0.201689208984375,-0.12034045159816742,-0.0555887371301651,0.045204028487205505
1733461486772519000,0.211518798828125,-0.11789698898792267,-0.05375614017248154,0.0403171069920063
1733461486782475800,0.221475830078125,-0.1062905490398407,-0.06108652427792549,0.03848451003432274
1733461486792507600,0.231507568359375,-0.0910189226269722,-0.06230825558304787,0.0354301854968071
1733461486802464800,0.24146484375,-0.07757988572120667,-0.05375614017248154,0.0354301854968071
1733461486812496600,0.25149658203125,-0.07269296050071716,-0.042760565876960754,0.036651913076639175
1733461486822484500,0.261484375,-0.08246681094169617,-0.04153883829712868,0.03481931984424591
1733461486832516400,0.271516357421875,-0.0910189226269722,-0.05619960278272629,0.029932396486401558
1733461486842473500,0.281473388671875,-0.10201449692249298,-0.06780604273080826,0.025656340643763542
1733461486852505600,0.291505615234375,-0.1160643994808197,-0.07452555745840073,0.025656340643763542
1733461486862493000,0.301492919921875,-0.12767083942890167,-0.07696902006864548,0.03420845419168472
1733461486872494600,0.31149462890625,-0.13255776464939117,-0.07269296050071716,0.04642575979232788
1733461486882482000,0.32148193359375,-0.14049901068210602,-0.07330382615327835,0.05925392732024193
1733461486892513800,0.331513671875,-0.14049901068210602,-0.08246681094169617,0.06108652427792549
1733461486902471200,0.34147119140625,-0.13316862285137177,-0.0806342139840126,0.04398229718208313
1733461486912502800,0.351502685546875,-0.12522737681865692,-0.07941248267889023,0.03420845419168472
1733461486922490600,0.36149072265625,-0.11789698898792267,-0.08124507963657379,0.02932153269648552
1733461486932492000,0.371491943359375,-0.11239920556545258,-0.08307767659425735,0.030543262138962746
1733461486942480000,0.38147998046875,-0.10995574295520782,-0.08185594528913498,0.03481931984424591
1733461486952511500,0.391511474609375,-0.10873401165008545,-0.08185594528913498,0.0354301854968071
1733461486962468900,0.40146875,-0.11239920556545258,-0.08124507963657379,0.03481931984424591
1733461486972500700,0.411500732421875,-0.11972958594560623,-0.07330382615327835,0.03176499158143997
1733461486982488300,0.42148828125,-0.12278391420841217,-0.07269296050071716,0.028099801391363144
1733461486992489700,0.43148974609375,-0.12034045159816742,-0.06658431142568588,0.02382374368607998
1733461487002477300,0.441477294921875,-0.12034045159816742,-0.06108652427792549,0.021991148591041565
1733461487012509000,0.451509033203125,-0.12034045159816742,-0.05864306539297104,0.027488935738801956
1733461487022466300,0.46146630859375,-0.11484266817569733,-0.051312681287527084,0.033597588539123535
1733461487032498200,0.471498291015625,-0.10873401165008545,-0.04948008432984352,0.03848451003432274
1733461487042485800,0.48148583984375,-0.09529497474431992,-0.04948008432984352,0.04214970022439957
1733461487052487200,0.491487060546875,-0.08674286305904388,-0.05009094998240471,0.04398229718208313
1733461487062474800,0.501474853515625,-0.08246681094169617,-0.05864306539297104,0.05192354694008827
1733461487072506600,0.511506591796875,-0.08368854224681854,-0.06902777403593063,0.059864792972803116
1733461487082494200,0.521494140625,-0.08674286305904388,-0.08552113175392151,0.06963863968849182
1733461487092495600,0.53149560546875,-0.09346238523721695,-0.10873401165008545,0.07269296050071716
1733461487102483200,0.541483154296875,-0.09773843735456467,-0.12217304855585098,0.0659734457731247
1733461487112513300,0.55151318359375,-0.1007927656173706,-0.12034045159816742,0.05925392732024193
1733461487122471400,0.561471435546875,-0.10018189996480942,-0.11239920556545258,0.0555887371301651
1733461487132503000,0.5715029296875,-0.10323622822761536,-0.09896016865968704,0.06536258012056351
1733461487142491000,0.581490966796875,-0.10323622822761536,-0.09712757170200348,0.08368854224681854
1733461487152492300,0.5914921875,-0.09712757170200348,-0.09529497474431992,0.09896016865968704
1733461487162479900,0.60147998046875,-0.08979719132184982,-0.08857546001672745,0.10812314599752426
1733461487172511500,0.611511474609375,-0.08368854224681854,-0.08307767659425735,0.11056660860776901
1733461487182468900,0.62146875,-0.07513642311096191,-0.08429940044879913,0.10506882518529892
1733461487192500500,0.63150048828125,-0.06475171446800232,-0.07513642311096191,0.08735372871160507
1733461487202515200,0.64151513671875,-0.059864792972803116,-0.07635815441608429,0.08124507963657379
1733461487212490200,0.651490234375,-0.059864792972803116,-0.07452555745840073,0.07513642311096191
1733461487222478300,0.661478271484375,-0.05864306539297104,-0.06902777403593063,0.06719517707824707
1733461487232510000,0.671510009765625,-0.06230825558304787,-0.07391469180583954,0.05497787147760391
1733461487242467300,0.68146728515625,-0.06902777403593063,-0.08552113175392151,0.039706241339445114
1733461487252499000,0.6914990234375,-0.07024950534105301,-0.09773843735456467,0.025656340643763542
1733461487262486800,0.70148681640625,-0.07147123664617538,-0.10934487730264664,0.015882495790719986
1733461487272488000,0.711488037109375,-0.07208210229873657,-0.10506882518529892,0.018325956538319588
1733461487282475800,0.721475830078125,-0.06169738993048668,-0.08368854224681854,0.018936822190880775
1733461487292507600,0.731507568359375,-0.04886921867728233,-0.06475171446800232,0.015271631069481373
1733461487302465000,0.741465087890625,-0.04398229718208313,-0.04459316283464432,0.01771509274840355
1733461487312496400,0.751496337890625,-0.036041051149368286,-0.036651913076639175,0.019547687843441963
1733461487322484500,0.761484375,-0.02932153269648552,-0.0354301854968071,0.024434609338641167
1733461487332515300,0.771515380859375,-0.030543262138962746,-0.051312681287527084,0.036041051149368286
1733461487342473500,0.781473388671875,-0.03481931984424591,-0.07452555745840073,0.0507018156349659
1733461487352504300,0.79150439453125,-0.04153883829712868,-0.08246681094169617,0.04214970022439957
1733461487362493000,0.801492919921875,-0.045204028487205505,-0.09651670604944229,0.02382374368607998
1733461487372493300,0.811493408203125,-0.05009094998240471,-0.10690141469240189,0.0006108652451075613
1733461487382482000,0.82148193359375,-0.056810468435287476,-0.10873401165008545,-0.016493361443281174
1733461487392513000,0.831512939453125,-0.059864792972803116,-0.11056660860776901,-0.024434609338641167
1733461487402471200,0.84147119140625,-0.06352998316287994,-0.12217304855585098,-0.03787364438176155
1733461487412502000,0.851501953125,-0.06780604273080826,-0.15271630883216858,-0.060475658625364304
1733461487422490600,0.86149072265625,-0.0806342139840126,-0.17531833052635193,-0.0659734457731247
1733461487432491000,0.871490966796875,-0.10018189996480942,-0.18081611394882202,-0.06841690838336945
1733461487442479600,0.881479736328125,-0.10323622822761536,-0.16859880089759827,-0.04948008432984352
1733461487452510500,0.891510498046875,-0.10323622822761536,-0.13377949595451355,-0.024434609338641167
1733461487462468900,0.90146875,-0.10323622822761536,-0.09957103431224823,0
1733461487472499500,0.91149951171875,-0.09896016865968704,-0.07269296050071716,0.015271631069481373
1733461487482488000,0.921488037109375,-0.09468411654233932,-0.022602014243602753,0.021991148591041565
1733461487492488700,0.93148876953125,-0.10201449692249298,0,0.01466076634824276
1733461487502477000,0.94147705078125,-0.11178833991289139,0.01160643994808197,-0.0024434609804302454
1733461487512508200,0.951508056640625,-0.1264491081237793,0.01160643994808197,-0.01771509274840355
1733461487522466300,0.96146630859375,-0.14355333149433136,0.009162978269159794,-0.025656340643763542
1733461487532497400,0.971497314453125,-0.15515977144241333,0.01160643994808197,-0.02321287989616394
1733461487542485500,0.981485595703125,-0.1618792861700058,0.016493361443281174,-0.012217304669320583
1733461487552486400,0.991486328125,-0.16432274878025055,0.009773843921720982,0.0024434609804302454
1733461487562474500,1.001474609375,-0.15515977144241333,0.018325956538319588,0.022602014243602753
1733461487572506400,1.01150634765625,-0.13561208546161652,0.03420845419168472,0.036651913076639175
1733461487582494200,1.021494140625,-0.11972958594560623,0.0507018156349659,0.05375614017248154
1733461487592495400,1.031495361328125,-0.1258382350206375,0.042760565876960754,0.060475658625364304
1733461487602483200,1.041483154296875,-0.12095131725072861,0.04703662544488907,0.07941248267889023
1733461487612514800,1.051514892578125,-0.1007927656173706,0.05742133408784866,0.10751228034496307
1733461487622472200,1.06147216796875,-0.09896016865968704,0.06352998316287994,0.14233160018920898
1733461487632503300,1.07150341796875,-0.10018189996480942,0.042760565876960754,0.17776179313659668
1733461487642491600,1.08149169921875,-0.12034045159816742,0.003054326167330146,0.16249015927314758
1733461487652492300,1.0914921875,-0.14294247329235077,-0.04398229718208313,0.11911872029304504
1733461487662480600,1.101480712890625,-0.16004669666290283,-0.08918632566928864,0.05925392732024193
1733461487672512000,1.111511962890625,-0.1667662113904953,-0.1215621829032898,-0.009162978269159794
1733461487682469600,1.1214697265625,-0.16371189057826996,-0.14049901068210602,-0.07024950534105301
1733461487692501000,1.1315009765625,-0.15271630883216858,-0.13011430203914642,-0.10934487730264664
1733461487702489300,1.1414892578125,-0.11301007121801376,-0.04642575979232788,-0.11667526513338089
1733461487712489700,1.15148974609375,-0.08307767659425735,0.009773843921720982,-0.08491026610136032
1733461487722478600,1.161478515625,-0.05192354694008827,0.039706241339445114,-0.0354301854968071
1733461487732510000,1.171510009765625,-0.025656340643763542,0.0403171069920063,0.013439035043120384
1733461487742467300,1.18146728515625,-0.0006108652451075613,0.0024434609804302454,0.05497787147760391
1733461487752498000,1.191497802734375,0.02382374368607998,-0.0708603709936142,0.08246681094169617
1733461487762486800,1.20148681640625,0.05253441259264946,-0.14905111491680145,0.10934487730264664
1733461487772487400,1.2114873046875,0.08796459436416626,-0.20463985204696655,0.1313360333442688
1733461487782475800,1.221475830078125,0.13866640627384186,-0.23945917189121246,0.15332718193531036
1733461487792507000,1.2315068359375,0.1722639948129654,-0.23518311977386475,0.15882496535778046
1733461487802465000,1.241465087890625,0.19608774781227112,-0.19975294172763824,0.16859880089759827
1733461487812496100,1.25149609375,0.20341812074184418,-0.13255776464939117,0.17959438264369965
1733461487822484500,1.261484375,0.2021963894367218,-0.05253441259264946,0.16982053220272064
1733461487832515000,1.27151513671875,0.20952677726745605,0.021380282938480377,0.13561208546161652
1733461487842473500,1.281473388671875,0.21563543379306793,0.08429940044879913,0.07269296050071716
1733461487852504600,1.291504638671875,0.22113321721553802,0.13377949595451355,-0.08979719132184982
1733461487862493000,1.301492919921875,0.2174680233001709,0.14416420459747314,-0.22357667982578278
1733461487872493600,1.31149365234375,0.2064724564552307,0.152105450630188,-0.3488040566444397
1733461487882482000,1.32148193359375,0.1820378452539444,0.16249015927314758,-0.44715335965156555
1733461487892513000,1.331512939453125,0.14905111491680145,0.15332718193531036,-0.5070181488990784
1733461487902471200,1.34147119140625,0.11728613078594208,0.12522737681865692,-0.5192354321479797
1733461487912502000,1.351501953125,0.08674286305904388,0.10567969083786011,-0.4801400899887085
1733461487922490600,1.36149072265625,0.05314527451992035,0.08307767659425735,-0.33658674359321594
1733461487932491000,1.371490966796875,0.04703662544488907,0.08185594528913498,-0.2125810980796814
1733461487942479600,1.381479736328125,0.04459316283464432,0.07635815441608429,-0.08674286305904388
1733461487952510700,1.3915107421875,0.04764748737215996,0.06475171446800232,0.031154127791523933
1733461487962468900,1.40146875,0.060475658625364304,0.048258353024721146,0.12217304855585098
1733461487972499700,1.411499755859375,0.07513642311096191,0.03481931984424591,0.17470745742321014
1733461487982488300,1.42148828125,0.09834930300712585,0.02626720629632473,0.19364428520202637
1733461487992489000,1.431489013671875,0.12400564551353455,0.02015855349600315,0.18509216606616974
1733461488002477300,1.441477294921875,0.15332718193531036,0.03726277872920036,0.13561208546161652
1733461488012508400,1.45150830078125,0.1722639948129654,0.028099801391363144,0.09834930300712585
1733461488022466300,1.46146630859375,0.17959438264369965,0.05009094998240471,0.0555887371301651
1733461488032497700,1.47149755859375,0.17287486791610718,0.0659734457731247,0.01160643994808197
1733461488042486000,1.481486083984375,0.1612684279680252,0.09040805697441101,-0.030543262138962746
1733461488052486400,1.491486328125,0.1514945775270462,0.11911872029304504,-0.0708603709936142
1733461488062474800,1.501474853515625,0.1411098688840866,0.14538592100143433,-0.09040805697441101
1733461488072505900,1.511505859375,0.1319468915462494,0.17104226350784302,-0.09651670604944229
1733461488082494200,1.521494140625,0.13377949595451355,0.192422553896904,-0.09957103431224823
1733461488092494800,1.531494873046875,0.14355333149433136,0.21991148591041565,-0.11056660860776901
1733461488102483200,1.541483154296875,0.16310101747512817,0.24923302233219147,-0.13072516024112701
1733461488112512800,1.5515126953125,0.1722639948129654,0.2681698501110077,-0.15027284622192383
1733461488122471200,1.56147119140625,0.1771509200334549,0.2773328125476837,-0.16493362188339233
1733461488132502500,1.57150244140625,0.16920967400074005,0.2822197377681732,-0.17531833052635193
1733461488142491000,1.581490966796875,0.1459967941045761,0.27122417092323303,-0.18509216606616974
1733461488152491500,1.591491455078125,0.1319468915462494,0.22052235901355743,-0.17470745742321014
1733461488162479900,1.60147998046875,0.11545353382825851,0.12217304855585098,-0.14905111491680145
1733461488172510700,1.6115107421875,0.09040805697441101,-0.0006108652451075613,-0.10690141469240189
1733461488182468900,1.62146875,0.05375614017248154,-0.13927727937698364,-0.048258353024721146
1733461488192500000,1.6315,0.022602014243602753,-0.2681698501110077,0.00733038317412138
1733461488202488300,1.64148828125,-0.001832595793530345,-0.35613444447517395,0.027488935738801956
1733461488212490000,1.651489990234375,-0.02687807008624077,-0.40256020426750183,0.0006108652451075613
1733461488222478300,1.661478271484375,-0.012828170321881771,-0.42638394236564636,-0.10018189996480942
1733461488232509400,1.671509521484375,0.006719517521560192,-0.38728857040405273,-0.16920967400074005
1733461488242467300,1.68146728515625,0.01466076634824276,-0.3225368559360504,-0.2070833146572113
1733461488252498200,1.691498291015625,0.012217304669320583,-0.21930062770843506,-0.20525072515010834
1733461488262486800,1.70148681640625,-0.0006108652451075613,-0.1007927656173706,-0.17409659922122955
1733461488272487200,1.711487060546875,-0.021380282938480377,0.006719517521560192,-0.13439035415649414
1733461488282475800,1.721475830078125,-0.036041051149368286,0.06902777403593063,-0.08552113175392151
1733461488292507000,1.7315068359375,-0.06169738993048668,0.08002334833145142,-0.04459316283464432
1733461488302464800,1.74146484375,-0.09162978827953339,0.02076941914856434,-0.0555887371301651
1733461488312496000,1.75149609375,-0.1362229436635971,-0.06902777403593063,-0.08002334833145142
1733461488322484500,1.761484375,-0.16982053220272064,-0.1771509200334549,-0.10690141469240189
1733461488332515600,1.771515625,-0.19303341209888458,-0.2565633952617645,-0.13744467496871948
1733461488342473500,1.781473388671875,-0.19547687470912933,-0.3243694305419922,-0.1472185254096985
1733461488352504300,1.79150439453125,-0.1716531366109848,-0.3732386529445648,-0.12828169763088226
1733461488362493200,1.8014931640625,-0.10812314599752426,-0.41661009192466736,-0.08918632566928864
1733461488372494000,1.811494140625,-0.04459316283464432,-0.42577308416366577,-0.0757472887635231
1733461488382482000,1.82148193359375,0.019547687843441963,-0.37690386176109314,-0.05803219974040985
1733461488392513500,1.831513427734375,0.07208210229873657,-0.25473082065582275,0.006719517521560192
1733461488402471000,1.841470947265625,0.09957103431224823,-0.10262536257505417,0.13805554807186127
1733461488412502500,1.85150244140625,0.08429940044879913,0,0.3396410644054413
1733461488422490600,1.86149072265625,0.031154127791523933,0.04214970022439957,0.5668829679489136
1733461488432491500,1.871491455078125,-0.05009094998240471,0.015882495790719986,0.8020660877227783
1733461488442479600,1.881479736328125,-0.17287486791610718,-0.11423180252313614,1.122159481048584
1733461488452511200,1.89151123046875,-0.24434609711170197,-0.2431243658065796,1.2522737979888916
1733461488462468400,1.90146826171875,-0.29504790902137756,-0.39156460762023926,1.29381263256073
1733461488472499000,1.9114990234375,-0.3378084897994995,-0.5363397002220154,1.243721604347229
1733461488482488000,1.921488037109375,-0.384845107793808,-0.6120869517326355,1.102611780166626
1733461488492488000,1.931488037109375,-0.4056145250797272,-0.5577199459075928,0.9034696817398071
1733461488502477300,1.941477294921875,-0.37751471996307373,-0.4337143301963806,0.6841690540313721
1733461488512507400,1.95150732421875,-0.30970868468284607,-0.2064724564552307,0.36529740691185
1733461488522466300,1.96146630859375,-0.252287358045578,-0.04886921867728233,0.18875735998153687
1733461488532498000,1.971497802734375,-0.17898350954055786,0.07147123664617538,0.06414084881544113
1733461488542485500,1.981485595703125,-0.12339477986097336,0.1667662113904953,-0.02626720629632473
1733461488552487000,1.99148681640625,-0.08002334833145142,0.2064724564552307,-0.08979719132184982
1733461488562474500,2.001474609375,-0.06230825558304787,0.20586158335208893,-0.13439035415649414
1733461488572506000,2.011506103515625,-0.08002334833145142,0.21319197118282318,-0.1973094791173935
1733461488582494200,2.021494140625,-0.13316862285137177,0.21991148591041565,-0.36224308609962463
1733461488592495000,2.0314951171875,-0.19120082259178162,0.24862214922904968,-0.5112941861152649
1733461488602483200,2.041483154296875,-0.25106561183929443,0.2822197377681732,-0.6414085030555725
1733461488612514800,2.051514892578125,-0.31031954288482666,0.2883284091949463,-0.7220427393913269
1733461488622472200,2.06147216796875,-0.35735616087913513,0.28466320037841797,-0.7562511563301086
1733461488632503000,2.0715029296875,-0.3885102868080139,0.2577851414680481,-0.7391469478607178
1733461488642491600,2.08149169921875,-0.39217549562454224,0.18325957655906677,-0.675006091594696
1733461488652492300,2.0914921875,-0.384845107793808,0.07819075137376785,-0.5852088928222656
1733461488662480600,2.101480712890625,-0.3854559659957886,-0.08735372871160507,-0.4239404797554016
1733461488672511700,2.11151171875,-0.3854559659957886,-0.1466076523065567,-0.3072652220726013
1733461488682470000,2.121469970703125,-0.375071257352829,-0.17592918872833252,-0.19120082259178162
1733461488692501000,2.1315009765625,-0.36163222789764404,-0.20891591906547546,-0.08918632566928864
1733461488702489300,2.1414892578125,-0.35124751925468445,-0.25534167885780334,-0.007941247895359993
1733461488712490000,2.151489990234375,-0.33658674359321594,-0.28466320037841797,0.042760565876960754
1733461488722478300,2.161478271484375,-0.3139847218990326,-0.2974913716316223,0.07024950534105301
1733461488732509700,2.171509765625,-0.2767219543457031,-0.2828305959701538,0.09773843735456467
1733461488742467300,2.18146728515625,-0.23579397797584534,-0.22968533635139465,0.11972958594560623
1733461488752498700,2.191498779296875,-0.18325957655906677,-0.15577064454555511,0.1417207419872284
1733461488762486800,2.20148681640625,-0.13805554807186127,-0.07819075137376785,0.16249015927314758
1733461488772487200,2.211487060546875,-0.09712757170200348,-0.019547687843441963,0.17776179313659668
1733461488782475800,2.221475830078125,-0.059864792972803116,0.025045474991202354,0.18325957655906677
1733461488792507000,2.2315068359375,-0.02076941914856434,0.05864306539297104,0.18081611394882202
1733461488802464800,2.24146484375,0.021991148591041565,0.08246681094169617,0.17287486791610718
1733461488812496100,2.25149609375,0.05375614017248154,0.1466076523065567,0.1319468915462494
1733461488822484500,2.261484375,0.0555887371301651,0.22052235901355743,0.09773843735456467
1733461488832515300,2.271515380859375,0.05314527451992035,0.26145032048225403,0.08124507963657379
1733461488842473500,2.281473388671875,0.04398229718208313,0.24984388053417206,0.08185594528913498
1733461488852505300,2.29150537109375,0.02321287989616394,0.1508837193250656,0.10812314599752426
1733461488862493000,2.301492919921875,-0.00733038317412138,-0.01160643994808197,0.16249015927314758
1733461488872494000,2.311494140625,-0.054367005825042725,-0.17409659922122955,0.24617868661880493
1733461488882482000,2.32148193359375,-0.14782938361167908,-0.2773328125476837,0.42699480056762695
1733461488892513800,2.331513671875,-0.18020524084568024,-0.2064724564552307,0.5412266254425049
1733461488902471200,2.34147119140625,-0.17409659922122955,-0.09773843735456467,0.6017022728919983
1733461488912502300,2.351502197265625,-0.13439035415649414,-0.02015855349600315,0.5760459303855896
1733461488922490600,2.36149072265625,-0.08857546001672745,-0.022602014243602753,0.47708576917648315
1733461488932491300,2.3714912109375,-0.03848451003432274,-0.031154127791523933,0.3341432809829712
1733461488942480000,2.38147998046875,0.01771509274840355,-0.015271631069481373,0.1918116807937622
1733461488952510700,2.3915107421875,0.09773843735456467,0.0507018156349659,-0.01771509274840355
1733461488962468900,2.40146875,0.1368338167667389,0.03237585723400116,-0.15515977144241333
1733461488972500500,2.41150048828125,0.1417207419872284,-0.10323622822761536,-0.2822197377681732
1733461488982488300,2.42148828125,0.1062905490398407,-0.31642818450927734,-0.3439171314239502
1733461488992489500,2.431489501953125,0.04459316283464432,-0.5528330206871033,-0.27061331272125244
1733461489002477300,2.441477294921875,-0.036651913076639175,-0.6395758986473083,-0.024434609338641167
1733461489012508700,2.4515087890625,-0.09957103431224823,-0.5412266254425049,0.3878994286060333
1733461489022466300,2.46146630859375,-0.11362093687057495,-0.32681289315223694,0.8717046976089478
1733461489032496600,2.47149658203125,-0.07452555745840073,0.15393804013729095,1.4147639274597168
1733461489042485800,2.48148583984375,-0.048258353024721146,0.41172316670417786,1.5534303188323975
1733461489052488000,2.491488037109375,-0.04153883829712868,0.5229006409645081,1.5063936710357666
1733461489062474800,2.501474853515625,-0.03298672288656235,0.5558874011039734,1.302364706993103
1733461489072505000,2.511505126953125,0.006719517521560192,0.5125159621238708,1.0042624473571777
1733461489082494200,2.521494140625,0.10506882518529892,0.3628539443016052,0.6615670323371887
1733461489092496100,2.53149609375,0.2480112910270691,0.1569923609495163,0.30054569244384766
1733461489102483500,2.5414833984375,0.3885102868080139,-0.32498031854629517,-0.17898350954055786
1733461489112513300,2.55151318359375,0.3781255781650543,-0.5900958180427551,-0.42088615894317627
1733461489122471200,2.56147119140625,0.31459560990333557,-0.6346889734268188,-0.5815436840057373
1733461489132502800,2.571502685546875,0.21868975460529327,-0.513126790523529,-0.6157521605491638
1733461489142491000,2.581490966796875,0.1215621829032898,-0.30543261766433716,-0.5308418869972229
1733461489152491800,2.59149169921875,0.04214970022439957,-0.07819075137376785,-0.3787364661693573
1733461489162479900,2.60147998046875,-0.00427605677396059,0.12034045159816742,-0.21441370248794556
1733461489172511500,2.611511474609375,-0.03481931984424591,0.3481931984424591,-0.02321287989616394
1733461489182468900,2.62146875,-0.03176499158143997,0.4306600093841553,0.05803219974040985
1733461489192500000,2.6315,-0.00733038317412138,0.4355469346046448,0.11301007121801376
1733461489202518800,2.641518798828125,0.03176499158143997,0.3640756905078888,0.13927727937698364
1733461489212489000,2.651489013671875,0.0806342139840126,0.2174680233001709,0.15393804013729095
1733461489222478300,2.661478271484375,0.13072516024112701,0.06658431142568588,0.1417207419872284
1733461489232509400,2.671509521484375,0.17592918872833252,-0.059864792972803116,0.09468411654233932
1733461489242467300,2.68146728515625,0.21013765037059784,-0.15760323405265808,0.02076941914856434
1733461489252499000,2.6914990234375,0.24434609711170197,-0.2321287989616394,-0.09529497474431992
1733461489262486800,2.70148681640625,0.2577851414680481,-0.2278527319431305,-0.1466076523065567
1733461489272487400,2.7114873046875,0.2632829248905182,-0.19975294172763824,-0.17776179313659668
1733461489282476000,2.72147607421875,0.2620611786842346,-0.15760323405265808,-0.19303341209888458
1733461489292507100,2.731507080078125,0.24373523890972137,-0.11667526513338089,-0.18997909128665924
1733461489302464800,2.74146484375,0.2070833146572113,-0.08857546001672745,-0.16982053220272064
1733461489312496000,2.75149609375,0.16982053220272064,-0.05925392732024193,-0.1459967941045761
1733461489322484500,2.761484375,0.12400564551353455,-0.01710422709584236,-0.10323622822761536
1733461489332515800,2.771515869140625,0.09285151958465576,0.01466076634824276,-0.056810468435287476
1733461489342473500,2.781473388671875,0.06475171446800232,0.031154127791523933,-0.00733038317412138
1733461489352504600,2.791504638671875,0.02076941914856434,0.009773843921720982,0.036041051149368286
1733461489362493000,2.801492919921875,-0.015271631069481373,-0.03176499158143997,0.06841690838336945
1733461489372493600,2.81149365234375,-0.04337143152952194,-0.07391469180583954,0.08674286305904388
1733461489382482000,2.82148193359375,-0.05925392732024193,-0.09712757170200348,0.08796459436416626
1733461489392513000,2.831512939453125,-0.04459316283464432,-0.10384709388017654,0.05925392732024193
1733461489402471200,2.84147119140625,-0.01771509274840355,-0.09529497474431992,0.027488935738801956
1733461489412502000,2.851501953125,0.018325956538319588,-0.033597588539123535,-0.01771509274840355
1733461489422490600,2.86149072265625,0.03298672288656235,0.07330382615327835,-0.056810468435287476
1733461489432491000,2.871490966796875,0.018325956538319588,0.2223549485206604,-0.06963863968849182
1733461489442479600,2.881479736328125,-0.01160643994808197,0.33658674359321594,-0.07330382615327835
1733461489452510500,2.891510498046875,-0.0555887371301651,0.36529740691185,-0.0959058403968811
1733461489462468600,2.901468505859375,-0.12950342893600464,0.2431243658065796,-0.13866640627384186
1733461489472499500,2.91149951171875,-0.30543261766433716,-0.11545353382825851,-0.16310101747512817
1733461489482488000,2.921488037109375,-0.4092797040939331,-0.3500257730484009,-0.09040805697441101
1733461489492488700,2.93148876953125,-0.47342056035995483,-0.4948008358478546,0.051312681287527084
1733461489502477000,2.94147705078125,-0.5057964324951172,-0.5412266254425049,0.18387043476104736
1733461489512508700,2.9515087890625,-0.5082398653030396,-0.5296201705932617,0.25473082065582275
1733461489522466000,2.961466064453125,-0.4807509481906891,-0.48747047781944275,0.26145032048225403
1733461489532497700,2.97149755859375,-0.4251621961593628,-0.4147774875164032,0.26083946228027344
1733461489542485800,2.98148583984375,-0.4202753007411957,-0.33292156457901,0.38667771220207214
1733461489552487000,2.99148681640625,-0.4758640229701996,-0.34574973583221436,0.5821545720100403
1733461489562474500,3.001474609375,-0.5338962078094482,-0.31154128909111023,0.8057312369346619
1733461489572506400,3.01150634765625,-0.5577199459075928,-0.26145032048225403,0.9847147464752197
1733461489582494200,3.021494140625,-0.5699372887611389,-0.23640485107898712,1.0592403411865234
1733461489592494000,3.031494140625,-0.5717698931694031,-0.25106561183929443,1.0018190145492554
1733461489602483200,3.041483154296875,-0.5363397002220154,-0.2638937830924988,0.8326093554496765
1733461489612513800,3.051513671875,-0.4386012554168701,-0.22663100063800812,0.43799036741256714
1733461489622472200,3.06147216796875,-0.37201693654060364,-0.1411098688840866,0.15332718193531036
1733461489632502800,3.071502685546875,-0.35735616087913513,-0.02321287989616394,-0.07819075137376785
1733461489642491600,3.08149169921875,-0.39584067463874817,0.11850785464048386,-0.20463985204696655
1733461489652493000,3.0914931640625,-0.41661009192466736,0.31031954288482666,-0.23273965716362
1733461489662480600,3.101480712890625,-0.42271876335144043,0.46670106053352356,-0.2125810980796814
1733461489672512300,3.11151220703125,-0.4489859640598297,0.5619960427284241,-0.20402899384498596
1733461489682469600,3.1214697265625,-0.5015203952789307,0.5772676467895508,-0.2321287989616394
1733461489692500700,3.131500732421875,-0.5900958180427551,0.5082398653030396,-0.3274237811565399
1733461489702489300,3.1414892578125,-0.6389650702476501,0.3927863538265228,-0.403781920671463
1733461489712489500,3.151489501953125,-0.6676757335662842,0.22296582162380219,-0.46853363513946533
1733461489722478600,3.161478515625,-0.656680166721344,0.03848451003432274,-0.5125159621238708
1733461489732508700,3.1715087890625,-0.6139195561408997,-0.1215621829032898,-0.5277875661849976
1733461489742467300,3.18146728515625,-0.5571091175079346,-0.22479841113090515,-0.5076290369033813
1733461489752498700,3.191498779296875,-0.4954117238521576,-0.2779437005519867,-0.4544837474822998
1733461489762486800,3.20148681640625,-0.4178318381309509,-0.28527405858039856,-0.3500257730484009
1733461489772487400,3.2114873046875,-0.3646865487098694,-0.2535090744495392,-0.2785545587539673
1733461489782475800,3.221475830078125,-0.2987131178379059,-0.21991148591041565,-0.2028072625398636
1733461489792507100,3.231507080078125,-0.22663100063800812,-0.192422553896904,-0.12889257073402405
1733461489802465000,3.241465087890625,-0.15393804013729095,-0.17898350954055786,-0.06536258012056351
1733461489812496100,3.25149609375,-0.08979719132184982,-0.17287486791610718,-0.025045474991202354
1733461489822484500,3.261484375,-0.04703662544488907,-0.1466076523065567,-0.012217304669320583
1733461489832515600,3.271515625,-0.00855211354792118,-0.09773843735456467,-0.03726277872920036
1733461489842473500,3.281473388671875,0.005497787147760391,-0.0659734457731247,-0.07696902006864548
1733461489852504300,3.29150439453125,0.012828170321881771,-0.02626720629632473,-0.12278391420841217
1733461489862493200,3.3014931640625,0.01771509274840355,0.006719517521560192,-0.15760323405265808
1733461489872493600,3.31149365234375,0.012828170321881771,0.029932396486401558,-0.16920967400074005
1733461489882482000,3.32148193359375,0.004886921960860491,0.05742133408784866,-0.16249015927314758
1733461489892513000,3.331512939453125,-0.00855211354792118,0.09773843735456467,-0.14355333149433136
1733461489902471200,3.34147119140625,-0.02015855349600315,0.1362229436635971,-0.1215621829032898
1733461489912502300,3.351502197265625,-0.03787364438176155,0.182648703455925,-0.1014036312699318
1733461489922490600,3.36149072265625,-0.04459316283464432,0.18387043476104736,-0.1007927656173706
1733461489932491300,3.3714912109375,-0.0507018156349659,0.15577064454555511,-0.11056660860776901
1733461489942479600,3.381479736328125,-0.05253441259264946,0.10262536257505417,-0.12400564551353455
1733461489952510700,3.3915107421875,-0.06230825558304787,0.060475658625364304,-0.14355333149433136
1733461489962468600,3.401468505859375,-0.08124507963657379,0.03481931984424591,-0.16982053220272064
1733461489972499500,3.41149951171875,-0.10995574295520782,-0.0012217304902151227,-0.19914206862449646
1733461489982488300,3.42148828125,-0.17409659922122955,-0.07941248267889023,-0.22846360504627228
1733461489992489500,3.431489501953125,-0.22540926933288574,-0.08491026610136032,-0.22968533635139465
1733461490002477300,3.441477294921875,-0.26572638750076294,-0.04398229718208313,-0.20341812074184418
1733461490012509200,3.45150927734375,-0.2840523421764374,0.03420845419168472,-0.1417207419872284
1733461490022466300,3.46146630859375,-0.26939156651496887,0.14844025671482086,-0.05192354694008827
1733461490032497700,3.47149755859375,-0.22907446324825287,0.2785545587539673,0.048258353024721146
1733461490042485800,3.48148583984375,-0.18325957655906677,0.39706242084503174,0.1258382350206375
1733461490052486400,3.491486328125,-0.1215621829032898,0.5369505286216736,0.1472185254096985
1733461490062474800,3.501474853515625,-0.08246681094169617,0.5949827432632446,0.08124507963657379
1733461490072506600,3.511506591796875,-0.0354301854968071,0.6102544069290161,-0.04337143152952194
1733461490082494200,3.521494140625,0.004886921960860491,0.5742133259773254,-0.18387043476104736
1733461490092495000,3.5314951171875,0.02626720629632473,0.44837507605552673,-0.26083946228027344
1733461490102483200,3.541483154296875,0.018325956538319588,0.26572638750076294,-0.21013765037059784
1733461490112513300,3.55151318359375,-0.02321287989616394,0.02687807008624077,0.025656340643763542
1733461490122471400,3.561471435546875,-0.11911872029304504,-0.27122417092323303,0.45753806829452515
1733461490132502800,3.571502685546875,-0.2687807083129883,-0.5717698931694031,1.2571606636047363
1733461490142491000,3.581490966796875,-0.26572638750076294,-0.5516113042831421,1.7189748287200928
1733461490152492000,3.591491943359375,-0.24495697021484375,-0.4001167416572571,2.0305161476135254
1733461490162479900,3.60147998046875,-0.19792033731937408,-0.18875735998153687,2.163684606552124
1733461490172512300,3.61151220703125,-0.11362093687057495,0.03481931984424591,2.0891592502593994
1733461490182468900,3.62146875,-0.02382374368607998,0.294437050819397,1.7916678190231323
1733461490192275200,3.631275146484375,0.04886921867728233,0.5571091175079346,1.330464482307434
1733461490202567200,3.641567138671875,0.15882496535778046,0.49785518646240234,0.5455026626586914
1733461490212490000,3.651489990234375,0.16065755486488342,0.2724458873271942,0.054367005825042725
1733461490222478300,3.661478271484375,0.09896016865968704,0.006108652334660292,-0.35552358627319336
1733461490232510000,3.671510009765625,0,-0.24190263450145721,-0.6352998614311218
1733461490242467300,3.68146728515625,-0.1362229436635971,-0.44654250144958496,-0.7776314616203308
1733461490252499200,3.691499267578125,-0.2974913716316223,-0.5564982295036316,-0.7947356700897217
1733461490262486800,3.70148681640625,-0.4502076804637909,-0.5974262356758118,-0.7122688889503479
1733461490272488000,3.711488037109375,-0.6450737118721008,-0.5357288122177124,-0.5076290369033813
1733461490282475800,3.721475830078125,-0.7513642311096191,-0.4502076804637909,-0.3799581825733185
1733461490292507600,3.731507568359375,-0.8197811841964722,-0.3677408695220947,-0.2767219543457031
1733461490302464800,3.74146484375,-0.8503243923187256,-0.2981022298336029,-0.1973094791173935
1733461490312496000,3.75149609375,-0.8521569967269897,-0.24129177629947662,-0.1459967941045761
1733461490322484500,3.761484375,-0.8423831462860107,-0.21991148591041565,-0.12095131725072861
1733461490332515800,3.771515869140625,-0.8252789378166199,-0.2620611786842346,-0.10934487730264664
1733461490342473500,3.781473388671875,-0.817948579788208,-0.31581732630729675,-0.10384709388017654
1733461490352504800,3.7915048828125,-0.8387179970741272,-0.37690386176109314,-0.07635815441608429
1733461490362493000,3.801492919921875,-0.8625417351722717,-0.4251621961593628,-0.03237585723400116
1733461490372493600,3.81149365234375,-0.8936958312988281,-0.4599815309047699,0.009162978269159794
1733461490382482000,3.82148193359375,-0.9321803450584412,-0.47219884395599365,0.04886921867728233
1733461490392513000,3.831512939453125,-0.9755517840385437,-0.46181413531303406,0.08368854224681854
1733461490402471000,3.841470947265625,-1.0170906782150269,-0.4184426963329315,0.1264491081237793
1733461490412502300,3.851502197265625,-1.0561859607696533,-0.3597996234893799,0.1722639948129654
1733461490422490600,3.86149072265625,-1.1142182350158691,-0.2883284091949463,0.24678955972194672
1733461490432491500,3.871491455078125,-1.1533136367797852,-0.2736676335334778,0.2968805134296417
1733461490442479600,3.881479736328125,-1.1905763149261475,-0.2724458873271942,0.3390302062034607
1733461490452510700,3.8915107421875,-1.2235630750656128,-0.2883284091949463,0.3634648323059082
1733461490462468400,3.90146826171875,-1.2583824396133423,-0.3072652220726013,0.36651915311813354
1733461490472500500,3.91150048828125,-1.2974777221679688,-0.3219259977340698,0.3396410644054413
1733461490482488000,3.921488037109375,-1.3475687503814697,-0.33108896017074585,0.29016098380088806
1733461490492489200,3.9314892578125,-1.436144232749939,-0.3292563557624817,0.17043140530586243
1733461490502477000,3.94147705078125,-1.4972307682037354,-0.3488040566444397,0.08307767659425735
1733461490512508700,3.9515087890625,-1.55892813205719,-0.39156460762023926,0.012828170321881771
1733461490522466300,3.96146630859375,-1.6157386302947998,-0.44654250144958496,-0.02321287989616394
1733461490532498000,3.971497802734375,-1.6664403676986694,-0.4905247986316681,-0.019547687843441963
1733461490542485500,3.981485595703125,-1.7153096199035645,-0.49235737323760986,0.02626720629632473
1733461490552487000,3.99148681640625,-1.7550158500671387,-0.44654250144958496,0.10873401165008545
1733461490562474500,4.001474609375,-1.777006983757019,-0.37751471996307373,0.2015855312347412
1733461490572506400,4.01150634765625,-1.80510675907135,-0.32009339332580566,0.25045475363731384
1733461490582494200,4.021494140625,-1.8374826908111572,-0.3182607889175415,0.1716531366109848
1733461490592494000,4.031494140625,-1.8961256742477417,-0.3933972120285034,0.003054326167330146
1733461490602483200,4.041483154296875,-1.976759910583496,-0.49724429845809937,-0.2021963894367218
1733461490612515000,4.05151513671875,-2.037846565246582,-0.5876523852348328,-0.34208452701568604
1733461490622472200,4.06147216796875,-2.065946340560913,-0.7910705208778381,-0.3927863538265228
1733461490632504000,4.071504150390625,-2.13008713722229,-0.9431759119033813,-0.37690386176109314
1733461490642491600,4.08149169921875,-2.1765129566192627,-0.9871582388877869,-0.19425514340400696
1733461490652493000,4.0914931640625,-2.166128158569336,-0.8924741148948669,-0.02382374368607998
1733461490662480600,4.101480712890625,-2.1252002716064453,-0.6994407176971436,0.12950342893600464
1733461490672512500,4.111512451171875,-2.0665571689605713,-0.48319441080093384,0.23457226157188416
1733461490682469600,4.1214697265625,-2.0109684467315674,-0.33108896017074585,0.28099802136421204
1733461490692501800,4.131501708984375,-1.9712620973587036,-0.2626720666885376,0.2773328125476837
1733461490702489300,4.1414892578125,-1.9614882469177246,-0.2480112910270691,0.2535090744495392
1733461490712490500,4.151490478515625,-1.9993619918823242,-0.28588494658470154,0.22602014243602753
1733461490722478300,4.161478271484375,-2.052507162094116,-0.30604347586631775,0.22052235901355743
1733461490732510200,4.17151025390625,-2.118480682373047,-0.3084869384765625,0.20952677726745605
1733461490742467300,4.18146728515625,-2.186286687850952,-0.30970868468284607,0.17837265133857727
1733461490752499200,4.191499267578125,-2.2406537532806396,-0.2938261926174164,0.11484266817569733
1733461490762486800,4.20148681640625,-2.2773056030273438,-0.23029619455337524,0.01466076634824276
1733461490772488000,4.211488037109375,-2.272418737411499,-0.24556782841682434,-0.1160643994808197
1733461490782476000,4.22147607421875,-2.2516493797302246,-0.31093040108680725,-0.27977627515792847
1733461490792507600,4.231507568359375,-2.182621479034424,-0.44165557622909546,-0.53328537940979
1733461490802464800,4.24146484375,-2.1111502647399902,-0.5326744914054871,-0.6633996367454529
1733461490812496600,4.25149658203125,-2.0622811317443848,-0.6860016584396362,-0.7360926270484924
1733461490822484500,4.261484375,-2.043344259262085,-0.7929030656814575,-0.7189884185791016
1733461490832516400,4.271516357421875,-2.0115792751312256,-0.8020660877227783,-0.618195652961731
1733461490842473500,4.281473388671875,-1.974927306175232,-0.7898487448692322,-0.4612032473087311
1733461490852505300,4.29150537109375,-1.958433985710144,-0.7941248416900635,-0.2926044464111328
1733461490862493000,4.301492919921875,-1.947438359260559,-0.7751879692077637,-0.09224065393209457
1733461490872494600,4.31149462890625,-1.9449949264526367,-0.7666358947753906,-0.009773843921720982
1733461490882482000,4.32148193359375,-1.9443840980529785,-0.7727445363998413,0.03726277872920036
1733461490892513800,4.331513671875,-1.9535470008850098,-0.7678576111793518,0.05009094998240471
1733461490902471000,4.341470947265625,-1.966986060142517,-0.7525860071182251,0.039095375686883926
1733461490912502000,4.351501953125,-1.974927306175232,-0.7336491346359253,0.02321287989616394
1733461490922490600,4.36149072265625,-1.977981686592102,-0.7018841505050659,-0.0006108652451075613
1733461490932491000,4.371490966796875,-1.968207836151123,-0.6420193910598755,-0.04337143152952194
1733461490942479600,4.381479736328125,-1.9394971132278442,-0.598647952079773,-0.07635815441608429
1733461490952510700,4.3915107421875,-1.8936822414398193,-0.5455026626586914,-0.10751228034496307
1733461490962468900,4.40146875,-1.8399261236190796,-0.49296826124191284,-0.13988813757896423
1733461490972499700,4.411499755859375,-1.7837265729904175,-0.475253164768219,-0.17959438264369965
1733461490982488000,4.421488037109375,-1.7165313959121704,-0.44654250144958496,-0.22968533635139465
1733461490992489700,4.43148974609375,-1.6371188163757324,-0.42271876335144043,-0.2938261926174164
1733461491002477300,4.441477294921875,-1.5558737516403198,-0.3683517575263977,-0.3628539443016052
1733461491012509200,4.45150927734375,-1.4489723443984985,-0.2541199326515198,-0.4434881806373596
1733461491022466300,4.46146630859375,-1.4135421514511108,-0.17898350954055786,-0.4703662395477295
1733461491032498200,4.471498291015625,-1.4049900770187378,-0.1007927656173706,-0.46242499351501465
1733461491042486000,4.481486083984375,-1.4043792486190796,-0.01466076634824276,-0.4337143301963806
1733461491052486400,4.491486328125,-1.4104878902435303,0.060475658625364304,-0.394008070230484
1733461491062474800,4.501474853515625,-1.4110987186431885,0.09651670604944229,-0.35735616087913513
1733461491072506000,4.511506103515625,-1.4159855842590332,0.08674286305904388,-0.32986724376678467
1733461491082494200,4.521494140625,-1.4080443382263184,0.03237585723400116,-0.30970868468284607
1733461491092494800,4.531494873046875,-1.3933836221694946,0.006108652334660292,-0.3017674386501312
1733461491102483500,4.5414833984375,-1.3756685256958008,-0.009162978269159794,-0.28955012559890747
1733461491112512800,4.5515126953125,-1.3432927131652832,-0.00427605677396059,-0.2669481039047241
1733461491122471200,4.56147119140625,-1.2950342893600464,0.00855211354792118,-0.2278527319431305
1733461491132502800,4.571502685546875,-1.2345587015151978,0.018325956538319588,-0.17837265133857727
1733461491142491000,4.581490966796875,-1.1661417484283447,0.009773843921720982,-0.13072516024112701
1733461491152491500,4.591491455078125,-1.0574077367782593,-0.01771509274840355,-0.08429940044879913
1733461491162479900,4.60147998046875,-0.978606104850769,-0.04398229718208313,-0.07391469180583954
1733461491172511000,4.611510986328125,-0.8936958312988281,-0.0757472887635231,-0.07208210229873657
1733461491182468900,4.62146875,-0.8063421249389648,-0.12889257073402405,-0.06658431142568588
1733461491192500500,4.63150048828125,-0.7281513810157776,-0.16432274878025055,-0.04703662544488907
1733461491202518500,4.6415185546875,-0.6646214127540588,-0.18020524084568024,-0.00366519158706069
1733461491212490000,4.651489990234375,-0.6163630485534668,-0.18325957655906677,0.0708603709936142
1733461491222478300,4.661478271484375,-0.5772676467895508,-0.18448130786418915,0.1618792861700058
1733461491232509700,4.671509765625,-0.5057964324951172,-0.12278391420841217,0.27977627515792847
1733461491242467300,4.68146728515625,-0.44165557622909546,-0.042760565876960754,0.3225368559360504
1733461491252498700,4.691498779296875,-0.3677408695220947,0.03787364438176155,0.33047810196876526
1733461491262486800,4.70148681640625,-0.294437050819397,0.11850785464048386,0.29993483424186707
1733461491272487200,4.711487060546875,-0.21930062770843506,0.1966986060142517,0.2370157092809677
1733461491282475800,4.721475830078125,-0.1411098688840866,0.2583959996700287,0.16004669666290283
1733461491292507600,4.731507568359375,-0.05253441259264946,0.34758231043815613,0.10567969083786011
1733461491302465000,4.741465087890625,0.02687807008624077,0.30604347586631775,0.13927727937698364
1733461491312496400,4.751496337890625,0.01466076634824276,0.1875356286764145,0.26511552929878235
1733461491322484500,4.761484375,-0.04337143152952194,-0.01466076634824276,0.4758640229701996
1733461491332516000,4.77151611328125,-0.14905111491680145,-0.26450464129447937,0.7617489695549011
1733461491342473500,4.781473388671875,-0.2565633952617645,-0.46547931432724,1.0958921909332275
1733461491352505000,4.791505126953125,-0.33475416898727417,-0.6004805564880371,1.4282029867172241
1733461491362493000,4.801492919921875,-0.3677408695220947,-0.6090326309204102,1.700037956237793
1733461491372492800,4.811492919921875,-0.34086281061172485,-0.4758640229701996,1.9199494123458862
1733461491382482000,4.82148193359375,-0.2987131178379059,-0.3023782968521118,1.8820757865905762
1733461491392514600,4.8315146484375,-0.251676470041275,-0.1264491081237793,1.653001308441162
1733461491402471200,4.84147119140625,-0.20036379992961884,-0.02321287989616394,1.2754865884780884
1733461491412503600,4.851503662109375,-0.15332718193531036,-0.00855211354792118,0.8136724829673767
1733461491422490600,4.86149072265625,-0.11362093687057495,0.02382374368607998,0.3494149148464203
1733461491432490500,4.871490478515625,-0.05925392732024193,-0.07757988572120667,-0.02321287989616394
1733461491442479600,4.881479736328125,-0.04764748737215996,-0.13805554807186127,-0.27488934993743896
1733461491452511200,4.89151123046875,-0.13866640627384186,-0.13988813757896423,-0.4086688458919525
1733461491462468400,4.90146826171875,-0.21319197118282318,-0.04948008432984352,-0.3781255781650543
1733461491472499700,4.911499755859375,-0.2791654169559479,0.00733038317412138,-0.3170390725135803
1733461491482488000,4.921488037109375,-0.3378084897994995,-0.0006108652451075613,-0.27122417092323303
1733461491492488200,4.93148828125,-0.39645153284072876,-0.00427605677396059,-0.2681698501110077
1733461491502477000,4.94147705078125,-0.42760565876960754,-0.059864792972803116,-0.31154128909111023
1733461491512507600,4.951507568359375,-0.423329621553421,-0.16798794269561768,-0.3854559659957886
1733461491522466300,4.96146630859375,-0.3634648323059082,-0.3628539443016052,-0.4996877610683441
1733461491532496400,4.971496337890625,-0.29077184200286865,-0.4544837474822998,-0.5473352670669556
1733461491542485800,4.98148583984375,-0.1973094791173935,-0.513737678527832,-0.5314527750015259
1733461491552486100,4.991486083984375,-0.10751228034496307,-0.5186246037483215,-0.4502076804637909
1733461491562474800,5.001474853515625,-0.04153883829712868,-0.49785518646240234,-0.32131510972976685
1733461491572505600,5.011505615234375,0.013439035043120384,-0.46670106053352356,-0.17409659922122955
1733461491582494200,5.021494140625,0.06169738993048668,-0.41599923372268677,-0.04092797264456749
1733461491592494600,5.03149462890625,0.11850785464048386,-0.3323107063770294,0.08124507963657379
1733461491602483200,5.041483154296875,0.13805554807186127,-0.28588494658470154,0.10445795953273773
1733461491612514300,5.051514404296875,0.14477506279945374,-0.2474004179239273,0.08796459436416626
1733461491622472200,5.06147216796875,0.14416420459747314,-0.19608774781227112,0.04948008432984352
1733461491632503600,5.071503662109375,0.1362229436635971,-0.13439035415649414,0.003054326167330146
1733461491642491600,5.08149169921875,0.12095131725072861,-0.08429940044879913,-0.04092797264456749
1733461491652492800,5.091492919921875,0.10934487730264664,-0.06963863968849182,-0.08368854224681854
1733461491662480600,5.101480712890625,0.09896016865968704,-0.06658431142568588,-0.12278391420841217
1733461491672511700,5.11151171875,0.09040805697441101,-0.03848451003432274,-0.17959438264369965
1733461491682469600,5.1214697265625,0.08674286305904388,-0.007941247895359993,-0.20891591906547546
1733461491692501000,5.1315009765625,0.08857546001672745,0.02076941914856434,-0.21930062770843506
1733461491702489300,5.1414892578125,0.10201449692249298,0.022602014243602753,-0.21013765037059784
1733461491712490000,5.151489990234375,0.11728613078594208,-0.024434609338641167,-0.19547687470912933
1733461491722478300,5.161478271484375,0.13561208546161652,-0.10812314599752426,-0.18631389737129211
1733461491732509400,5.171509521484375,0.16004669666290283,-0.21502456068992615,-0.17959438264369965
1733461491742467300,5.18146728515625,0.19120082259178162,-0.36713001132011414,-0.16798794269561768
1733461491752498200,5.191498291015625,0.2028072625398636,-0.4337143301963806,-0.16004669666290283
1733461491762486800,5.20148681640625,0.2125810980796814,-0.48258355259895325,-0.15821409225463867
1733461491772487400,5.2114873046875,0.21319197118282318,-0.5186246037483215,-0.17043140530586243
1733461491782476300,5.221476318359375,0.19914206862449646,-0.5516113042831421,-0.20463985204696655
1733461491792507000,5.2315068359375,0.16371189057826996,-0.5705481171607971,-0.27550023794174194
1733461491802464800,5.24146484375,0.11850785464048386,-0.5351179838180542,-0.37690386176109314
1733461491812496100,5.25149609375,0.021991148591041565,-0.39767327904701233,-0.4905247986316681
1733461491822484500,5.261484375,-0.059864792972803116,-0.29565876722335815,-0.4960225820541382
1733461491832516000,5.27151611328125,-0.1466076523065567,-0.1765400618314743,-0.43127086758613586
1733461491842473500,5.281473388671875,-0.19792033731937408,-0.06291911751031876,-0.3182607889175415
1733461491852505000,5.291505126953125,-0.24190263450145721,-0.036651913076639175,-0.2070833146572113
1733461491862493000,5.301492919921875,-0.2822197377681732,-0.05803219974040985,-0.12461651116609573
1733461491872494300,5.311494384765625,-0.30604347586631775,-0.12889257073402405,-0.054367005825042725
1733461491882482000,5.32148193359375,-0.3127630054950714,-0.21563543379306793,0.02076941914856434
1733461491892513800,5.331513671875,-0.2565633952617645,-0.251676470041275,0.12828169763088226
1733461491902471200,5.34147119140625,-0.14966198801994324,-0.22907446324825287,0.1722639948129654
1733461491912502800,5.351502685546875,-0.0507018156349659,-0.24617868661880493,0.18936823308467865
1733461491922490600,5.36149072265625,0.004886921960860491,-0.2993239760398865,0.17409659922122955
1733461491932491800,5.37149169921875,0.028099801391363144,-0.3549126982688904,0.17959438264369965
1733461491942480000,5.38147998046875,0.01466076634824276,-0.3891211748123169,0.25106561183929443
1733461491952511200,5.39151123046875,-0.03176499158143997,-0.3927863538265228,0.423329621553421
1733461491962468900,5.40146875,-0.12095131725072861,-0.3121521472930908,0.8509352803230286
1733461491972500500,5.41150048828125,-0.15943582355976105,-0.26083946228027344,1.179580807685852
1733461491982488000,5.421488037109375,-0.17043140530586243,-0.2590068578720093,1.4410310983657837
1733461491992489500,5.431489501953125,-0.2119702398777008,-0.2987131178379059,1.531439185142517
1733461492002477300,5.441477294921875,-0.29138273000717163,-0.2938261926174164,1.4288138151168823
1733461492012507600,5.451507568359375,-0.2871066629886627,-0.33597588539123535,1.2205088138580322
1733461492022466300,5.46146630859375,-0.2064724564552307,-0.34208452701568604,0.9388998746871948
1733461492032499000,5.4714990234375,-0.08979719132184982,-0.02871066704392433,0.3341432809829712
1733461492042485800,5.48148583984375,-0.07269296050071716,0.23151792585849762,-0.06658431142568588
1733461492052485600,5.491485595703125,-0.10201449692249298,0.4398229718208313,-0.32986724376678467
1733461492062474800,5.501474853515625,-0.16982053220272064,0.6139195561408997,-0.44165557622909546
1733461492072506600,5.511506591796875,-0.2535090744495392,0.759916365146637,-0.44165557622909546
1733461492082494200,5.521494140625,-0.33169981837272644,0.8460483551025391,-0.3952298164367676
1733461492092495400,5.531495361328125,-0.4178318381309509,0.827722430229187,-0.37079519033432007
1733461492102483500,5.5414833984375,-0.513737678527832,0.8057312369346619,-0.3604104816913605
1733461492112512300,5.55151220703125,-0.5668829679489136,0.6053674817085266,-0.32070425152778625
1733461492122471200,5.56147119140625,-0.5723807215690613,0.4031710624694824,-0.31031954288482666
1733461492132502500,5.57150244140625,-0.5522221922874451,0.1875356286764145,-0.31581732630729675
1733461492142491000,5.581490966796875,-0.5070181488990784,0.01710422709584236,-0.3488040566444397
1733461492152491000,5.591490966796875,-0.4349360466003418,-0.1007927656173706,-0.39156460762023926
1733461492162479900,5.60147998046875,-0.3494149148464203,-0.16310101747512817,-0.4300491213798523
1733461492172511000,5.611510986328125,-0.27122417092323303,-0.18020524084568024,-0.4447098970413208
1733461492182468900,5.62146875,-0.18081611394882202,-0.19425514340400696,-0.41233405470848083
1733461492192500000,5.6315,-0.13500121235847473,-0.1966986060142517,-0.36529740691185
1733461492202488600,5.641488525390625,-0.09834930300712585,-0.17470745742321014,-0.3127630054950714
1733461492212489700,5.65148974609375,-0.0708603709936142,-0.1466076523065567,-0.2638937830924988
1733461492222478300,5.661478271484375,-0.0555887371301651,-0.13316862285137177,-0.22052235901355743
1733461492232509400,5.671509521484375,-0.05314527451992035,-0.13927727937698364,-0.18936823308467865
1733461492242467300,5.68146728515625,-0.0555887371301651,-0.152105450630188,-0.17104226350784302
1733461492252498400,5.69149853515625,-0.048258353024721146,-0.15882496535778046,-0.16249015927314758
1733461492262487000,5.701487060546875,-0.04703662544488907,-0.1466076523065567,-0.1618792861700058
1733461492272487400,5.7114873046875,-0.04764748737215996,-0.13866640627384186,-0.16371189057826996
1733461492282475800,5.721475830078125,-0.05192354694008827,-0.13561208546161652,-0.1667662113904953
1733461492292507000,5.7315068359375,-0.05314527451992035,-0.12767083942890167,-0.17470745742321014
1733461492302465000,5.741465087890625,-0.05314527451992035,-0.10445795953273773,-0.1814269721508026
1733461492312496000,5.75149609375,-0.054367005825042725,-0.056810468435287476,-0.17348572611808777
1733461492322484500,5.761484375,-0.05619960278272629,0.01160643994808197,-0.15515977144241333
1733461492332515600,5.771515625,-0.05864306539297104,0.1362229436635971,-0.12339477986097336
1733461492342473700,5.7814736328125,-0.06230825558304787,0.18509216606616974,-0.1160643994808197
1733461492352504600,5.791504638671875,-0.06108652427792549,0.18814650177955627,-0.12522737681865692
1733461492362493000,5.801492919921875,-0.05803219974040985,0.16493362188339233,-0.15943582355976105
1733461492372493600,5.81149365234375,-0.05375614017248154,0.11545353382825851,-0.21807889640331268
1733461492382482000,5.82148193359375,-0.05375614017248154,0.04459316283464432,-0.2828305959701538
1733461492392513500,5.831513427734375,-0.05864306539297104,-0.03848451003432274,-0.32498031854629517
1733461492402471000,5.841470947265625,-0.08246681094169617,-0.1313360333442688,-0.28588494658470154
1733461492412502500,5.85150244140625,-0.09957103431224823,-0.12889257073402405,-0.1569923609495163
1733461492422490600,5.86149072265625,-0.0910189226269722,-0.0403171069920063,0.042760565876960754
1733461492432491300,5.8714912109375,-0.04092797264456749,0.10323622822761536,0.2681698501110077
1733461492442479600,5.881479736328125,0.042760565876960754,0.24373523890972137,0.4434881806373596
1733461492452510700,5.8915107421875,0.1417207419872284,0.38240164518356323,0.5174028873443604
1733461492462468600,5.901468505859375,0.23335053026676178,0.5106833577156067,0.494189977645874
1733461492472500500,5.91150048828125,0.33108896017074585,0.6004805564880371,0.32559117674827576
1733461492482488000,5.921488037109375,0.36102136969566345,0.5632177591323853,0.19547687470912933
1733461492492489200,5.9314892578125,0.3549126982688904,0.42699480056762695,0.14049901068210602
1733461492502477000,5.94147705078125,0.3084869384765625,0.21807889640331268,0.2119702398777008
1733461492512509200,5.95150927734375,0.23579397797584534,0.007941247895359993,0.4294382631778717
1733461492522466300,5.96146630859375,0.1765400618314743,-0.12767083942890167,0.769079327583313
1733461492532497700,5.97149755859375,0.1514945775270462,-0.18387043476104736,1.1539244651794434
1733461492542485800,5.98148583984375,0.14355333149433136,-0.16249015927314758,1.4776830673217773
1733461492552485400,5.9914853515625,0.1362229436635971,-0.022602014243602753,1.653001308441162
1733461492562474500,6.001474609375,0.1411098688840866,0.08246681094169617,1.5027284622192383
1733461492572507100,6.011507080078125,0.1618792861700058,0.1661553531885147,1.1643091440200806
1733461492582494200,6.021494140625,0.2076941877603531,0.20036379992961884,0.7018841505050659
1733461492592494300,6.031494384765625,0.26572638750076294,0.1466076523065567,0.21135938167572021
1733461492602483200,6.041483154296875,0.303600013256073,0.012828170321881771,-0.23273965716362
1733461492612514800,6.051514892578125,0.2791654169559479,-0.14416420459747314,-0.5839871764183044
1733461492622472400,6.061472412109375,0.16737708449363708,-0.47219884395599365,-0.8497135639190674
1733461492632504000,6.071504150390625,0.05009094998240471,-0.48685958981513977,-0.8533787727355957
1733461492642491600,6.08149169921875,-0.04764748737215996,-0.38179078698158264,-0.7434229850769043
1733461492652493000,6.0914931640625,-0.12034045159816742,-0.23335053026676178,-0.5925393104553223
1733461492662480600,6.101480712890625,-0.17531833052635193,-0.1264491081237793,-0.46303585171699524
1733461492672511500,6.111511474609375,-0.20586158335208893,-0.05314527451992035,-0.38667771220207214
1733461492682470000,6.121469970703125,-0.20402899384498596,-0.03481931984424591,-0.3640756905078888
1733461492692501000,6.1315009765625,-0.1612684279680252,-0.0959058403968811,-0.3646865487098694
1733461492702489300,6.1414892578125,-0.12828169763088226,-0.15821409225463867,-0.35246923565864563
1733461492712490000,6.151489990234375,-0.09162978827953339,-0.21441370248794556,-0.31093040108680725
1733461492722478300,6.161478271484375,-0.060475658625364304,-0.25045475363731384,-0.23457226157188416
1733461492732509400,6.171509521484375,-0.036651913076639175,-0.2828305959701538,-0.13866640627384186
1733461492742467300,6.18146728515625,-0.02076941914856434,-0.3066543638706207,-0.04092797264456749
1733461492752498400,6.19149853515625,-0.006108652334660292,-0.3243694305419922,0.029932396486401558
1733461492762487000,6.201487060546875,0.009773843921720982,-0.32986724376678467,0.06536258012056351
1733461492772487400,6.2114873046875,0.039706241339445114,-0.2968805134296417,0.0555887371301651
1733461492782475800,6.221475830078125,0.051312681287527084,-0.23884831368923187,0.02626720629632473
1733461492792507000,6.2315068359375,0.06536258012056351,-0.16249015927314758,0.006108652334660292
1733461492802464800,6.24146484375,0.0757472887635231,-0.08124507963657379,-0.00733038317412138
1733461492812496100,6.25149609375,0.08307767659425735,-0.0006108652451075613,-0.015882495790719986
1733461492822484500,6.261484375,0.07880161702632904,0.06169738993048668,-0.01771509274840355
1733461492832515800,6.271515869140625,0.07147123664617538,0.10690141469240189,-0.01771509274840355
1733461492842473500,6.281473388671875,0.0555887371301651,0.13927727937698364,-0.02076941914856434
1733461492852504800,6.2915048828125,0.036651913076639175,0.13072516024112701,-0.018936822190880775
1733461492862493000,6.301492919921875,0.009773843921720982,0.10262536257505417,-0.022602014243602753
1733461492872493300,6.311493408203125,-0.022602014243602753,0.05314527451992035,-0.04337143152952194
1733461492882482000,6.32148193359375,-0.054367005825042725,-0.02321287989616394,-0.09712757170200348
1733461492892513000,6.331512939453125,-0.08429940044879913,-0.09896016865968704,-0.17287486791610718
1733461492902471200,6.34147119140625,-0.09224065393209457,-0.19058994948863983,-0.25106561183929443
1733461492912502000,6.351501953125,-0.056810468435287476,-0.17592918872833252,-0.34025195240974426
1733461492922490600,6.36149072265625,-0.016493361443281174,-0.03481931984424591,-0.34513887763023376
1733461492932491800,6.37149169921875,0.019547687843441963,0.17592918872833252,-0.2883284091949463
1733461492942480000,6.38147998046875,0.033597588539123535,0.39156460762023926,-0.19364428520202637
1733461492952511200,6.39151123046875,0.009773843921720982,0.5326744914054871,-0.09407325088977814
1733461492962468900,6.40146875,-0.042760565876960754,0.5436700582504272,-0.010995574295520782
1733461492972499700,6.411499755859375,-0.10751228034496307,0.42638394236564636,0.04703662544488907
1733461492982488000,6.421488037109375,-0.1661553531885147,0.2382374405860901,0.1007927656173706
1733461492992488700,6.43148876953125,-0.19058994948863983,-0.08857546001672745,0.18448130786418915
1733461493002477300,6.441477294921875,-0.16310101747512817,-0.2816088795661926,0.17959438264369965
1733461493012509000,6.451509033203125,-0.12522737681865692,-0.43737950921058655,0.1014036312699318
1733461493022466300,6.46146630859375,-0.07147123664617538,-0.5534439086914062,-0.0006108652451075613
1733461493032498000,6.471497802734375,-0.021380282938480377,-0.5968153476715088,-0.019547687843441963
1733461493042485800,6.48148583984375,-0.0012217304902151227,-0.5418374538421631,0.12034045159816742
1733461493052487000,6.49148681640625,-0.009773843921720982,-0.4196644127368927,0.4178318381309509
1733461493062474800,6.501474853515625,-0.06169738993048668,-0.2675589919090271,0.9944885969161987
1733461493072506600,6.511506591796875,-0.1062905490398407,-0.182648703455925,1.3054190874099731
1733461493082494200,6.521494140625,-0.1618792861700058,-0.16737708449363708,1.4593570232391357
1733461493092494300,6.531494384765625,-0.22113321721553802,-0.21380282938480377,1.4178181886672974
1733461493102483500,6.5414833984375,-0.26083946228027344,-0.2535090744495392,1.1746938228607178
1733461493112512000,6.551511962890625,-0.25534167885780334,-0.22663100063800812,0.7635815739631653
1733461493122471200,6.56147119140625,-0.1820378452539444,-0.07941248267889023,0.25534167885780334
1733461493132501800,6.571501708984375,0.06169738993048668,0.04153883829712868,-0.4807509481906891
1733461493142491000,6.581490966796875,0.20891591906547546,0.09773843735456467,-0.8429940342903137
1733461493152491800,6.59149169921875,0.27550023794174194,0.19792033731937408,-1.0225883722305298
1733461493162479900,6.60147998046875,0.24373523890972137,0.27061331272125244,-1.017701506614685
1733461493172511500,6.611511474609375,0.12950342893600464,0.3952298164367676,-0.8845328688621521
1733461493182468900,6.62146875,-0.01466076634824276,0.59803706407547,-0.6670648455619812
1733461493192500700,6.631500732421875,-0.13988813757896423,0.7202101349830627,-0.4202753007411957
1733461493202515200,6.64151513671875,-0.31031954288482666,0.6059783101081848,-0.13377949595451355
1733461493212489700,6.65148974609375,-0.4031710624694824,0.34697145223617554,-0.06414084881544113
1733461493222478300,6.661478271484375,-0.44776421785354614,0.051312681287527084,-0.09224065393209457
1733461493232509700,6.671509765625,-0.43737950921058655,-0.17776179313659668,-0.17287486791610718
1733461493242467300,6.68146728515625,-0.38728857040405273,-0.3549126982688904,-0.25473082065582275
1733461493252498700,6.691498779296875,-0.3292563557624817,-0.4740314185619354,-0.3127630054950714
1733461493262487000,6.701487060546875,-0.2687807083129883,-0.5174028873443604,-0.34147366881370544
1733461493272487000,6.71148681640625,-0.2064724564552307,-0.5247332453727722,-0.3500257730484009
1733461493282475800,6.721475830078125,-0.11545353382825851,-0.4306600093841553,-0.30054569244384766
1733461493292507000,6.7315068359375,-0.0708603709936142,-0.33719760179519653,-0.2370157092809677
1733461493302465000,6.741465087890625,-0.036041051149368286,-0.24190263450145721,-0.1667662113904953
1733461493312496000,6.75149609375,-0.01710422709584236,-0.13866640627384186,-0.0910189226269722
1733461493322484500,6.761484375,-0.006108652334660292,-0.02626720629632473,-0.010995574295520782
1733461493332515600,6.771515625,-0.0012217304902151227,0.05864306539297104,0.07391469180583954
1733461493342473500,6.781473388671875,-0.00855211354792118,0.10690141469240189,0.1368338167667389
1733461493352504600,6.791504638671875,-0.045204028487205505,0.1313360333442688,0.1661553531885147
1733461493362493000,6.801492919921875,-0.0708603709936142,0.11911872029304504,0.1411098688840866
1733461493372493600,6.81149365234375,-0.08979719132184982,0.09407325088977814,0.1062905490398407
1733461493382482000,6.82148193359375,-0.10384709388017654,0.0708603709936142,0.08552113175392151
1733461493392513300,6.83151318359375,-0.11972958594560623,0.07635815441608429,0.07941248267889023
1733461493402471000,6.841470947265625,-0.13561208546161652,0.13439035415649414,0.08307767659425735
1733461493412502300,6.851502197265625,-0.1417207419872284,0.25595253705978394,0.07635815441608429
1733461493422490600,6.86149072265625,-0.13439035415649414,0.4105014503002167,0.027488935738801956
1733461493432491500,6.871491455078125,-0.09896016865968704,0.6298020482063293,-0.12889257073402405
1733461493442479600,6.881479736328125,-0.03848451003432274,0.8106181621551514,-0.22663100063800812
1733461493452510500,6.891510498046875,0.02932153269648552,0.9260717034339905,-0.24984388053417206
1733461493462468400,6.90146826171875,0.06658431142568588,0.8759807348251343,-0.15760323405265808
1733461493472500000,6.9115,0.05375614017248154,0.7079927921295166,0.04398229718208313
1733461493482488000,6.921488037109375,0.02076941914856434,0.4789183437824249,0.32070425152778625
1733461493492489000,6.931489013671875,0.00427605677396059,0.23090706765651703,0.5955936312675476
1733461493502477000,6.94147705078125,0.056810468435287476,-0.0555887371301651,0.8197811841964722
1733461493512508200,6.951508056640625,0.12522737681865692,-0.14233160018920898,0.797789990901947
1733461493522466300,6.96146630859375,0.17959438264369965,-0.14966198801994324,0.6572909951210022
1733461493532496400,6.971496337890625,0.22357667982578278,-0.11056660860776901,0.4282165467739105
1733461493542485800,6.98148583984375,0.26450464129447937,-0.04948008432984352,0.12461651116609573
1733461493552485600,6.991485595703125,0.3029891550540924,-0.02687807008624077,-0.1771509200334549
1733461493562474500,7.001474609375,0.33719760179519653,-0.11484266817569733,-0.3488040566444397
1733461493572506400,7.01150634765625,0.304210901260376,-0.38179078698158264,-0.2321287989616394
1733461493582494200,7.021494140625,0.23335053026676178,-0.4990769028663635,0.07635815441608429
1733461493592495000,7.0314951171875,0.1569923609495163,-0.49235737323760986,0.48319441080093384
1733461493602483200,7.041483154296875,0.08552113175392151,-0.43127086758613586,0.8527678847312927
1733461493612513800,7.051513671875,0.02382374368607998,-0.37568211555480957,1.074512004852295
1733461493622472200,7.06147216796875,-0.036651913076639175,-0.294437050819397,1.103833556175232
1733461493632504800,7.0715048828125,-0.05803219974040985,-0.24678955972194672,0.9388998746871948
1733461493642491600,7.08149169921875,-0.039095375686883926,-0.25595253705978394,0.6212499737739563
1733461493652493600,7.09149365234375,0.054367005825042725,-0.3335324227809906,0.006719517521560192
1733461493662480600,7.101480712890625,0.12095131725072861,-0.423329621553421,-0.3744603991508484
1733461493672512500,7.111512451171875,0.12217304855585098,-0.5204572081565857,-0.6298020482063293
1733461493682469600,7.1214697265625,0.05742133408784866,-0.5894849896430969,-0.7134906053543091
1733461493692501500,7.13150146484375,-0.03420845419168472,-0.5351179838180542,-0.6298020482063293
1733461493702489300,7.1414892578125,-0.11484266817569733,-0.3732386529445648,-0.4386012554168701
1733461493712490500,7.151490478515625,-0.16737708449363708,-0.17409659922122955,-0.2370157092809677
1733461493722478300,7.161478271484375,-0.17898350954055786,0.00427605677396059,-0.06169738993048668
1733461493732509400,7.171509521484375,-0.17470745742321014,0.04459316283464432,-0.059864792972803116
1733461493742467300,7.18146728515625,-0.16554448008537292,0.03726277872920036,-0.12400564551353455
1733461493752498700,7.191498779296875,-0.14782938361167908,-0.00427605677396059,-0.2028072625398636
1733461493762487000,7.201487060546875,-0.12217304855585098,-0.056810468435287476,-0.25106561183929443
1733461493772487400,7.2114873046875,-0.08796459436416626,-0.11362093687057495,-0.2590068578720093
1733461493782476000,7.22147607421875,-0.045204028487205505,-0.16249015927314758,-0.22907446324825287
1733461493792507000,7.2315068359375,-0.006719517521560192,-0.23029619455337524,-0.13316862285137177
1733461493802464800,7.24146484375,0.00855211354792118,-0.28955012559890747,-0.06352998316287994
1733461493812496100,7.25149609375,0.01771509274840355,-0.33292156457901,-0.00855211354792118
1733461493822484500,7.261484375,0.01771509274840355,-0.3543018400669098,0.03237585723400116
1733461493832515600,7.271515625,0.01038470957428217,-0.35674530267715454,0.06108652427792549
1733461493842473500,7.281473388671875,0.0006108652451075613,-0.33597588539123535,0.07819075137376785
1733461493852504300,7.29150439453125,-0.007941247895359993,-0.31031954288482666,0.08674286305904388
1733461493862493200,7.3014931640625,-0.01710422709584236,-0.2919935882091522,0.09285151958465576
1733461493872493600,7.31149365234375,-0.031154127791523933,-0.25595253705978394,0.08124507963657379
1733461493882482000,7.32148193359375,-0.03298672288656235,-0.22113321721553802,0.06780604273080826
1733461493892513000,7.331512939453125,-0.033597588539123535,-0.1875356286764145,0.0555887371301651
1733461493902471200,7.34147119140625,-0.03726277872920036,-0.1411098688840866,0.04214970022439957
1733461493912502000,7.351501953125,-0.04337143152952194,-0.09834930300712585,0.04459316283464432
1733461493922490600,7.36149072265625,-0.05253441259264946,-0.06414084881544113,0.0555887371301651
1733461493932491300,7.3714912109375,-0.06169738993048668,-0.027488935738801956,0.0659734457731247
1733461493942479600,7.381479736328125,-0.06658431142568588,0.02871066704392433,0.039095375686883926
1733461493952511000,7.391510986328125,-0.05742133408784866,0.06230825558304787,-0.019547687843441963
1733461493962468600,7.401468505859375,-0.030543262138962746,0.10018189996480942,-0.11301007121801376
1733461493972499700,7.411499755859375,0.01710422709584236,0.18081611394882202,-0.22357667982578278
1733461493982488300,7.42148828125,0.0659734457731247,0.31154128909111023,-0.31031954288482666
1733461493992488700,7.43148876953125,0.09040805697441101,0.43188172578811646,-0.3390302062034607
1733461494002477300,7.441477294921875,0.08246681094169617,0.5424483418464661,-0.33047810196876526
1733461494012509200,7.45150927734375,0.028099801391363144,0.5589417219161987,-0.2724458873271942
1733461494022466300,7.46146630859375,-0.021380282938480377,0.39095374941825867,-0.21807889640331268
1733461494032498000,7.471497802734375,-0.07452555745840073,0.10934487730264664,-0.1313360333442688
1733461494042486000,7.481486083984375,-0.10384709388017654,-0.23579397797584534,0.00855211354792118
1733461494052487000,7.49148681640625,-0.11728613078594208,-0.5149593949317932,0.1514945775270462
1733461494062474800,7.501474853515625,-0.12217304855585098,-0.6572909951210022,0.24129177629947662
1733461494072506600,7.511506591796875,-0.14477506279945374,-0.6994407176971436,0.27061331272125244
1733461494082494200,7.521494140625,-0.18020524084568024,-0.6340781450271606,0.24678955972194672
1733461494092495400,7.531495361328125,-0.20891591906547546,-0.43188172578811646,0.21563543379306793
1733461494102483500,7.5414833984375,-0.21135938167572021,-0.2834414839744568,0.28466320037841797
1733461494112513000,7.551512939453125,-0.21563543379306793,-0.18020524084568024,0.43127086758613586
1733461494122471200,7.56147119140625,-0.22357667982578278,-0.11362093687057495,0.5998696684837341
1733461494132503000,7.5715029296875,-0.22540926933288574,-0.07757988572120667,0.7257078886032104
1733461494142491000,7.581490966796875,-0.22296582162380219,-0.07452555745840073,0.7623597979545593
1733461494152490500,7.591490478515625,-0.20402899384498596,-0.10384709388017654,0.7012733221054077
1733461494162479900,7.60147998046875,-0.1765400618314743,-0.1411098688840866,0.4355469346046448
1733461494172510200,7.61151025390625,-0.16371189057826996,-0.12278391420841217,0.2174680233001709
1733461494182468900,7.62146875,-0.16859880089759827,-0.06658431142568588,0.03176499158143997
1733461494192499500,7.63149951171875,-0.2070833146572113,-0.015882495790719986,-0.09346238523721695
1733461494202488600,7.641488525390625,-0.27122417092323303,0.06230825558304787,-0.12767083942890167
1733461494212490500,7.651490478515625,-0.31520646810531616,0.16737708449363708,-0.09407325088977814
1733461494222478300,7.661478271484375,-0.342695415019989,0.2528982162475586,-0.04581489413976669
1733461494232509700,7.671509765625,-0.3689626157283783,0.304210901260376,-0.06230825558304787
1733461494242467300,7.68146728515625,-0.3781255781650543,0.26572638750076294,-0.11728613078594208
1733461494252498700,7.691498779296875,-0.3830125033855438,0.18081611394882202,-0.17470745742321014
1733461494262487000,7.701487060546875,-0.3842342495918274,0.07452555745840073,-0.21991148591041565
1733461494272487700,7.71148779296875,-0.3793473243713379,-0.04214970022439957,-0.2431243658065796
1733461494282476000,7.72147607421875,-0.36102136969566345,-0.14905111491680145,-0.24556782841682434
1733461494292507100,7.731507080078125,-0.34147366881370544,-0.22296582162380219,-0.23029619455337524
1733461494302465000,7.741465087890625,-0.3139847218990326,-0.27611109614372253,-0.20036379992961884
1733461494312496000,7.75149609375,-0.2535090744495392,-0.29565876722335815,-0.14538592100143433
1733461494322484500,7.761484375,-0.19120082259178162,-0.26145032048225403,-0.11972958594560623
1733461494332515600,7.771515625,-0.11728613078594208,-0.20341812074184418,-0.10262536257505417
1733461494342473500,7.781473388671875,-0.04581489413976669,-0.13500121235847473,-0.10323622822761536
1733461494352504300,7.79150439453125,0.01466076634824276,-0.06230825558304787,-0.12217304855585098
1733461494362493000,7.801492919921875,0.059864792972803116,0.001832595793530345,-0.14049901068210602
1733461494372493300,7.811493408203125,0.0806342139840126,0.051312681287527084,-0.14294247329235077
1733461494382482000,7.82148193359375,0.08796459436416626,0.08918632566928864,-0.1111774742603302
1733461494392513300,7.83151318359375,0.0757472887635231,0.08796459436416626,-0.0861319974064827
1733461494402471000,7.841470947265625,0.05375614017248154,0.06963863968849182,-0.07513642311096191
1733461494412502000,7.851501953125,0.02382374368607998,0.021991148591041565,-0.0708603709936142
1733461494422490600,7.86149072265625,-0.010995574295520782,-0.039706241339445114,-0.0708603709936142
1733461494432491300,7.8714912109375,-0.03176499158143997,-0.07757988572120667,-0.0757472887635231
1733461494442479600,7.881479736328125,-0.036651913076639175,-0.08674286305904388,-0.0757472887635231
1733461494452510700,7.8915107421875,-0.02382374368607998,-0.024434609338641167,-0.07208210229873657
1733461494462468400,7.90146826171875,0.006108652334660292,0.07941248267889023,-0.08674286305904388
1733461494472499700,7.911499755859375,0.054367005825042725,0.2015855312347412,-0.11667526513338089
1733461494482488000,7.921488037109375,0.10567969083786011,0.303600013256073,-0.16065755486488342
1733461494492488700,7.93148876953125,0.1472185254096985,0.3378084897994995,-0.1918116807937622
1733461494502477000,7.94147705078125,0.17592918872833252,0.2932153046131134,-0.20097467303276062
1733461494512508200,7.951508056640625,0.18814650177955627,0.16371189057826996,-0.19364428520202637
1733461494522466300,7.96146630859375,0.1612684279680252,0,-0.18631389737129211
1733461494532497700,7.97149755859375,0.08735372871160507,-0.1514945775270462,-0.182648703455925
1733461494542485800,7.98148583984375,0.03848451003432274,-0.1472185254096985,-0.16859880089759827
1733461494552486000,7.99148583984375,0.018325956538319588,-0.039095375686883926,-0.13500121235847473
1733461494562474500,8.001474609375,0.02382374368607998,0.1111774742603302,-0.08491026610136032
1733461494572505900,8.011505859375,0.05925392732024193,0.2718350291252136,-0.033597588539123535
1733461494582494200,8.021494140625,0.11362093687057495,0.33536502718925476,-0.03420845419168472
1733461494592494000,8.031494140625,0.14966198801994324,0.36529740691185,-0.11178833991289139
1733461494602483200,8.041483154296875,0.2620611786842346,0.3194825351238251,-0.18814650177955627
1733461494612513300,8.05151318359375,0.32009339332580566,0.1062905490398407,-0.1466076523065567
1733461494622472400,8.061472412109374,0.3219259977340698,-0.21807889640331268,0.048258353024721146
1733461494632504000,8.071504150390625,0.2638937830924988,-0.4856378734111786,0.41233405470848083
1733461494642491600,8.08149169921875,0.2021963894367218,-0.5876523852348328,0.8576548099517822
1733461494652491800,8.09149169921875,0.17531833052635193,-0.5736024379730225,1.2589932680130005
1733461494662480600,8.101480712890625,0.1661553531885147,-0.4495968222618103,1.50211763381958
1733461494672511200,8.11151123046875,0.1514945775270462,-0.1716531366109848,1.4593570232391357
1733461494682469600,8.1214697265625,0.17592918872833252,-0.00366519158706069,1.1899654865264893
1733461494692500200,8.131500244140625,0.24678955972194672,0.07635815441608429,0.7843509912490845
1733461494702489300,8.1414892578125,0.3219259977340698,0.02687807008624077,0.31093040108680725
1733461494712490000,8.151489990234374,0.37201693654060364,-0.1667662113904953,-0.13744467496871948
1733461494722478300,8.161478271484375,0.35552358627319336,-0.4043927788734436,-0.48258355259895325
1733461494732508700,8.1715087890625,0.2742784917354584,-0.5833762884140015,-0.6780604124069214
1733461494742467300,8.18146728515625,0.16004669666290283,-0.6255260109901428,-0.7318165898323059
1733461494752499000,8.1914990234375,0.016493361443281174,-0.40622538328170776,-0.5943718552589417
1733461494762487000,8.201487060546874,-0.03420845419168472,-0.19425514340400696,-0.44226643443107605
1733461494772488200,8.21148828125,-0.07147123664617538,-0.015882495790719986,-0.3121521472930908
1733461494782475800,8.221475830078125,-0.0910189226269722,0.09346238523721695,-0.23457226157188416
1733461494792507000,8.2315068359375,-0.08796459436416626,0.12889257073402405,-0.21441370248794556
1733461494802464800,8.24146484375,-0.06780604273080826,0.1111774742603302,-0.23335053026676178
1733461494812496000,8.251495849609375,-0.0507018156349659,0.05314527451992035,-0.24373523890972137
1733461494822484500,8.261484375,-0.025656340643763542,-0.1014036312699318,-0.20525072515010834
1733461494832515600,8.271515625,-0.01710422709584236,-0.2272418737411499,-0.15454891324043274
1733461494842473500,8.281473388671875,-0.012217304669320583,-0.3439171314239502,-0.10262536257505417
1733461494852504600,8.291504638671874,0.0006108652451075613,-0.41111230850219727,-0.0659734457731247
1733461494862493200,8.3014931640625,0.022602014243602753,-0.44715335965156555,-0.03787364438176155
1733461494872493600,8.31149365234375,0.03787364438176155,-0.45204028487205505,-0.00427605677396059
1733461494882482000,8.32148193359375,0.042760565876960754,-0.41172316670417786,0.03848451003432274
1733461494892513000,8.331512939453125,0.05009094998240471,-0.2779437005519867,0.09834930300712585
1733461494902471200,8.34147119140625,0.04581489413976669,-0.1722639948129654,0.10751228034496307
1733461494912502300,8.351502197265624,0.03298672288656235,-0.10201449692249298,0.0806342139840126
1733461494922490600,8.36149072265625,0.009773843921720982,-0.08307767659425735,0.02687807008624077
1733461494932491300,8.3714912109375,-0.009773843921720982,-0.0861319974064827,-0.030543262138962746
1733461494942479600,8.381479736328124,-0.025045474991202354,-0.08796459436416626,-0.08491026610136032
1733461494952511000,8.391510986328125,-0.03176499158143997,-0.152105450630188,-0.1111774742603302
1733461494962468900,8.40146875,-0.03481931984424591,-0.17531833052635193,-0.0959058403968811
1733461494972500000,8.4115,-0.05009094998240471,-0.11484266817569733,-0.06536258012056351
1733461494982488300,8.42148828125,-0.0354301854968071,-0.0555887371301651,-0.06658431142568588
1733461494992489000,8.431489013671875,-0.005497787147760391,0.031154127791523933,-0.09529497474431992
1733461495002477300,8.441477294921874,0.027488935738801956,0.13744467496871948,-0.15943582355976105
1733461495012508200,8.451508056640625,0.06841690838336945,0.2938261926174164,-0.24556782841682434
1733461495022466300,8.46146630859375,0.10506882518529892,0.5021312236785889,-0.32009339332580566
1733461495032498000,8.471497802734374,0.11911872029304504,0.7043276429176331,-0.34697145223617554
1733461495042486000,8.481486083984375,0.08552113175392151,0.9468411207199097,-0.3323107063770294
1733461495052487000,8.49148681640625,-0.00366519158706069,0.9431759119033813,-0.29993483424186707
1733461495062474800,8.501474853515624,-0.13377949595451355,0.7629706859588623,-0.23579397797584534
1733461495072505600,8.511505615234375,-0.2791654169559479,0.4746423065662384,-0.14233160018920898
1733461495082494500,8.521494384765624,-0.3842342495918274,0.1973094791173935,-0.018936822190880775
1733461495092495600,8.53149560546875,-0.4086688458919525,-0.03420845419168472,0.09407325088977814
1733461495102483500,8.5414833984375,-0.3885102868080139,-0.23029619455337524,0.12828169763088226
1733461495112513300,8.55151318359375,-0.3579670190811157,-0.5302310585975647,0.1007927656173706
1733461495122471200,8.56147119140625,-0.34513887763023376,-0.7367035150527954,0.15393804013729095
1733461495132503000,8.5715029296875,-0.3689626157283783,-0.8558222055435181,0.35063666105270386
1733461495142491000,8.581490966796874,-0.41722095012664795,-0.8576548099517822,0.6743952035903931
1733461495152491800,8.59149169921875,-0.4642575979232788,-0.7305948138237,1.045190453529358
1733461495162479900,8.60147998046875,-0.4948008358478546,-0.5277875661849976,1.3487904071807861
1733461495172510200,8.61151025390625,-0.5198463201522827,-0.3836233615875244,1.4813482761383057
1733461495182469000,8.62146923828125,-0.5106833577156067,-0.35063666105270386,1.3738359212875366
1733461495192499200,8.631499267578125,-0.423329621553421,-0.39645153284072876,0.8106181621551514
1733461495202515000,8.641514892578124,-0.32009339332580566,-0.3982841372489929,0.29993483424186707
1733461495212489000,8.651489013671876,-0.2125810980796814,-0.3439171314239502,-0.17104226350784302
1733461495222478300,8.661478271484375,-0.14294247329235077,-0.2028072625398636,-0.4899139404296875
1733461495232510000,8.671510009765624,-0.13255776464939117,-0.0012217304902151227,-0.588874101638794
1733461495242467300,8.68146728515625,-0.14844025671482086,0.21380282938480377,-0.5186246037483215
1733461495252499200,8.691499267578125,-0.17592918872833252,0.4050036668777466,-0.39584067463874817
1733461495262487000,8.701487060546874,-0.2724458873271942,0.5510004758834839,-0.29565876722335815
1733461495272487200,8.711487060546874,-0.3481931984424591,0.5119050741195679,-0.2834414839744568
1733461495282475800,8.721475830078125,-0.42210787534713745,0.3683517575263977,-0.31093040108680725
1733461495292507100,8.731507080078124,-0.48197266459465027,0.16249015927314758,-0.35185837745666504
1733461495302465000,8.741465087890624,-0.49724429845809937,-0.06169738993048668,-0.38240164518356323
1733461495312496000,8.75149609375,-0.4856378734111786,-0.23640485107898712,-0.40194934606552124
1733461495322484500,8.761484375,-0.4715879559516907,-0.3335324227809906,-0.4056145250797272
1733461495332515600,8.771515625,-0.41172316670417786,-0.33658674359321594,-0.3536909818649292
1733461495342473500,8.781473388671875,-0.3591887652873993,-0.2926044464111328,-0.2871066629886627
1733461495352504600,8.791504638671874,-0.3023782968521118,-0.2535090744495392,-0.2028072625398636
1733461495362493000,8.801492919921875,-0.23457226157188416,-0.2064724564552307,-0.12461651116609573
1733461495372493800,8.811493896484375,-0.14905111491680145,-0.14905111491680145,-0.0555887371301651
1733461495382482000,8.82148193359375,-0.06414084881544113,-0.12278391420841217,0.003054326167330146
1733461495392512800,8.8315126953125,-0.00366519158706069,-0.1062905490398407,0.048258353024721146
1733461495402471000,8.841470947265625,0.03726277872920036,-0.08124507963657379,0.08002334833145142
1733461495412502000,8.851501953125,0.07941248267889023,0.0024434609804302454,0.1007927656173706
1733461495422490600,8.86149072265625,0.08552113175392151,0.05925392732024193,0.10506882518529892
1733461495432491300,8.8714912109375,0.08491026610136032,0.08735372871160507,0.10445795953273773
1733461495442479600,8.881479736328124,0.08124507963657379,0.09529497474431992,0.08918632566928864
1733461495452510700,8.8915107421875,0.06902777403593063,0.08002334833145142,0.06841690838336945
1733461495462468400,8.90146826171875,0.04703662544488907,0.056810468435287476,0.0403171069920063
1733461495472499700,8.911499755859374,0.02626720629632473,0.056810468435287476,0.007941247895359993
1733461495482488000,8.921488037109375,0.015271631069481373,0.12339477986097336,-0.06414084881544113
1733461495492488700,8.93148876953125,0.024434609338641167,0.1618792861700058,-0.1362229436635971
1733461495502477000,8.94147705078125,0.036041051149368286,0.19608774781227112,-0.2168571650981903
1733461495512508200,8.951508056640625,0.0507018156349659,0.21807889640331268,-0.27611109614372253
1733461495522466300,8.96146630859375,0.07269296050071716,0.2370157092809677,-0.3139847218990326
1733461495532497000,8.971496826171874,0.08246681094169617,0.2272418737411499,-0.32620203495025635
1733461495542485800,8.98148583984375,0.06841690838336945,0.1667662113904953,-0.28955012559890747
1733461495552487000,8.99148681640625,0.022602014243602753,0.06963863968849182,-0.14355333149433136
1733461495562474500,9.001474609375,-0.001832595793530345,0.06658431142568588,-0.005497787147760391
1733461495572505600,9.011505615234375,-0.005497787147760391,0.11545353382825851,0.13439035415649414
1733461495582494200,9.021494140625,0.014049900695681572,0.2015855312347412,0.24923302233219147
1733461495592494600,9.03149462890625,0.07269296050071716,0.30970868468284607,0.32070425152778625
1733461495602483200,9.041483154296875,0.1569923609495163,0.4086688458919525,0.32559117674827576
1733461495612515000,9.05151513671875,0.2376265823841095,0.42760565876960754,0.26145032048225403
1733461495622472400,9.061472412109374,0.2767219543457031,0.33475416898727417,0.13744467496871948
1733461495632504000,9.071504150390625,0.29138273000717163,0.003054326167330146,-0.024434609338641167
1733461495642491600,9.08149169921875,0.31642818450927734,-0.26083946228027344,0.015271631069481373
1733461495652493000,9.0914931640625,0.3341432809829712,-0.4550946056842804,0.23884831368923187
1733461495662480600,9.101480712890625,0.342695415019989,-0.53328537940979,0.656069278717041
1733461495672512300,9.11151220703125,0.35185837745666504,-0.45875978469848633,1.1362093687057495
1733461495682469600,9.1214697265625,0.37690386176109314,-0.2571742534637451,1.5399912595748901
1733461495692500500,9.13150048828125,0.4001167416572571,-0.025656340643763542,1.7452419996261597
1733461495702489300,9.1414892578125,0.3805690407752991,0.251676470041275,1.568701982498169
1733461495712491300,9.1514912109375,0.36713001132011414,0.3194825351238251,1.1533136367797852
1733461495722478300,9.161478271484375,0.36102136969566345,0.2321287989616394,0.6126978397369385
1733461495732508700,9.1715087890625,0.3744603991508484,0.012828170321881771,0.08124507963657379
1733461495742467300,9.18146728515625,0.3885102868080139,-0.2590068578720093,-0.33292156457901
1733461495752499200,9.191499267578125,0.3634648323059082,-0.513737678527832,-0.5754350423812866
1733461495762487000,9.201487060546874,0.2968805134296417,-0.6511823534965515,-0.6432411074638367
1733461495772488000,9.211488037109374,0.1722639948129654,-0.578489363193512,-0.5051855444908142
1733461495782475800,9.221475830078125,0.09468411654233932,-0.40256020426750183,-0.3488040566444397
1733461495792507000,9.2315068359375,0.03481931984424591,-0.182648703455925,-0.2217440903186798
1733461495802464800,9.24146484375,0.0012217304902151227,-0.021380282938480377,-0.1771509200334549
1733461495812496000,9.251495849609375,-0.01771509274840355,0.04886921867728233,-0.20525072515010834
1733461495822484500,9.261484375,-0.02626720629632473,0.08429940044879913,-0.27550023794174194
1733461495832515600,9.271515625,-0.02015855349600315,0.09040805697441101,-0.3530801236629486
1733461495842473500,9.281473388671875,-0.007941247895359993,0.06414084881544113,-0.40744712948799133
1733461495852504600,9.291504638671874,0.01771509274840355,0.016493361443281174,-0.4355469346046448
1733461495862493200,9.3014931640625,0.0354301854968071,-0.019547687843441963,-0.42760565876960754
1733461495872493300,9.311493408203125,0.04948008432984352,-0.0507018156349659,-0.403781920671463
1733461495882482000,9.32148193359375,0.0555887371301651,-0.08491026610136032,-0.35185837745666504
1733461495892513000,9.331512939453125,0.05803219974040985,-0.11667526513338089,-0.27611109614372253
1733461495902471000,9.341470947265625,0.05375614017248154,-0.14294247329235077,-0.18509216606616974
1733461495912502000,9.351501953125,0.04642575979232788,-0.15515977144241333,-0.09834930300712585
1733461495922490600,9.36149072265625,0.03848451003432274,-0.13255776464939117,-0.015271631069481373
1733461495932491300,9.3714912109375,0.0403171069920063,-0.09346238523721695,-0.0006108652451075613
1733461495942480000,9.38147998046875,0.039095375686883926,-0.05803219974040985,0
1733461495952510500,9.391510498046875,0.02626720629632473,-0.045204028487205505,0.009773843921720982
1733461495962468900,9.40146875,0.004886921960860491,-0.04398229718208313,0.02321287989616394
1733461495972499700,9.411499755859374,-0.015882495790719986,-0.048258353024721146,0.0354301854968071
1733461495982488000,9.421488037109375,-0.03787364438176155,-0.048258353024721146,0.036651913076639175
1733461495992488700,9.43148876953125,-0.0708603709936142,-0.00427605677396059,0.036651913076639175
1733461496002477300,9.441477294921874,-0.08796459436416626,0.042760565876960754,0.03726277872920036
1733461496012508700,9.4515087890625,-0.11178833991289139,0.06780604273080826,0.039095375686883926
1733461496022466300,9.46146630859375,-0.1258382350206375,0.08429940044879913,0.03298672288656235
1733461496032497700,9.47149755859375,-0.1313360333442688,0.07757988572120667,0.00366519158706069
1733461496042485800,9.48148583984375,-0.12889257073402405,0.09896016865968704,-0.05375614017248154
1733461496052486700,9.491486572265625,-0.12522737681865692,0.16859880089759827,-0.12278391420841217
1733461496062474800,9.501474853515624,-0.13011430203914642,0.24923302233219147,-0.18814650177955627
1733461496072505600,9.511505615234375,-0.1722639948129654,0.2767219543457031,-0.28466320037841797
1733461496082494200,9.521494140625,-0.24007004499435425,0.19425514340400696,-0.35063666105270386
1733461496092494800,9.531494873046874,-0.33047810196876526,0.01771509274840355,-0.3781255781650543
1733461496102483200,9.541483154296875,-0.423329621553421,-0.22357667982578278,-0.32559117674827576
1733461496112513300,9.55151318359375,-0.4966334402561188,-0.455705463886261,-0.19303341209888458
1733461496122471200,9.56147119140625,-0.5186246037483215,-0.6536257863044739,0.001832595793530345
1733461496132503000,9.5715029296875,-0.5125159621238708,-0.7971791625022888,0.22418753802776337
1733461496142491000,9.581490966796874,-0.50335294008255,-0.8833111524581909,0.5247332453727722
1733461496152491800,9.59149169921875,-0.4954117238521576,-0.8546004891395569,0.6719517707824707
1733461496162479900,9.60147998046875,-0.4893030524253845,-0.8130616545677185,0.8155050873756409
1733461496172511500,9.611511474609374,-0.49235737323760986,-0.7275404930114746,0.9663888216018677
1733461496182468900,9.62146875,-0.4899139404296875,-0.5894849896430969,1.1074986457824707
1733461496192499500,9.63149951171875,-0.4764748811721802,-0.46731191873550415,1.197906732559204
1733461496202488600,9.641488525390624,-0.45753806829452515,-0.3805690407752991,1.1832460165023804
1733461496212489000,9.651489013671876,-0.3793473243713379,-0.2638937830924988,0.9560040831565857
1733461496222478300,9.661478271484375,-0.28527405858039856,-0.1814269721508026,0.6713408827781677
1733461496232508700,9.6715087890625,-0.17470745742321014,-0.06963863968849182,0.32498031854629517
1733461496242467600,9.681467529296874,-0.06658431142568588,0.06414084881544113,-0.007941247895359993
1733461496252498200,9.691498291015625,0.012217304669320583,0.19058994948863983,-0.2834414839744568
1733461496262486800,9.70148681640625,0.04886921867728233,0.2974913716316223,-0.4709770977497101
1733461496272486700,9.711486572265626,0.036041051149368286,0.3885102868080139,-0.5852088928222656
1733461496282475800,9.721475830078125,-0.04337143152952194,0.503963828086853,-0.6407976150512695
1733461496292507600,9.731507568359374,-0.21441370248794556,0.6432411074638367,-0.616973876953125
1733461496302465000,9.741465087890624,-0.3585779070854187,0.6792821288108826,-0.5589417219161987
1733461496312495900,9.751495849609375,-0.503963828086853,0.6407976150512695,-0.48258355259895325
1733461496322484500,9.761484375,-0.6200281977653503,0.5119050741195679,-0.38728857040405273
1733461496332515600,9.771515625,-0.6884451508522034,0.3139847218990326,-0.30543261766433716
1733461496342473500,9.781473388671875,-0.7055493593215942,0.09529497474431992,-0.2632829248905182
1733461496352504800,9.7915048828125,-0.684779942035675,-0.08735372871160507,-0.27061331272125244
1733461496362493000,9.801492919921875,-0.6249151229858398,-0.17531833052635193,-0.35124751925468445
1733461496372493600,9.81149365234375,-0.5577199459075928,-0.14416420459747314,-0.41722095012664795
1733461496382482000,9.82148193359375,-0.4801400899887085,-0.09407325088977814,-0.46670106053352356
1733461496392513300,9.83151318359375,-0.3903428912162781,-0.02932153269648552,-0.48319441080093384
1733461496402471000,9.841470947265625,-0.2968805134296417,0.021380282938480377,-0.43188172578811646
1733461496412502000,9.851501953125,-0.2021963894367218,0.06963863968849182,-0.3237585723400116
1733461496422490600,9.86149072265625,-0.11545353382825851,0.08918632566928864,-0.19120082259178162
1733461496432491300,9.8714912109375,-0.014049900695681572,0.07880161702632904,-0.01771509274840355
1733461496442479600,9.881479736328124,0.025045474991202354,0.08124507963657379,0.05253441259264946
1733461496452510700,9.8915107421875,0.04398229718208313,0.08796459436416626,0.08857546001672745
1733461496462468600,9.901468505859375,0.05192354694008827,0.08979719132184982,0.09957103431224823
1733461496472499500,9.91149951171875,0.04886921867728233,0.08246681094169617,0.09834930300712585
1733461496482488000,9.921488037109375,0.03481931984424591,0.056810468435287476,0.10262536257505417
1733461496492488700,9.93148876953125,0.015271631069481373,0.004886921960860491,0.10690141469240189
1733461496502477000,9.94147705078125,0.005497787147760391,-0.039706241339445114,0.10323622822761536
1733461496512508200,9.951508056640625,0.0024434609804302454,-0.03176499158143997,0.11667526513338089
1733461496522034000,9.961033935546874,0.0012217304902151227,0.08429940044879913,0.14049901068210602
1733461496532064800,9.971064697265625,0.02015855349600315,0.23518311977386475,0.16004669666290283
1733461496542053400,9.981053466796874,0.051312681287527084,0.29077184200286865,0.1569923609495163
1733461496552054300,9.99105419921875,0.08735372871160507,0.25534167885780334,0.10751228034496307
1733461496562042400,10.00104248046875,0.1319468915462494,0.19303341209888458,0.016493361443281174
1733461496572073500,10.011073486328126,0.1869247704744339,0.09040805697441101,-0.07880161702632904
1733461496582061800,10.021061767578125,0.23151792585849762,-0.1014036312699318,-0.20402899384498596
1733461496592063200,10.031063232421875,0.2370157092809677,-0.17837265133857727,-0.2681698501110077
1733461496602050800,10.04105078125,0.23884831368923187,-0.19058994948863983,-0.2938261926174164
1733461496612082400,10.05108251953125,0.24678955972194672,-0.09346238523721695,-0.25473082065582275
1733461496622039800,10.061039794921875,0.2675589919090271,0.06719517707824707,-0.16249015927314758
1733461496632071200,10.0710712890625,0.33169981837272644,0.22113321721553802,-0.06902777403593063
1733461496642059500,10.0810595703125,0.4092797040939331,0.3445279896259308,-0.08857546001672745
1733461496652059400,10.091059326171875,0.494189977645874,0.33292156457901,-0.32131510972976685
1733461496662048500,10.101048583984374,0.5613851547241211,0.13377949595451355,-0.5192354321479797
1733461496672080100,10.111080078125,0.6212499737739563,-0.17287486791610718,-0.6768386960029602
1733461496682037200,10.121037353515625,0.6298020482063293,-0.5204572081565857,-0.6957755088806152
1733461496692069000,10.131069091796874,0.5962044596672058,-0.7849618196487427,-0.4434881806373596
1733461496702057000,10.141056884765625,0.5216789245605469,-0.7770205736160278,0.1007927656173706
1733461496712058000,10.15105810546875,0.4141666293144226,-0.5290092825889587,0.8118399381637573
1733461496722046000,10.1610458984375,0.30482175946235657,-0.31642818450927734,1.4648548364639282
1733461496732077600,10.17107763671875,0.10018189996480942,-0.1368338167667389,1.977981686592102
1733461496742035000,10.181034912109375,-0.02382374368607998,-0.16249015927314758,1.958433985710144
1733461496752065500,10.1910654296875,-0.08796459436416626,-0.18875735998153687,1.6584991216659546
1733461496762054700,10.2010546875,-0.06536258012056351,-0.0910189226269722,1.1301007270812988
1733461496772054300,10.21105419921875,0.06719517707824707,0.02626720629632473,0.47769662737846375
1733461496782043400,10.22104345703125,0.2620611786842346,0.09712757170200348,-0.1869247704744339
1733461496792076000,10.231075927734375,0.44226643443107605,0.0959058403968811,-0.7574729323387146
1733461496802032600,10.24103271484375,0.5314527750015259,-0.09346238523721695,-1.3041973114013672
1733461496812064300,10.251064208984374,0.47769662737846375,-0.2474004179239273,-1.4404202699661255
1733461496822052000,10.261052001953125,0.3628539443016052,-0.313373863697052,-1.3781119585037231
1733461496832083700,10.271083740234374,0.21930062770843506,-0.24617868661880493,-1.1301007270812988
1733461496842041000,10.281041015625,0.07330382615327835,-0.10995574295520782,-0.740368664264679
1733461496852072700,10.29107275390625,-0.03848451003432274,0.06658431142568588,-0.304210901260376
1733461496862060500,10.301060546875,-0.08124507963657379,0.21441370248794556,0.06536258012056351
1733461496872061000,10.31106103515625,-0.06475171446800232,0.2742784917354584,0.394618958234787
1733461496882049500,10.321049560546875,-0.02932153269648552,0.24862214922904968,0.4648684561252594
1733461496892081000,10.331080810546876,0.015271631069481373,0.20525072515010834,0.46547931432724
1733461496902038800,10.341038818359374,0.05803219974040985,0.16371189057826996,0.4392121136188507
1733461496912070000,10.35106982421875,0.09957103431224823,0.1014036312699318,0.394618958234787
1733461496922058200,10.361058349609374,0.12828169763088226,0.01038470957428217,0.3378084897994995
1733461496932059000,10.371058837890626,0.152105450630188,-0.0806342139840126,0.2590068578720093
1733461496942047200,10.381047119140625,0.17470745742321014,-0.15393804013729095,0.16249015927314758
1733461496952078600,10.39107861328125,0.20402899384498596,-0.2021963894367218,0.012828170321881771
1733461496962036500,10.401036376953124,0.21135938167572021,-0.18997909128665924,-0.04581489413976669
1733461496972067800,10.41106787109375,0.2015855312347412,-0.13744467496871948,-0.048258353024721146
1733461496982056000,10.421055908203124,0.17531833052635193,-0.04948008432984352,-0.003054326167330146
1733461496992056600,10.431056640625,0.13072516024112701,0.051312681287527084,0.06536258012056351
1733461497002045000,10.441044921875,0.06963863968849182,0.1417207419872284,0.13744467496871948
1733461497012076000,10.451075927734376,0.00855211354792118,0.2015855312347412,0.19792033731937408
1733461497022034000,10.461033935546874,-0.06230825558304787,0.2125810980796814,0.24617868661880493
1733461497032065300,10.471065185546875,-0.1007927656173706,0.1771509200334549,0.242513507604599
1733461497042053400,10.481053466796874,-0.13072516024112701,0.1459967941045761,0.23029619455337524
1733461497052054300,10.49105419921875,-0.14538592100143433,0.1313360333442688,0.22296582162380219
1733461497062042600,10.501042724609375,-0.15821409225463867,0.11850785464048386,0.21624629199504852
1733461497072074000,10.511073974609374,-0.16371189057826996,0.0861319974064827,0.19975294172763824
1733461497082062000,10.52106201171875,-0.14844025671482086,0.04581489413976669,0.1765400618314743
1733461497092062500,10.5310625,-0.09224065393209457,0.012217304669320583,0.14782938361167908
1733461497102051000,10.541051025390624,-0.025045474991202354,0.07880161702632904,0.13377949595451355
1733461497112080400,10.551080322265625,0.04153883829712868,0.21074850857257843,0.13011430203914642
1733461497122039000,10.5610390625,0.06291911751031876,0.33719760179519653,0.1264491081237793
1733461497132070000,10.57106982421875,0.029932396486401558,0.40072759985923767,0.10873401165008545
1733461497142058500,10.58105859375,-0.039706241339445114,0.38179078698158264,0.08185594528913498
1733461497152059100,10.59105908203125,-0.12034045159816742,0.2675589919090271,0.05619960278272629
1733461497162047500,10.601047607421876,-0.19425514340400696,0.09651670604944229,0.03237585723400116
1733461497172079000,10.6110791015625,-0.2816088795661926,-0.1966986060142517,0.02687807008624077
1733461497182036500,10.621036376953125,-0.34513887763023376,-0.34697145223617554,0.007941247895359993
1733461497192068400,10.631068359375,-0.4056145250797272,-0.44654250144958496,-0.04398229718208313
1733461497202084600,10.641084716796875,-0.4440990388393402,-0.5082398653030396,-0.11667526513338089
1733461497212057900,10.651057861328125,-0.4691445231437683,-0.5674937963485718,-0.13072516024112701
1733461497222046000,10.6610458984375,-0.5015203952789307,-0.6102544069290161,-0.014049900695681572
1733461497232077600,10.67107763671875,-0.5705481171607971,-0.6108652353286743,0.2174680233001709
1733461497242035200,10.68103515625,-0.6780604124069214,-0.5925393104553223,0.5858197808265686
1733461497252065500,10.6910654296875,-0.7189884185791016,-0.5296201705932617,0.7153232097625732
1733461497262054400,10.701054443359375,-0.7281513810157776,-0.42088615894317627,0.7159340381622314
1733461497272054500,10.711054443359375,-0.7043276429176331,-0.30482175946235657,0.6053674817085266
1733461497282043600,10.721043701171874,-0.6499606370925903,-0.18509216606616974,0.40194934606552124
1733461497292074200,10.73107421875,-0.5913175344467163,-0.08918632566928864,0.13439035415649414
1733461497302032600,10.74103271484375,-0.5491678714752197,-0.00427605677396059,-0.12095131725072861
1733461497312064300,10.751064208984374,-0.5271766781806946,0.17959438264369965,-0.29138273000717163
1733461497322052000,10.761052001953125,-0.5448917746543884,0.2828305959701538,-0.23457226157188416
1733461497332084000,10.771083984375,-0.6126978397369385,0.3842342495918274,-0.11056660860776901
1733461497342041300,10.781041259765624,-0.7122688889503479,0.43799036741256714,0.04092797264456749
1733461497352072700,10.79107275390625,-0.8112290501594543,0.4642575979232788,0.18020524084568024
1733461497362060500,10.801060546875,-0.9028588533401489,0.4642575979232788,0.2883284091949463
1733461497372061400,10.8110615234375,-0.9566149711608887,0.4031710624694824,0.3543018400669098
1733461497382049500,10.821049560546875,-0.9718865752220154,0.30970868468284607,0.37140607833862305
1733461497392080400,10.831080322265626,-0.941343367099762,0.14844025671482086,0.3323107063770294
1733461497402038500,10.84103857421875,-0.8991936445236206,0.04581489413976669,0.2822197377681732
1733461497412070000,10.85106982421875,-0.8515461683273315,-0.027488935738801956,0.22418753802776337
1733461497422058200,10.861058349609374,-0.8008443117141724,-0.0708603709936142,0.1612684279680252
1733461497432059100,10.87105908203125,-0.7464773058891296,-0.09834930300712585,0.09896016865968704
1733461497442047200,10.881047119140625,-0.6878342628479004,-0.10018189996480942,0.03848451003432274
1733461497452078600,10.89107861328125,-0.6163630485534668,-0.09162978827953339,-0.02626720629632473
1733461497462036500,10.901036376953124,-0.5155702829360962,-0.07635815441608429,-0.16432274878025055
1733461497472067600,10.911067626953125,-0.4642575979232788,-0.09529497474431992,-0.2834414839744568
1733461497482056000,10.921055908203124,-0.4202753007411957,-0.11423180252313614,-0.39645153284072876
1733461497492056300,10.931056396484376,-0.394008070230484,-0.1319468915462494,-0.4789183437824249
1733461497502045000,10.941044921875,-0.39645153284072876,-0.13377949595451355,-0.5088507533073425
1733461497512076300,10.951076171875,-0.423329621553421,-0.09957103431224823,-0.4948008358478546
1733461497522034000,10.961033935546874,-0.475253164768219,-0.060475658625364304,-0.45814892649650574
1733461497532065500,10.9710654296875,-0.5564982295036316,0.004886921960860491,-0.41722095012664795
1733461497542053400,10.981053466796874,-0.6035348773002625,0.05864306539297104,-0.3952298164367676
1733461497552054500,10.991054443359374,-0.636521577835083,0.11362093687057495,-0.3646865487098694
1733461497562042400,11.00104248046875,-0.6621779203414917,0.16249015927314758,-0.31093040108680725
1733461497572074000,11.011073974609374,-0.6768386960029602,0.19547687470912933,-0.23029619455337524
1733461497582061800,11.021061767578125,-0.6829473376274109,0.19608774781227112,-0.11362093687057495
1733461497592062500,11.0310625,-0.6976081132888794,0.16920967400074005,0.04337143152952194
1733461497602050800,11.04105078125,-0.7336491346359253,0.11545353382825851,0.22479841113090515
1733461497612082200,11.051082275390625,-0.7904596328735352,0.039095375686883926,0.44165557622909546
1733461497622039800,11.061039794921875,-0.7922922372817993,0.04214970022439957,0.48747047781944275
1733461497632071400,11.071071533203124,-0.7666358947753906,0.06291911751031876,0.4550946056842804
1733461497642059500,11.0810595703125,-0.7220427393913269,0.06536258012056351,0.3549126982688904
1733461497652059400,11.091059326171875,-0.6530149579048157,0.07391469180583954,0.21930062770843506
1733461497662048500,11.101048583984374,-0.5742133259773254,0.08429940044879913,0.09346238523721695
1733461497672080000,11.111079833984375,-0.50335294008255,0.10323622822761536,0.02932153269648552
1733461497682037200,11.121037353515625,-0.4098905920982361,0.18509216606616974,0.10323622822761536
1733461497692069400,11.1310693359375,-0.36651915311813354,0.2638937830924988,0.24129177629947662
1733461497702057000,11.141056884765625,-0.3378084897994995,0.3439171314239502,0.3836233615875244
1733461497712057600,11.1510576171875,-0.32498031854629517,0.3982841372489929,0.46303585171699524
1733461497722046000,11.1610458984375,-0.34574973583221436,0.46181413531303406,0.4612032473087311
1733461497732076300,11.171076171875,-0.3830125033855438,0.5522221922874451,0.36102136969566345
1733461497742035000,11.181034912109375,-0.39095374941825867,0.7202101349830627,0.14355333149433136
1733461497752065500,11.1910654296875,-0.304210901260376,0.921184778213501,-0.4043927788734436
1733461497762054700,11.2010546875,-0.22296582162380219,0.7996225953102112,-0.8631525635719299
1733461497772054300,11.21105419921875,-0.16920967400074005,0.4862487316131592,-1.310916781425476
1733461497782043400,11.22104345703125,-0.11850785464048386,0.13927727937698364,-1.5919147729873657
1733461497792075000,11.231074951171875,-0.09224065393209457,-0.1667662113904953,-1.5845844745635986
1733461497802032400,11.241032470703125,-0.17592918872833252,-0.40683624148368835,-1.2406673431396484
1733461497812064000,11.25106396484375,-0.3677408695220947,-0.46364670991897583,-0.5736024379730225
1733461497822052000,11.261052001953125,-0.5913175344467163,-0.3084869384765625,0.3543018400669098
1733461497832084000,11.271083984375,-0.816726803779602,-0.042760565876960754,1.822821855545044
1733461497842041300,11.281041259765624,-0.8839219808578491,0.08368854224681854,2.5130996704101562
1733461497852073000,11.291072998046875,-0.9291260242462158,0.17837265133857727,2.839301586151123
1733461497862060500,11.301060546875,-0.911410927772522,0.20525072515010834,2.7653870582580566
1733461497872060700,11.311060791015626,-0.8216137290000916,0.13744467496871948,2.345111608505249
1733461497882049500,11.321049560546875,-0.7043276429176331,-0.04948008432984352,1.7049249410629272
1733461497892083000,11.3310830078125,-0.618195652961731,-0.2987131178379059,0.9944885969161987
1733461497902038800,11.341038818359374,-0.4184426963329315,-0.4917465150356293,-0.030543262138962746
1733461497912069000,11.351069091796875,-0.3090978264808655,-0.5870414972305298,-0.6090326309204102
1733461497922058200,11.361058349609374,-0.24373523890972137,-0.694553792476654,-1.0561859607696533
1733461497932058400,11.371058349609376,-0.28038713335990906,-0.817948579788208,-1.3915510177612305
1733461497942047200,11.381047119140625,-0.423329621553421,-0.8784242272377014,-1.6377297639846802
1733461497952077600,11.39107763671875,-0.6194173693656921,-0.8283332586288452,-1.747685432434082
1733461497962036500,11.401036376953124,-0.8515461683273315,-0.6035348773002625,-1.6157386302947998
1733461497972068000,11.411068115234375,-1.228450059890747,-0.05253441259264946,-1.0311405658721924
1733461497982056000,11.421055908203124,-1.4984524250030518,0.2687807083129883,-0.5277875661849976
1733461497992057000,11.43105712890625,-1.7269160747528076,0.323147714138031,-0.05864306539297104
1733461498002045000,11.441044921875,-1.9175059795379639,0.18325957655906677,0.3121521472930908
1733461498012076800,11.451076904296874,-2.046398639678955,-0.018325956538319588,0.5485569834709167
1733461498022034000,11.461033935546874,-2.138639211654663,-0.16004669666290283,0.6572909951210022
1733461498032065800,11.471065673828125,-2.1960606575012207,-0.2816088795661926,0.694553792476654
1733461498042053400,11.481053466796874,-2.233323335647583,-0.4331034719944,0.684779942035675
1733461498052053200,11.49105322265625,-2.261423110961914,-0.6126978397369385,0.5772676467895508
1733461498062042600,11.501042724609375,-2.2632558345794678,-0.6798930168151855,0.4434881806373596
1733461498072073000,11.511072998046876,-2.261423110961914,-0.7214318513870239,0.2938261926174164
1733461498082062000,11.52106201171875,-2.2565362453460693,-0.7214318513870239,0.15882496535778046
1733461498092062000,11.53106201171875,-2.247373342514038,-0.6890559792518616,0.04886921867728233
1733461498102051000,11.541051025390624,-2.2437081336975098,-0.6359107494354248,-0.03848451003432274
1733461498112081200,11.5510810546875,-2.2430970668792725,-0.5833762884140015,-0.09651670604944229
1733461498122039000,11.5610390625,-2.280970811843872,-0.5919284224510193,-0.10934487730264664
1733461498132071000,11.57107080078125,-2.3206770420074463,-0.6340781450271606,-0.08185594528913498
1733461498142058500,11.58105859375,-2.364659309387207,-0.6969972252845764,-0.036651913076639175
1733461498152060000,11.591059814453125,-2.415361166000366,-0.7574729323387146,0.01160643994808197
1733461498162047500,11.601047607421876,-2.473393440246582,-0.799011766910553,0.06414084881544113
1733461498172079000,11.6110791015625,-2.5326473712921143,-0.7910705208778381,0.12034045159816742
1733461498182036500,11.621036376953125,-2.576629638671875,-0.7189884185791016,0.18448130786418915
1733461498192067300,11.6310673828125,-2.5705208778381348,-0.5546656250953674,0.2919935882091522
1733461498202056200,11.64105615234375,-2.5002715587615967,-0.45326200127601624,0.35063666105270386
1733461498212057000,11.65105712890625,-2.406809091567993,-0.37140607833862305,0.38667771220207214
1733461498222046000,11.6610458984375,-2.3066272735595703,-0.33047810196876526,0.413555771112442
1733461498232076500,11.67107666015625,-2.22477126121521,-0.34636059403419495,0.43188172578811646
1733461498242035200,11.68103515625,-2.1679606437683105,-0.4178318381309509,0.4502076804637909
1733461498252065800,11.691065673828126,-2.1545217037200928,-0.50335294008255,0.455705463886261
1733461498262054400,11.701054443359375,-2.163684606552124,-0.5760459303855896,0.44776421785354614
1733461498272054500,11.711054443359375,-2.155132532119751,-0.6743952035903931,0.4001167416572571
1733461498282043600,11.721043701171874,-2.1148154735565186,-0.7281513810157776,0.3481931984424591
1733461498292074200,11.73107421875,-2.0396790504455566,-0.7733554244041443,0.27488934993743896
1733461498302032400,11.741032470703125,-1.9352210760116577,-0.7898487448692322,0.18936823308467865
1733461498312063200,11.751063232421876,-1.8179349899291992,-0.7806857824325562,0.11178833991289139
1733461498322052000,11.761052001953125,-1.7134770154953003,-0.7562511563301086,0.05925392732024193
1733461498332083000,11.7710830078125,-1.6267341375350952,-0.6866125464439392,0.03481931984424591
1733461498342041300,11.781041259765624,-1.5302174091339111,-0.4703662395477295,0.059864792972803116
1733461498352071700,11.79107177734375,-1.4801265001296997,-0.2981022298336029,0.10018189996480942
1733461498362060500,11.801060546875,-1.4398094415664673,-0.18570303916931152,0.14294247329235077
1733461498372060700,11.811060791015626,-1.4031574726104736,-0.1411098688840866,0.16859880089759827
1733461498382049800,11.8210498046875,-1.357953429222107,-0.1270599663257599,0.16493362188339233
1733461498392080400,11.831080322265626,-1.3127493858337402,-0.1417207419872284,0.13988813757896423
1733461498402038500,11.84103857421875,-1.2596040964126587,-0.15943582355976105,0.09529497474431992
1733461498412069400,11.8510693359375,-1.1673635244369507,-0.16004669666290283,0.015882495790719986
1733461498422058200,11.861058349609374,-1.1062769889831543,-0.13500121235847473,-0.03176499158143997
1733461498432058400,11.871058349609376,-1.0519099235534668,-0.1111774742603302,-0.06291911751031876
1733461498442047200,11.881047119140625,-1.006095051765442,-0.08368854224681854,-0.07452555745840073
1733461498452077800,11.891077880859376,-0.9633345007896423,-0.05742133408784866,-0.06780604273080826
1733461498462036500,11.901036376953124,-0.9224064946174622,-0.039095375686883926,-0.048258353024721146
1733461498472066600,11.911066650390625,-0.8845328688621521,-0.056810468435287476,-0.031154127791523933
1733461498482056000,11.921055908203124,-0.8509352803230286,-0.10751228034496307,-0.022602014243602753
1733461498492056000,11.93105615234375,-0.8069530129432678,-0.19547687470912933,-0.02015855349600315
1733461498502044700,11.941044677734375,-0.788016140460968,-0.2321287989616394,-0.015882495790719986
1733461498512075500,11.951075439453126,-0.7764097452163696,-0.2535090744495392,0.014049900695681572
1733461498522034000,11.961033935546874,-0.7660250067710876,-0.27061331272125244,0.06719517707824707
1733461498532064300,11.971064208984375,-0.7574729323387146,-0.2724458873271942,0.12400564551353455
1733461498542053400,11.981053466796874,-0.7391469478607178,-0.24068090319633484,0.1667662113904953
1733461498552053500,11.991053466796876,-0.7067710757255554,-0.192422553896904,0.1814269721508026
1733461498562042400,12.00104248046875,-0.6450737118721008,-0.16737708449363708,0.12034045159816742
1733461498572073000,12.011072998046876,-0.5968153476715088,-0.1973094791173935,0.03237585723400116
1733461498582061800,12.021061767578125,-0.5424483418464661,-0.25106561183929443,-0.06658431142568588
1733461498592062000,12.03106201171875,-0.48808133602142334,-0.30054569244384766,-0.1563815027475357
1733461498602050800,12.04105078125,-0.44165557622909546,-0.342695415019989,-0.22052235901355743
1733461498612081700,12.05108154296875,-0.41111230850219727,-0.3543018400669098,-0.24678955972194672
1733461498622039800,12.061039794921875,-0.3885102868080139,-0.32986724376678467,-0.23579397797584534
1733461498632071000,12.07107080078125,-0.36529740691185,-0.21502456068992615,-0.16798794269561768
1733461498642059500,12.0810595703125,-0.34574973583221436,-0.10506882518529892,-0.09407325088977814
1733461498652059600,12.0910595703125,-0.3335324227809906,0,-0.00427605677396059
1733461498662048500,12.101048583984374,-0.32681289315223694,0.0555887371301651,0.07024950534105301
1733461498672079000,12.1110791015625,-0.30543261766433716,0.05497787147760391,0.10995574295520782
1733461498682037200,12.121037353515625,-0.2638937830924988,0.018936822190880775,0.09285151958465576
1733461498692068000,12.131068115234376,-0.2064724564552307,-0.056810468435287476,0.006108652334660292
1733461498702057000,12.141056884765625,-0.14049901068210602,-0.16859880089759827,-0.1472185254096985
1733461498712057600,12.1510576171875,-0.03176499158143997,-0.3176499307155609,-0.44165557622909546
1733461498722046200,12.161046142578124,0.03481931984424591,-0.3628539443016052,-0.6151412725448608
1733461498732077600,12.17107763671875,0.0910189226269722,-0.38667771220207214,-0.7195992469787598
1733461498742035200,12.18103515625,0.10995574295520782,-0.3591887652873993,-0.7367035150527954
1733461498752066800,12.19106689453125,0.10323622822761536,-0.2993239760398865,-0.6737843751907349
1733461498762054700,12.2010546875,0.05009094998240471,-0.2278527319431305,-0.5412266254425049
1733461498772055600,12.2110556640625,-0.036041051149368286,-0.2064724564552307,-0.3634648323059082
1733461498782043400,12.22104345703125,-0.20097467303276062,-0.3170390725135803,-0.06902777403593063
1733461498792075000,12.231074951171875,-0.28955012559890747,-0.4550946056842804,0.10384709388017654
1733461498802032600,12.24103271484375,-0.33169981837272644,-0.6285803318023682,0.24190263450145721
1733461498812064300,12.251064208984374,-0.3591887652873993,-0.8649851679801941,0.3591887652873993
1733461498822052000,12.261052001953125,-0.403781920671463,-1.140485405921936,0.49357911944389343
1733461498832083700,12.271083740234374,-0.4502076804637909,-1.3494013547897339,0.6530149579048157
1733461498842041000,12.281041015625,-0.49296826124191284,-1.4092661142349243,0.8484918475151062
1733461498852071400,12.291071533203125,-0.5583308339118958,-1.2877039909362793,1.168585181236267
1733461498862060800,12.301060791015624,-0.5931501388549805,-1.1325441598892212,1.32863187789917
1733461498872060700,12.311060791015626,-0.6224716901779175,-0.9046914577484131,1.3921618461608887
1733461498882049800,12.3210498046875,-0.6395758986473083,-0.6340781450271606,1.338405728340149
1733461498892084500,12.33108447265625,-0.6249151229858398,-0.35674530267715454,1.166752576828003
1733461498902038800,12.341038818359374,-0.5717698931694031,-0.11972958594560623,0.8967501521110535
1733461498912071200,12.3510712890625,-0.4905247986316681,0.07819075137376785,0.5516113042831421
1733461498922058200,12.361058349609374,-0.4086688458919525,0.19853121042251587,0.17531833052635193
1733461498932058600,12.37105859375,-0.27550023794174194,0.31459560990333557,-0.35735616087913513
1733461498942047200,12.381047119140625,-0.19975294172763824,0.375071257352829,-0.656680166721344
1733461498952077800,12.391077880859376,-0.20586158335208893,0.3543018400669098,-0.8796459436416626
1733461498962036500,12.401036376953124,-0.31093040108680725,0.17959438264369965,-1.0067058801651
1733461498972066800,12.41106689453125,-0.4746423065662384,-0.021991148591041565,-1.0195341110229492
1733461498982056000,12.421055908203124,-0.6346889734268188,-0.10262536257505417,-0.9193521738052368
1733461498992057000,12.43105712890625,-0.7373143434524536,-0.059864792972803116,-0.7024950385093689
1733461499002045000,12.441044921875,-0.7831292152404785,0.05864306539297104,-0.23457226157188416
1733461499012076000,12.451075927734376,-0.7800748944282532,0.10018189996480942,0.04886921867728233
1733461499022034000,12.461033935546874,-0.7422012686729431,0.0403171069920063,0.2565633952617645
