time,seconds_elapsed,z,y,x
1733461486762557700,0.2015576171875,9.751583099365234,1.3287819623947144,-0.2298433631658554
1733461486772353000,0.21135302734375,9.785101890563965,1.4245500564575195,-0.40222588181495667
1733461486782332400,0.22133251953125,9.770736694335938,1.455674648284912,-0.4692635238170624
1733461486792342000,0.231342041015625,9.782708168029785,1.3838485479354858,-0.42616790533065796
1733461486802321400,0.2413212890625,9.804255485534668,1.292868971824646,-0.2801215946674347
1733461486812331000,0.2513310546875,9.80904483795166,1.2401964664459229,-0.10773907601833344
1733461486822340900,0.2613408203125,9.77791976928711,1.2330138683319092,-0.11013327538967133
1733461486832350700,0.271350830078125,9.758766174316406,1.237802267074585,-0.090979665517807
1733461486842329900,0.281329833984375,9.794678688049316,1.2306196689605713,-0.047884032130241394
1733461486852339500,0.29133935546875,9.830592155456543,1.2641384601593018,-0.05267243832349777
1733461486862349300,0.301349365234375,9.86889934539795,1.2641384601593018,-0.090979665517807
1733461486872328700,0.31132861328125,9.86650562286377,1.2856862545013428,-0.08140286058187485
1733461486882338300,0.32133837890625,9.739612579345703,1.278503656387329,-0.19632454216480255
1733461486892348200,0.33134814453125,9.610325813293457,1.3192051649093628,-0.22505496442317963
1733461486902327600,0.34132763671875,9.612719535827637,1.3527239561080933,-0.31364041566848755
1733461486912337200,0.351337158203125,9.66539192199707,1.3718775510787964,-0.35913026332855225
1733461486922347000,0.361346923828125,9.746794700622559,1.3862427473068237,-0.35913026332855225
1733461486932326100,0.371326171875,9.80904483795166,1.3742717504501343,-0.33758243918418884
1733461486942335700,0.381335693359375,9.773131370544434,1.3742717504501343,-0.33039984107017517
1733461486952345600,0.391345703125,9.763554573059082,1.3120225667953491,-0.2561795711517334
1733461486962325000,0.401324951171875,9.727641105651855,1.2737152576446533,-0.26575639843940735
1733461486972334600,0.41133447265625,9.75397777557373,1.3239935636520386,-0.31603461503982544
1733461486982344400,0.421344482421875,9.768342971801758,1.3239935636520386,-0.3519476354122162
1733461486992323800,0.43132373046875,9.830592155456543,1.3455413579940796,-0.31603461503982544
1733461487002333400,0.44133349609375,9.883264541625977,1.3120225667953491,-0.3471592366695404
1733461487012343300,0.45134326171875,9.928754806518555,1.3335703611373901,-0.363918662071228
1733461487022322400,0.461322509765625,9.938331604003906,1.3263877630233765,-0.38307225704193115
1733461487032332000,0.47133203125,9.916783332824707,1.3862427473068237,-0.4692635238170624
1733461487042342000,0.481341796875,9.90241813659668,1.4317326545715332,-0.47884035110473633
1733461487052321300,0.4913212890625,9.964667320251465,1.4748282432556152,-0.42856210470199585
1733461487062331100,0.5013310546875,9.99339771270752,1.522712230682373,-0.3232172429561615
1733461487072340700,0.5113408203125,9.995792388916016,1.5921441316604614,-0.2513911724090576
1733461487082350600,0.5213505859375,9.923966407775879,1.6496049165725708,-0.2082955539226532
1733461487092329700,0.531329833984375,9.78989028930664,1.678335428237915,-0.18914192914962769
1733461487102339600,0.541339599609375,9.75397777557373,1.6831238269805908,-0.16998831927776337
1733461487112349400,0.551349365234375,9.840168952941895,1.6927006244659424,-0.181959331035614
1733461487122328600,0.56132861328125,9.93354320526123,1.6759412288665771,-0.1364694982767105
1733461487132338200,0.571338134765625,10.02691650390625,1.644816517829895,-0.1364694982767105
1733461487142348000,0.58134814453125,10.007762908935547,1.6496049165725708,-0.19393034279346466
1733461487152327400,0.591327392578125,9.885659217834473,1.6831238269805908,-0.19153612852096558
1733461487162337000,0.6013369140625,9.730035781860352,1.656787633895874,-0.20111294090747833
1733461487172347000,0.611346923828125,9.624691009521484,1.6735470294952393,-0.22266076505184174
1733461487182326300,0.621326171875,9.497797966003418,1.6735470294952393,-0.17956513166427612
1733461487192336000,0.6313359375,9.493009567260742,1.647210717201233,-0.12928688526153564
1733461487202345700,0.641345703125,9.481039047241211,1.644816517829895,-0.15322890877723694
1733461487212324900,0.651324951171875,9.44752025604248,1.6639702320098877,-0.13407529890537262
1733461487222334700,0.661334716796875,9.44991397857666,1.6400281190872192,-0.0933738648891449
1733461487232344300,0.67134423828125,9.423578262329102,1.6400281190872192,-0.0694318488240242
1733461487242323700,0.68132373046875,9.461885452270508,1.6280571222305298,-0.10055647045373917
1733461487252333600,0.69133349609375,9.579200744628906,1.6519991159439087,-0.08379705995321274
1733461487262343200,0.70134326171875,9.682151794433594,1.6184803247451782,-0.0071826050989329815
1733461487272322600,0.711322509765625,9.6989107131958,1.6543933153152466,-0.12689268589019775
1733461487282332400,0.72133251953125,9.646238327026367,1.6687586307525635,-0.14844051003456116
1733461487292342000,0.731342041015625,9.679757118225098,1.6663644313812256,-0.08140286058187485
1733461487302321400,0.7413212890625,9.763554573059082,1.6735470294952393,-0.10773907601833344
1733461487312331000,0.7513310546875,9.830592155456543,1.7310078144073486,-0.14844051003456116
1733461487322340900,0.7613408203125,9.914389610290527,1.7741034030914307,-0.06224924325942993
1733461487332350700,0.771350830078125,9.78989028930664,1.824381709098816,-0.06224924325942993
1733461487342329900,0.781329833984375,9.569623947143555,1.9297266006469727,-0.023942016065120697
1733461487352339500,0.79133935546875,9.473855972290039,1.944091796875,0.004788403399288654
1733461487362349300,0.801349365234375,9.349357604980469,1.987187385559082,0.06703764945268631
1733461487372328700,0.81132861328125,9.399636268615723,2.0039467811584473,0.15801730751991272
1733461487382338300,0.82133837890625,9.481039047241211,1.987187385559082,0.19153612852096558
1733461487392348200,0.83134814453125,9.50737476348877,1.9512743949890137,0.2825157940387726
1733461487402327600,0.84132763671875,9.519346237182617,1.944091796875,0.31124621629714966
1733461487412337200,0.851337158203125,9.713275909423828,1.9249382019042969,0.4692635238170624
1733461487422347000,0.861346923828125,9.792284965515137,1.8722656965255737,0.667982280254364
1733461487432326100,0.871326171875,10.022128105163574,1.8914192914962769,0.6488286852836609
1733461487442335700,0.881335693359375,10.017339706420898,1.900996208190918,0.646434485912323
1733461487452345600,0.891345703125,9.976638793945312,1.8914192914962769,0.6919242739677429
1733461487462325000,0.901324951171875,9.828198432922363,1.8770540952682495,0.6631938815116882
1733461487472334600,0.91133447265625,9.63187313079834,1.8531121015548706,0.6775590777397156
1733461487482344400,0.921344482421875,9.509769439697266,1.8507179021835327,0.7206547260284424
1733461487492323800,0.93132373046875,9.423578262329102,1.843535304069519,0.7350199222564697
1733461487502333400,0.94133349609375,9.461885452270508,1.843535304069519,0.7829039692878723
1733461487512343300,0.95134326171875,9.615114212036133,1.821987509727478,0.7661445140838623
1733461487522322400,0.961322509765625,9.734824180603027,1.8722656965255737,0.6272808313369751
1733461487532332000,0.97133203125,9.847352027893066,1.8914192914962769,0.5722141861915588
1733461487542342000,0.981341796875,9.897629737854004,1.8698714971542358,0.4812345504760742
1733461487552321300,0.9913212890625,9.96945571899414,1.8387469053268433,0.33758243918418884
1733461487562331100,1.0013310546875,10.086771965026855,1.8339585065841675,0.15801730751991272
1733461487572340700,1.0113408203125,10.20887565612793,1.7764976024627686,0.07422025501728058
1733461487582350600,1.0213505859375,10.359710693359375,1.680729627609253,0.16519992053508759
1733461487592329700,1.031329833984375,10.378864288330078,1.7094600200653076,0.016759412363171577
1733461487602339600,1.041339599609375,10.347740173339844,1.8363527059555054,-0.2082955539226532
1733461487612349400,1.051349365234375,10.314221382141113,1.7932571172714233,-0.1867477297782898
1733461487622328600,1.06132861328125,10.127472877502441,1.8411411046981812,-0.24420857429504395
1733461487632338200,1.071338134765625,9.68933391571045,1.8531121015548706,-0.043095629662275314
1733461487642348000,1.08134814453125,9.32541561126709,1.9393033981323242,0.05746084079146385
1733461487652327400,1.091327392578125,9.035717010498047,2.0470423698425293,0.09816227108240128
1733461487662337000,1.1013369140625,8.9064302444458,2.1140801906585693,0.14604631066322327
1733461487672347000,1.111346923828125,8.99740982055664,2.1164743900299072,0.12210428714752197
1733461487682326300,1.121326171875,9.32541561126709,2.0877439975738525,0.0694318488240242
1733461487692335900,1.1313359375,9.701305389404297,2.051830768585205,-0.08858546614646912
1733461487702345700,1.141345703125,10.160991668701172,2.032677173614502,-0.19393034279346466
1733461487712324900,1.151324951171875,10.587160110473633,1.9560627937316895,-0.4165911078453064
1733461487722334700,1.161334716796875,10.766724586486816,1.9057846069335938,-0.545877993106842
1733461487732344300,1.17134423828125,10.766724586486816,1.8746598958969116,-0.6823474764823914
1733461487742323700,1.18132373046875,10.584765434265137,1.8483237028121948,-0.8068459630012512
1733461487752333600,1.19133349609375,10.273519515991211,1.8770540952682495,-0.9481038451194763
1733461487762343200,1.20134326171875,9.739612579345703,1.9249382019042969,-1.0223240852355957
1733461487772322600,1.211322509765625,9.253589630126953,1.9153614044189453,-1.0558429956436157
1733461487782332400,1.22133251953125,8.803479194641113,1.86508309841156,-1.0797849893569946
1733461487792342000,1.231342041015625,8.482656478881836,1.8794482946395874,-0.9744400978088379
1733461487802321400,1.2413212890625,8.197746276855469,1.8962076902389526,-0.9097966551780701
1733461487812331000,1.2513310546875,7.8098859786987305,1.9632453918457031,-0.9696516990661621
1733461487822340900,1.2613408203125,7.405265808105469,2.2912509441375732,-1.2497732639312744
1733461487832350500,1.2713505859375,7.070077419281006,2.542642116546631,-1.4389152526855469
1733461487842329900,1.281329833984375,6.84981107711792,2.674323320388794,-1.4077905416488647
1733461487852339500,1.29133935546875,6.897695064544678,2.7557260990142822,-1.292868971824646
1733461487862349300,1.301349365234375,7.287950038909912,2.655169725418091,-1.0271124839782715
1733461487872328700,1.31132861328125,8.039729118347168,2.473210334777832,-0.646434485912323
1733461487882338300,1.32133837890625,8.932766914367676,2.33913516998291,-0.40462008118629456
1733461487892348200,1.33134814453125,10.022128105163574,2.2361843585968018,-0.30885201692581177
1733461487902327600,1.34132763671875,10.927136421203613,2.2242133617401123,-0.26575639843940735
1733461487912337200,1.351337158203125,11.678915977478027,2.2002713680267334,-0.23942017555236816
1733461487922347000,1.361346923828125,12.057199478149414,2.252943754196167,-0.29209262132644653
1733461487932326100,1.371326171875,12.09550666809082,2.346317768096924,-0.31603461503982544
1733461487942335700,1.381335693359375,11.808202743530273,2.47560453414917,-0.2944868206977844
1733461487952345600,1.391345703125,11.168951034545898,2.5665841102600098,-0.43095630407333374
1733461487962325000,1.401324951171875,10.237606048583984,2.6647465229034424,-0.4668693244457245
1733461487972334800,1.4113349609375,9.473855972290039,2.7078421115875244,-0.5793967843055725
1733461487982344400,1.421344482421875,8.736441612243652,2.7437551021575928,-0.6560112833976746
1733461487992323800,1.43132373046875,8.271966934204102,2.7126305103302,-0.6584054827690125
1733461488002333400,1.44133349609375,7.9631147384643555,2.7006595134735107,-0.6584054827690125
1733461488012343300,1.45134326171875,7.7763671875,2.5689783096313477,-0.7493851184844971
1733461488022322400,1.461322509765625,7.7428483963012695,2.494758129119873,-0.5889736413955688
1733461488032332000,1.47133203125,7.7643961906433105,2.4396915435791016,-0.6991068720817566
1733461488042342000,1.481341796875,7.982268333435059,2.4803929328918457,-0.7589619159698486
1733461488052321300,1.4913212890625,8.40843677520752,2.5330653190612793,-0.7972691655158997
1733461488062331100,1.5013310546875,8.69095230102539,2.5929205417633057,-0.8834604024887085
1733461488072340700,1.5113408203125,8.827422142028809,2.674323320388794,-0.9313444495201111
1733461488082350600,1.5213505859375,8.83699893951416,2.8227639198303223,-1.094150185585022
1733461488092329700,1.531329833984375,8.89685344696045,2.96162748336792,-1.2761094570159912
1733461488102339600,1.541339599609375,8.947132110595703,3.0406360626220703,-1.2952631711959839
1733461488112349400,1.551349365234375,9.119514465332031,3.0621838569641113,-1.3215993642807007
1733461488122328600,1.56132861328125,9.311050415039062,3.0813376903533936,-1.3215993642807007
1733461488132338200,1.571338134765625,9.62947940826416,3.0813376903533936,-1.3838485479354858
1733461488142348000,1.58134814453125,10.036493301391602,3.1507694721221924,-1.4748282432556152
1733461488152327400,1.591327392578125,10.582371711730957,3.19865345954895,-1.381454348564148
1733461488162337000,1.6013369140625,10.900800704956055,3.1435868740081787,-1.0438719987869263
1733461488172347000,1.611346923828125,10.982203483581543,3.1459810733795166,-0.6512228846549988
1733461488182326300,1.621326171875,10.6709566116333,3.1914708614349365,-0.363918662071228
1733461488192336000,1.6313359375,10.125079154968262,3.2968156337738037,-0.038307227194309235
1733461488202345700,1.641345703125,9.399636268615723,3.2082302570343018,0.14844051003456116
1733461488212324900,1.651324951171875,9.059659004211426,3.224989652633667,0.10534487664699554
1733461488222334700,1.661334716796875,9.011775016784668,3.095702886581421,0.1149216815829277
1733461488232344300,1.67134423828125,9.339780807495117,2.892195701599121,0.2801215946674347
1733461488242323700,1.68132373046875,10.062829971313477,2.650381326675415,0.4572925269603729
1733461488252333600,1.69133349609375,10.742782592773438,2.5091233253479004,0.5937620401382446
1733461488262343200,1.70134326171875,11.274295806884766,2.5282769203186035,0.47165772318840027
1733461488272322600,1.711322509765625,11.654973983764648,2.80361008644104,-0.023942016065120697
1733461488282332400,1.72133251953125,11.690886497497559,3.021482467651367,-0.2298433631658554
1733461488292342000,1.731342041015625,11.650185585021973,3.090914487838745,-0.1364694982767105
1733461488302321400,1.7413212890625,11.760318756103516,3.1268274784088135,-0.004788403399288654
1733461488312331000,1.7513310546875,12.021286964416504,3.0573954582214355,-0.07661445438861847
1733461488322340900,1.7613408203125,12.198457717895508,2.9472622871398926,-0.1412578970193863
1733461488332350500,1.7713505859375,12.650961875915527,2.8371291160583496,-0.35434186458587646
1733461488342329900,1.781329833984375,13.060370445251465,2.7461493015289307,-0.4812345504760742
1733461488352339500,1.79133935546875,13.232752799987793,2.4660277366638184,-0.4429273009300232
1733461488362349300,1.801349365234375,13.232752799987793,2.1332337856292725,-0.5123591423034668
1733461488372328700,1.81132861328125,13.232752799987793,1.6065093278884888,-0.45010992884635925
1733461488382338300,1.82133837890625,13.55118179321289,1.036689281463623,-0.2968810200691223
1733461488392348200,1.83134814453125,14.113819122314453,0.5171475410461426,-0.06224924325942993
1733461488402327600,1.84132763671875,14.731523513793945,0,0.36152446269989014
1733461488412337200,1.851337158203125,14.573505401611328,-0.3423708379268646,0.545877993106842
1733461488422347000,1.861346923828125,14.113819122314453,-0.11971008777618408,0.6057330369949341
1733461488432326100,1.871326171875,13.096282958984375,0.13168109953403473,0.43095630407333374
1733461488442335700,1.881335693359375,11.264719009399414,0.4189853072166443,0.4596867263317108
1733461488452345600,1.891345703125,9.349357604980469,0.49320554733276367,0.49799394607543945
1733461488462325000,1.901324951171875,7.268796443939209,0.3734954595565796,0.828393816947937
1733461488472334600,1.91133447265625,5.659893035888672,0.16998831927776337,1.3192051649093628
1733461488482344400,1.921344482421875,4.271255970001221,0.2059013396501541,1.3024457693099976
1733461488492323800,1.93132373046875,3.6822822093963623,0.30885201692581177,1.0438719987869263
1733461488502333400,1.94133349609375,3.7612907886505127,0.4405331015586853,1.0223240852355957
1733461488512343300,1.95134326171875,4.197035789489746,0.4213795065879822,0.8690952062606812
1733461488522322400,1.961322509765625,4.967968463897705,0.2801215946674347,0.5291185975074768
1733461488532332000,1.97133203125,5.724536418914795,0.2322375625371933,0.5171475410461426
1733461488542342000,1.981341796875,6.335057735443115,0.14604631066322327,0.6512228846549988
1733461488552321300,1.9913212890625,6.739677906036377,0.021547814831137657,0.7206547260284424
1733461488562331100,2.0013310546875,6.615179061889648,-0.035913024097681046,0.7613561153411865
1733461488572340700,2.0113408203125,6.311115741729736,0.004788403399288654,0.6775590777397156
1733461488582350600,2.0213505859375,6.296750545501709,0.19393034279346466,0.586579442024231
1733461488592329700,2.031329833984375,6.768408298492432,0.49559974670410156,0.35913026332855225
1733461488602339600,2.041339599609375,7.766790390014648,0.8475474119186401,0.05985504388809204
1733461488612349400,2.051349365234375,8.700529098510742,1.158793568611145,-0.28969839215278625
1733461488622328600,2.06132861328125,9.780313491821289,1.5825673341751099,-0.6057330369949341
1733461488632338200,2.071338134765625,10.611102104187012,1.8986018896102905,-0.8451532125473022
1733461488642348000,2.08134814453125,11.17852783203125,2.2026655673980713,-0.8571242094039917
1733461488652327400,2.091327392578125,11.487380027770996,2.3104045391082764,-0.6200982332229614
1733461488662337000,2.1013369140625,11.453861236572266,2.4205379486083984,-0.363918662071228
1733461488672347000,2.111346923828125,11.197681427001953,2.5905263423919678,-0.20350714027881622
1733461488682326300,2.121326171875,10.828974723815918,2.7940332889556885,0.05985504388809204
1733461488692335900,2.1313359375,10.51054573059082,2.9041666984558105,0.2968810200691223
1733461488702345700,2.141345703125,10.002974510192871,3.028665065765381,0.3926490843296051
1733461488712324900,2.151324951171875,9.581595420837402,3.1938650608062744,0.395043283700943
1733461488722334700,2.161334716796875,9.308655738830566,3.2800562381744385,0.4381389021873474
1733461488732344300,2.17134423828125,9.057265281677246,3.354276657104492,0.24660277366638184
1733461488742323700,2.18132373046875,8.956708908081055,3.4117374420166016,0.15322890877723694
1733461488752333600,2.19133349609375,8.966285705566406,3.3207578659057617,0.2346317619085312
1733461488762343200,2.20134326171875,8.995016098022461,3.2800562381744385,0.4141969084739685
1733461488772322600,2.211322509765625,9.016563415527344,3.201047658920288,0.49559974670410156
1733461488782332400,2.22133251953125,9.129091262817383,3.1747114658355713,0.5482721924781799
1733461488792342000,2.231342041015625,9.255983352661133,3.0765492916107178,0.5626373887062073
1733461488802321400,2.2413212890625,9.320627212524414,2.8227639198303223,0.7469909191131592
1733461488812331000,2.2513310546875,9.543288230895996,2.518700122833252,0.8690952062606812
1733461488822340900,2.2613408203125,10.431536674499512,2.382230758666992,0.8379706144332886
1733461488832350500,2.2713505859375,11.410765647888184,2.229001760482788,0.7350199222564697
1733461488842329900,2.281329833984375,12.689269065856934,2.1284453868865967,0.646434485912323
1733461488852339500,2.29133935546875,13.646949768066406,1.946485996246338,0.5099649429321289
1733461488862349300,2.301349365234375,14.168885231018066,1.7381904125213623,0.47884035110473633
1733461488872328700,2.31132861328125,14.166491508483887,1.6519991159439087,0.48602294921875
1733461488882338300,2.32133837890625,13.603854179382324,1.6927006244659424,0.15801730751991272
1733461488892348200,2.33134814453125,12.777854919433594,1.8411411046981812,-0.2849099934101105
1733461488902327600,2.34132763671875,11.81059741973877,2.1356279850006104,-0.7637503147125244
1733461488912337200,2.351337158203125,11.202469825744629,2.4181437492370605,-0.8954314589500427
1733461488922347000,2.361346923828125,10.797849655151367,2.7485435009002686,-0.9744400978088379
1733461488932326100,2.371326171875,10.831368446350098,3.0382418632507324,-1.1899182796478271
1733461488942335700,2.381335693359375,10.886435508728027,2.9017724990844727,-1.5059528350830078
1733461488952345600,2.391345703125,11.219228744506836,2.4636335372924805,-1.623268723487854
1733461488962325000,2.401324951171875,11.997344970703125,1.778891921043396,-1.2665326595306396
1733461488972334600,2.41133447265625,13.421895027160645,0.6919242739677429,-0.47884035110473633
1733461488982344400,2.421344482421875,14.894329071044922,-0.11971008777618408,0.06464344263076782
1733461488992323800,2.43132373046875,16.019603729248047,-0.6440402865409851,0.31603461503982544
1733461489002333400,2.44133349609375,16.15128517150879,-0.6631938815116882,-0.090979665517807
1733461489012343300,2.45134326171875,14.963760375976562,-0.38546648621559143,-1.036689281463623
1733461489022322400,2.461322509765625,12.354081153869629,-0.14604631066322327,-1.8770540952682495
1733461489032332000,2.47133203125,9.196128845214844,0.004788403399288654,-2.403778553009033
1733461489042342000,2.481341796875,6.552929878234863,0.12689268589019775,-2.492363929748535
1733461489052321300,2.4913212890625,4.541800498962402,0.29209262132644653,-2.964021682739258
1733461489062331100,2.5013310546875,3.021482467651367,0.9409212470054626,-3.514688014984131
1733461489072340700,2.5113408203125,2.516305923461914,1.659181833267212,-4.084507942199707
1733461489082350600,2.5213505859375,2.43011474609375,2.2002713680267334,-4.343081951141357
1733461489092329700,2.531329833984375,3.2178070545196533,2.121262788772583,-3.4380736351013184
1733461489102339600,2.541339599609375,4.469974517822266,1.37906014919281,-1.558625340461731
1733461489112349400,2.551349365234375,5.585672378540039,0.7829039692878723,-0.09816227108240128
1733461489122328600,2.56132861328125,6.9455790519714355,0.26096799969673157,0.9265560507774353
1733461489132338200,2.571338134765625,8.255207061767578,0.10295066982507706,1.2090718746185303
1733461489142348000,2.58134814453125,9.23682975769043,0.17238251864910126,1.0007762908935547
1733461489152327400,2.591327392578125,9.593565940856934,0.4668693244457245,0.5291185975074768
1733461489162337000,2.6013369140625,9.588777542114258,0.751779317855835,0.14365209639072418
1733461489172347000,2.611346923828125,9.354146003723145,1.1468225717544556,-0.3256114423274994
1733461489182326300,2.621326171875,9.126696586608887,1.5610195398330688,-0.7876923680305481
1733461489192336000,2.6313359375,8.793902397155762,2.097320795059204,-1.278503656387329
1733461489202345700,2.641345703125,8.523358345031738,2.454056739807129,-1.455674648284912
1733461489212324900,2.651324951171875,8.022970199584961,2.7533318996429443,-1.577778935432434
1733461489222334700,2.661334716796875,7.50582218170166,2.896984100341797,-1.4508862495422363
1733461489232344300,2.67134423828125,7.072471618652344,2.937685489654541,-1.2665326595306396
1733461489242323700,2.68132373046875,7.007828235626221,2.9903578758239746,-1.0821791887283325
1733461489252333600,2.69133349609375,7.2352776527404785,3.0861260890960693,-1.0319008827209473
1733461489262343200,2.70134326171875,7.594407558441162,3.1316158771514893,-1.0342950820922852
1733461489272322600,2.711322509765625,7.955932140350342,3.117250680923462,-1.015141487121582
1733461489282332400,2.72133251953125,8.47547435760498,3.069366693496704,-0.8475474119186401
1733461489292342000,2.731342041015625,8.858546257019043,2.959233283996582,-0.6177040338516235
1733461489302321400,2.7413212890625,9.162610054016113,2.942473888397217,-0.5602431893348694
1733461489312331300,2.751331298828125,9.368511199951172,2.9735984802246094,-0.5482721924781799
1733461489322340900,2.7613408203125,9.730035781860352,3.1004912853240967,-0.45489832758903503
1733461489332350500,2.7713505859375,9.998186111450195,3.0166940689086914,-0.40462008118629456
1733461489342329900,2.781329833984375,10.105925559997559,3.004723072052002,-0.0933738648891449
1733461489352339500,2.79133935546875,10.096348762512207,3.07415509223938,-0.08379705995321274
1733461489362349300,2.801349365234375,10.062829971313477,3.181894063949585,-0.12210428714752197
1733461489372328700,2.81132861328125,9.971850395202637,3.287238836288452,-0.1149216815829277
1733461489382338300,2.82133837890625,9.95748519897461,3.265691041946411,-0.13407529890537262
1733461489392348200,2.83134814453125,10.160991668701172,3.1435868740081787,-0.05746084079146385
1733461489402327600,2.84132763671875,10.211270332336426,3.0166940689086914,-0.011971008032560349
1733461489412337200,2.851337158203125,10.400412559509277,2.7557260990142822,0.23702596127986908
1733461489422347000,2.861346923828125,10.709263801574707,2.4396915435791016,0.10295066982507706
1733461489432326100,2.871326171875,11.243170738220215,2.2649147510528564,-0.2322375625371933
1733461489442335700,2.881335693359375,11.84650993347168,2.2026655673980713,-0.2849099934101105
1733461489452345600,2.891345703125,12.72996997833252,2.319981336593628,0.20350714027881622
1733461489462325000,2.901324951171875,13.560758590698242,2.3750481605529785,0.7182605266571045
1733461489472334600,2.91133447265625,14.494497299194336,2.609679937362671,0.8331822156906128
1733461489482344400,2.921344482421875,14.985308647155762,2.8107926845550537,0.6512228846549988
1733461489492323800,2.93132373046875,14.623784065246582,2.8419175148010254,0.6200982332229614
1733461489502333400,2.94133349609375,13.67807388305664,2.3319525718688965,0.49559974670410156
1733461489512343300,2.95134326171875,13.204022407531738,1.702277421951294,0.4836287498474121
1733461489522322400,2.961322509765625,13.28063678741455,1.0534487962722778,0.5434837937355042
1733461489532332000,2.97133203125,13.9462251663208,0.5219359993934631,1.173158884048462
1733461489542342000,2.981341796875,14.528016090393066,0.10773907601833344,1.8315643072128296
1733461489552321300,2.9913212890625,13.886369705200195,0.08379705995321274,1.9608511924743652
1733461489562331100,3.0013310546875,12.174515724182129,0.3232172429561615,1.6328455209732056
1733461489572340700,3.0113408203125,10.359710693359375,0.3878606855869293,1.7501614093780518
1733461489582350600,3.0213505859375,8.329427719116211,0.45489832758903503,1.867477297782898
1733461489592329700,3.031329833984375,6.682217121124268,0.5530605912208557,1.7094600200653076
1733461489602339600,3.041339599609375,5.638344764709473,0.47884035110473633,1.6208745241165161
1733461489612349400,3.051349365234375,5.106832027435303,0.2992752194404602,1.6735470294952393
1733461489622328600,3.06132861328125,5.2696380615234375,0.002394201699644327,2.030282974243164
1733461489632338200,3.071338134765625,6.150704383850098,-0.2968810200691223,2.346317768096924
1733461489642348000,3.08134814453125,6.799532890319824,-0.047884032130241394,1.5658079385757446
1733461489652327400,3.091327392578125,7.249642848968506,0.5315127968788147,0.5482721924781799
1733461489662337000,3.1013369140625,7.3023152351379395,0.8259995579719543,0.10773907601833344
1733461489672347000,3.111346923828125,7.187393665313721,1.0558429956436157,-0.2585737705230713
1733461489682326300,3.121326171875,7.110779285430908,1.3335703611373901,-0.5722141861915588
1733461489692335900,3.1313359375,7.15387487411499,1.680729627609253,-0.9840168952941895
1733461489702345700,3.141345703125,7.534552574157715,1.9800047874450684,-1.45806884765625
1733461489712324900,3.151324951171875,7.86734676361084,2.3535003662109375,-1.9345149993896484
1733461489722334700,3.161334716796875,8.214506149291992,2.6024973392486572,-2.31758713722229
1733461489732344300,3.17134423828125,8.607154846191406,2.6455929279327393,-2.252943754196167
1733461489742323700,3.18132373046875,8.968679428100586,2.535459518432617,-1.9393033981323242
1733461489752333600,3.19133349609375,9.162610054016113,2.3965959548950195,-1.5610195398330688
1733461489762343200,3.20134326171875,9.229647636413574,2.33913516998291,-1.2976573705673218
1733461489772322600,3.211322509765625,9.284713745117188,2.4396915435791016,-1.2449848651885986
1733461489782332400,3.22133251953125,9.162610054016113,2.5450363159179688,-1.2306196689605713
1733461489792342000,3.231342041015625,8.975862503051758,2.609679937362671,-1.2018892765045166
1733461489802321400,3.2413212890625,8.595184326171875,2.58813214302063,-0.9385270476341248
1733461489812331300,3.251331298828125,8.159439086914062,2.410961151123047,-0.49799394607543945
1733461489822340900,3.2613408203125,7.817068576812744,2.3032219409942627,-0.12689268589019775
1733461489832350500,3.2713505859375,7.666234016418457,2.2625205516815186,0.14365209639072418
1733461489842329900,3.281329833984375,7.55131196975708,2.233790159225464,0.28730419278144836
1733461489852339500,3.29133935546875,7.800309181213379,2.1978771686553955,0.43335050344467163
1733461489862349300,3.301349365234375,8.17380428314209,2.1308395862579346,0.5027823448181152
1733461489872328700,3.31132861328125,8.585607528686523,2.0590133666992188,0.6057330369949341
1733461489882338300,3.32133837890625,8.89685344696045,2.073378562927246,0.6536170840263367
1733461489892348200,3.33134814453125,9.191340446472168,2.1380221843719482,0.5674257874488831
1733461489902327600,3.34132763671875,9.35654067993164,2.3247697353363037,0.4357447028160095
1733461489912337200,3.351337158203125,9.612719535827637,2.540247917175293,0.22744916379451752
1733461489922347000,3.361346923828125,9.832986831665039,2.7557260990142822,0.0454898327589035
1733461489932326100,3.371326171875,10.132261276245117,2.918531894683838,-0.07182604819536209
1733461489942335700,3.381335693359375,10.38604736328125,3.021482467651367,-0.040701430290937424
1733461489952345600,3.391345703125,10.623072624206543,3.002328872680664,0.10534487664699554
1733461489962325000,3.401324951171875,11.046846389770508,2.7988216876983643,0.31124621629714966
1733461489972334600,3.41133447265625,11.492168426513672,2.5043349266052246,0.5386953949928284
1733461489982344400,3.421344482421875,11.949460983276367,2.2026655673980713,0.8451532125473022
1733461489992323800,3.43132373046875,12.382811546325684,2.0183119773864746,0.9289502501487732
1733461490002333400,3.44133349609375,12.830527305603027,2.0422539710998535,0.6057330369949341
1733461490012343300,3.45134326171875,13.148955345153809,2.2840683460235596,-0.004788403399288654
1733461490022322400,3.461322509765625,13.311761856079102,2.717418909072876,-0.6153098344802856
1733461490032332000,3.47133203125,13.230358123779297,3.071760892868042,-0.9816226959228516
1733461490042342000,3.481341796875,12.986149787902832,3.3279404640197754,-1.1851298809051514
1733461490052321300,3.4913212890625,12.67011547088623,3.313575267791748,-1.5275006294250488
1733461490062331100,3.5013310546875,12.528857231140137,3.0358476638793945,-1.867477297782898
1733461490072340700,3.5113408203125,12.995726585388184,2.3032219409942627,-2.054224967956543
1733461490082350600,3.5213505859375,14.269442558288574,1.4197616577148438,-1.7956513166427612
1733461490092329700,3.531329833984375,16.132131576538086,0.5291185975074768,-1.2880805730819702
1733461490102339600,3.541339599609375,17.832014083862305,-0.06703764945268631,-0.7733271718025208
1733461490112349400,3.551349365234375,19.01235580444336,-0.5913678407669067,-0.019153613597154617
1733461490122328600,3.56132861328125,18.083404541015625,-0.6703764796257019,0.24420857429504395
1733461490132338200,3.571338134765625,15.097835540771484,-0.29209262132644653,-0.524330198764801
1733461490142348000,3.58134814453125,11.353304862976074,-0.14844051003456116,-0.6344634294509888
1733461490152327400,3.591327392578125,8.003816604614258,-0.0933738648891449,-0.8451532125473022
1733461490162337000,3.6013369140625,4.424484729766846,0.15562310814857483,-1.1803414821624756
1733461490172347000,3.611346923828125,1.6759412288665771,0.5363011956214905,-1.335964560508728
1733461490182326300,3.621326171875,-0.11252748221158981,0.9576807022094727,-1.3838485479354858
1733461490192109300,3.631109375,0.009576806798577309,1.216254472732544,-1.5179238319396973
1733461490202424300,3.64142431640625,1.0199298858642578,0.9169792532920837,-1.194706678390503
1733461490212324900,3.651324951171875,2.4636335372924805,0.6655880808830261,-0.4213795065879822
1733461490222334700,3.661334716796875,4.338293552398682,0.4836287498474121,0.3495534360408783
1733461490232344300,3.67134423828125,6.045359134674072,0.21308395266532898,0.9169792532920837
1733461490242323700,3.68132373046875,7.826645374298096,0.035913024097681046,1.400607943534851
1733461490252333600,3.69133349609375,9.279925346374512,0.019153613597154617,1.5610195398330688
1733461490262343200,3.70134326171875,9.974244117736816,0.19632454216480255,1.6112977266311646
1733461490272322600,3.711322509765625,10.29746150970459,0.48602294921875,1.5945383310317993
1733461490282332400,3.72133251953125,10.338163375854492,0.8188169598579407,1.2832920551300049
1733461490292342000,3.731342041015625,10.170568466186523,1.4269442558288574,0.7565677165985107
1733461490302321400,3.7413212890625,10.000580787658691,1.9393033981323242,0.38067805767059326
1733461490312331300,3.751331298828125,9.86889934539795,2.406172752380371,0.10295066982507706
1733461490322340900,3.7613408203125,9.96945571899414,2.7916390895843506,0.011971008032560349
1733461490332350500,3.7713505859375,9.93593692779541,3.0789434909820557,0.05746084079146385
1733461490342329900,3.781329833984375,10.005369186401367,3.2106244564056396,0.33518823981285095
1733461490352339500,3.79133935546875,10.213664054870605,3.2585084438323975,0.5123591423034668
1733461490362349300,3.801349365234375,10.230423927307129,3.2082302570343018,0.6799532771110535
1733461490372328700,3.81132861328125,10.182539939880371,3.098097085952759,0.8738836050033569
1733461490382338300,3.82133837890625,10.062829971313477,2.937685489654541,0.9026140570640564
1733461490392348200,3.83134814453125,9.971850395202637,2.8131868839263916,0.849941611289978
1733461490402327600,3.84132763671875,9.825803756713867,2.674323320388794,0.7972691655158997
1733461490412337200,3.851337158203125,9.710882186889648,2.537853717803955,0.7589619159698486
1733461490422347000,3.861346923828125,9.6989107131958,2.3319525718688965,0.7948749661445618
1733461490432326100,3.871326171875,9.569623947143555,2.1763293743133545,0.7948749661445618
1733461490442335700,3.881335693359375,9.363722801208496,1.9991583824157715,0.7637503147125244
1733461490452345600,3.891345703125,9.155426979064941,1.7860745191574097,0.8451532125473022
1733461490462325000,3.901324951171875,8.846575736999512,1.4867992401123047,0.9672574996948242
1733461490472334600,3.91133447265625,8.611943244934082,1.2425906658172607,1.1971008777618408
1733461490482344400,3.921344482421875,8.508993148803711,1.0821791887283325,1.2976573705673218
1733461490492323800,3.93132373046875,8.710105895996094,0.9648633003234863,1.2282254695892334
1733461490502333400,3.94133349609375,9.196128845214844,0.9002198576927185,1.1755530834197998
1733461490512343300,3.95134326171875,9.892841339111328,0.8403648138046265,1.0007762908935547
1733461490522322400,3.961322509765625,10.500968933105469,0.751779317855835,0.8571242094039917
1733461490532332000,3.97133203125,11.046846389770508,0.8044517636299133,0.7589619159698486
1733461490542342000,3.981341796875,11.262324333190918,1.170764684677124,0.5937620401382446
1733461490552321300,3.9913212890625,11.094730377197266,1.6615760326385498,0.21547815203666687
1733461490562331100,4.0013310546875,10.491392135620117,1.8100165128707886,0.0694318488240242
1733461490572340700,4.0113408203125,9.50498104095459,1.6711528301239014,0.24899697303771973
1733461490582350600,4.0213505859375,9.059659004211426,1.2856862545013428,0.9792284965515137
1733461490592329700,4.031329833984375,9.378087997436523,0.7924807667732239,1.6639702320098877
1733461490602339600,4.041339599609375,10.38604736328125,0.6967126727104187,1.7597382068634033
1733461490612349400,4.051349365234375,11.896788597106934,0.42856210470199585,1.601720929145813
1733461490622328600,4.06132861328125,12.725181579589844,-0.10534487664699554,2.006340980529785
1733461490632338200,4.071338134765625,12.993332862854004,-0.1149216815829277,1.8076223134994507
1733461490642348000,4.08134814453125,12.627019882202148,-0.05267243832349777,1.4724340438842773
1733461490652327400,4.091327392578125,11.808202743530273,0.10534487664699554,1.2042834758758545
1733461490662337000,4.1013369140625,10.72841739654541,0.40222588181495667,0.9864110946655273
1733461490672347000,4.111346923828125,9.943120002746582,0.5003881454467773,0.9193734526634216
1733461490682326300,4.121326171875,9.258378028869629,0.5793967843055725,0.8188169598579407
1733461490692335900,4.1313359375,8.865729331970215,0.6727706789970398,0.8643068075180054
1733461490702345700,4.141345703125,8.69334602355957,0.7015010714530945,0.9265560507774353
1733461490712324900,4.151324951171875,8.451532363891602,0.7565677165985107,1.0773907899856567
1733461490722334700,4.161334716796875,8.08282470703125,0.7972691655158997,1.170764684677124
1733461490732344300,4.17134423828125,7.580042362213135,0.8475474119186401,1.1971008777618408
1733461490742323700,4.18132373046875,7.158663272857666,0.9672574996948242,1.1109095811843872
1733461490752333600,4.19133349609375,6.766014099121094,1.094150185585022,0.9528923034667969
1733461490762343200,4.20134326171875,6.92881965637207,1.0797849893569946,0.7613561153411865
1733461490772322600,4.211322509765625,7.283161640167236,0.9026140570640564,0.8236053586006165
1733461490782332400,4.22133251953125,7.860164165496826,0.8379706144332886,0.7326257228851318
1733461490792342000,4.231342041015625,8.801085472106934,0.8092401623725891,0.47405192255973816
1733461490802321400,4.2413212890625,10.189722061157227,0.646434485912323,0.6200982332229614
1733461490812331300,4.251331298828125,11.425130844116211,0.4596867263317108,0.6536170840263367
1733461490822340900,4.2613408203125,12.205639839172363,0.7805097699165344,0.23702596127986908
1733461490832350500,4.2713505859375,12.58152961730957,1.0989385843276978,-0.20350714027881622
1733461490842329900,4.281329833984375,12.555193901062012,1.2689268589019775,-0.30885201692581177
1733461490852339500,4.29133935546875,12.050017356872559,1.414973258972168,-0.4141969084739685
1733461490862349300,4.301349365234375,11.32457447052002,1.601720929145813,-0.4118026793003082
1733461490872328700,4.31132861328125,10.642226219177246,1.6280571222305298,-0.3878606855869293
1733461490882338300,4.32133837890625,9.830592155456543,1.6136919260025024,-0.15801730751991272
1733461490892348200,4.33134814453125,9.157821655273438,1.5442601442337036,0.05027823522686958
1733461490902327600,4.34132763671875,8.678980827331543,1.5514427423477173,0.13168109953403473
1733461490912337200,4.351337158203125,8.336610794067383,1.5442601442337036,0.22026655077934265
1733461490922347000,4.361346923828125,8.159439086914062,1.501164436340332,0.31124621629714966
1733461490932326100,4.371326171875,8.125920295715332,1.4413094520568848,0.35913026332855225
1733461490942335700,4.381335693359375,8.085219383239746,1.4628572463989258,0.2753331959247589
1733461490952345600,4.391345703125,8.058882713317871,1.534683346748352,0.272938996553421
1733461490962325000,4.401324951171875,8.097189903259277,1.4748282432556152,0.33279404044151306
1733461490972334600,4.41133447265625,7.970297336578369,1.455674648284912,0.07182604819536209
1733461490982344400,4.421344482421875,7.927201747894287,1.4389152526855469,-0.004788403399288654
1733461490992323800,4.43132373046875,8.022970199584961,1.3742717504501343,-0.181959331035614
1733461491002333700,4.441333740234375,8.252813339233398,1.2449848651885986,-0.2537853717803955
1733461491012343300,4.45134326171875,8.767566680908203,1.0534487962722778,-0.12689268589019775
1733461491022322400,4.461322509765625,9.32541561126709,0.9433154463768005,0.0071826050989329815
1733461491032332300,4.471332275390625,9.66299819946289,1.1085153818130493,-0.17717093229293823
1733461491042342000,4.481341796875,9.907206535339355,1.482010841369629,-0.44532153010368347
1733461491052321300,4.4913212890625,10.043676376342773,1.800439715385437,-0.730231523513794
1733461491062331100,4.5013310546875,10.182539939880371,2.123656988143921,-0.8810662031173706
1733461491072340700,4.5113408203125,10.27591323852539,2.403778553009033,-1.036689281463623
1733461491082350600,4.5213505859375,10.338163375854492,2.5761611461639404,-0.9959878921508789
1733461491092330000,4.531330078125,10.424354553222656,2.612074136734009,-0.9241618514060974
1733461491102339600,4.541339599609375,10.548852920532227,2.691082715988159,-0.9576807022094727
1733461491112349400,4.551349365234375,10.706870079040527,2.8419175148010254,-1.091755986213684
1733461491122328600,4.56132861328125,10.84094524383545,2.9448680877685547,-1.2737152576446533
1733461491132338200,4.571338134765625,11.044452667236328,3.090914487838745,-1.4484920501708984
1733461491142348000,4.58134814453125,11.106701850891113,3.1962592601776123,-1.5203180313110352
1733461491152327400,4.591327392578125,11.08994197845459,3.3255462646484375,-1.6950948238372803
1733461491162337000,4.6013369140625,11.226411819458008,3.40216064453125,-1.8962076902389526
1733461491172347000,4.611346923828125,11.5065336227417,3.4189200401306152,-2.030282974243164
1733461491182326300,4.621326171875,11.8225679397583,3.3303346633911133,-1.9081788063049316
1733461491192336000,4.6313359375,12.203246116638184,3.1531636714935303,-1.6519991159439087
1733461491202345700,4.641345703125,12.550405502319336,2.9735984802246094,-1.3910311460494995
1733461491212324900,4.651324951171875,12.799402236938477,2.8826189041137695,-1.1971008777618408
1733461491222334700,4.661334716796875,12.682085990905762,2.9089550971984863,-1.2210428714752197
1733461491232344600,4.671344482421875,12.33013916015625,3.050212860107422,-1.4077905416488647
1733461491242323700,4.68132373046875,12.05959415435791,3.1914708614349365,-1.6089035272598267
1733461491252333300,4.691333251953125,11.93748950958252,3.203441858291626,-1.680729627609253
1733461491262343200,4.70134326171875,11.93748950958252,3.043030261993408,-1.778891921043396
1733461491272322600,4.711322509765625,12.263101577758789,2.691082715988159,-1.8794482946395874
1733461491282332200,4.721332275390625,12.947842597961426,2.205059766769409,-2.1116859912872314
1733461491292342000,4.731342041015625,14.176068305969238,1.357512354850769,-1.845929503440857
1733461491302321400,4.7413212890625,15.485696792602539,0.40940847992897034,-1.2042834758758545
1733461491312331300,4.751331298828125,16.34760856628418,-0.3423708379268646,-0.7326257228851318
1733461491322340900,4.7613408203125,16.71870994567871,-0.9050082564353943,-0.15801730751991272
1733461491332350700,4.771350830078125,16.139312744140625,-1.113303780555725,-0.17477671802043915
1733461491342329600,4.78132958984375,14.537592887878418,-0.9959878921508789,-0.586579442024231
1733461491352339500,4.79133935546875,12.15296745300293,-0.8140285611152649,-1.2880805730819702
1733461491362349300,4.801349365234375,9.86650562286377,-0.6727706789970398,-1.7310078144073486
1733461491372328700,4.81132861328125,7.144298076629639,-0.4141969084739685,-1.944091796875
1733461491382338300,4.82133837890625,4.903325080871582,-0.22744916379451752,-1.8722656965255737
1733461491392348200,4.83134814453125,3.184288263320923,-0.047884032130241394,-1.8818424940109253
1733461491402327600,4.84132763671875,2.540247917175293,0.11252748221158981,-1.7717092037200928
1733461491412337200,4.851337158203125,2.5115175247192383,0.4596867263317108,-1.9967641830444336
1733461491422347000,4.861346923828125,3.799597978591919,0.6703764796257019,-2.075772762298584
1733461491432326100,4.871326171875,5.149928092956543,0.507570743560791,-1.7142484188079834
1733461491442335700,4.881335693359375,6.433219909667969,0.4596867263317108,-1.0749965906143188
1733461491452345600,4.891345703125,7.254431247711182,0.5770025849342346,-1.1013327836990356
1733461491462325000,4.901324951171875,7.690176010131836,1.05105459690094,-1.2832920551300049
1733461491472334600,4.91133447265625,7.8098859786987305,1.4245500564575195,-1.3958195447921753
1733461491482344400,4.921344482421875,7.60637903213501,1.8267759084701538,-1.4293384552001953
1733461491492323800,4.93132373046875,7.539340972900391,2.2697031497955322,-1.7262194156646729
1733461491502333400,4.94133349609375,7.613561630249023,2.540247917175293,-2.1499931812286377
1733461491512343300,4.95134326171875,7.82185697555542,2.5689783096313477,-2.2649147510528564
1733461491522322400,4.961322509765625,8.197746276855469,2.691082715988159,-2.389413356781006
1733461491532332000,4.97133203125,8.7268648147583,2.7772738933563232,-2.3247697353363037
1733461491542342000,4.981341796875,9.327810287475586,2.612074136734009,-2.1068975925445557
1733461491552321300,4.9913212890625,9.641449928283691,2.492363929748535,-1.7286136150360107
1733461491562331100,5.0013310546875,9.627084732055664,2.3942017555236816,-1.4053963422775269
1733461491572340700,5.0113408203125,9.186552047729492,2.389413356781006,-1.2330138683319092
1733461491582350600,5.0213505859375,8.674192428588867,2.4157495498657227,-1.170764684677124
1733461491592329700,5.031329833984375,7.960720539093018,2.4468741416931152,-1.1683704853057861
1733461491602339600,5.041339599609375,7.407660007476807,2.537853717803955,-1.1492167711257935
1733461491612349400,5.051349365234375,6.9910688400268555,2.5498247146606445,-1.1851298809051514
1733461491622328600,5.06132861328125,6.847416877746582,2.5905263423919678,-1.137245774269104
1733461491632338200,5.071338134765625,6.916848659515381,2.631227731704712,-1.170764684677124
1733461491642348000,5.08134814453125,7.067683219909668,2.695871114730835,-1.2401964664459229
1733461491652327400,5.091327392578125,7.242460250854492,2.7509377002716064,-1.2689268589019775
1733461491662337000,5.1013369140625,7.438784599304199,2.8155810832977295,-1.1851298809051514
1733461491672347000,5.111346923828125,7.702147006988525,2.786850690841675,-1.094150185585022
1733461491682326300,5.121326171875,8.10437297821045,2.849100112915039,-1.1563993692398071
1733461491692335900,5.1313359375,8.564059257507324,2.9448680877685547,-1.3096283674240112
1733461491702345700,5.141345703125,9.004592895507812,3.0837318897247314,-1.4245500564575195
1733461491712324900,5.151324951171875,9.229647636413574,3.24414324760437,-1.4269442558288574
1733461491722334700,5.161334716796875,9.466673851013184,3.4380736351013184,-1.4963760375976562
1733461491732344600,5.171344482421875,9.612719535827637,3.646369218826294,-1.3838485479354858
1733461491742323700,5.18132373046875,9.655815124511719,3.8810009956359863,-1.1899182796478271
1733461491752333600,5.19133349609375,9.641449928283691,4.031835556030273,-1.05105459690094
1733461491762343200,5.20134326171875,9.579200744628906,4.07014274597168,-0.7972691655158997
1733461491772322600,5.211322509765625,9.646238327026367,3.950432777404785,-0.40222588181495667
1733461491782332700,5.221332763671875,9.718064308166504,3.584120035171509,0.1364694982767105
1733461491792342000,5.231342041015625,10.005369186401367,3.098097085952759,0.5219359993934631
1733461491802321400,5.2413212890625,10.879252433776855,2.8179752826690674,1.0342950820922852
1733461491812331300,5.251331298828125,12.133813858032227,2.5234885215759277,1.4245500564575195
1733461491822340900,5.2613408203125,13.299790382385254,2.3319525718688965,1.7046716213226318
1733461491832350700,5.271350830078125,14.250288963317871,2.47560453414917,1.3551181554794312
1733461491842329900,5.281329833984375,14.987702369689941,2.3726539611816406,1.6543933153152466
1733461491852339500,5.29133935546875,15.294160842895508,2.2673089504241943,1.941697597503662
1733461491862349300,5.301349365234375,15.552734375,2.142810583114624,2.1140801906585693
1733461491872328700,5.31132861328125,15.636530876159668,2.032677173614502,2.1116859912872314
1733461491882338300,5.32133837890625,15.306131362915039,1.9608511924743652,1.6424223184585571
1733461491892348200,5.33134814453125,14.587870597839355,1.9393033981323242,0.5123591423034668
1733461491902327600,5.34132763671875,14.16409683227539,1.5682021379470825,-0.05985504388809204
1733461491912337200,5.351337158203125,13.87918758392334,0.8882488012313843,-0.05027823522686958
1733461491922347000,5.361346923828125,13.953407287597656,0.33758243918418884,-0.05027823522686958
1733461491932326100,5.371326171875,14.233529090881348,0.07900865375995636,0.090979665517807
1733461491942335700,5.381335693359375,14.511256217956543,-0.1412578970193863,0.31603461503982544
1733461491952345600,5.391345703125,14.204798698425293,-0.19871874153614044,0.30885201692581177
1733461491962325000,5.401324951171875,13.12501335144043,-0.2106897532939911,0.2585737705230713
1733461491972334600,5.41133447265625,11.382035255432129,-0.19871874153614044,0.2585737705230713
1733461491982344400,5.421344482421875,8.796297073364258,-0.016759412363171577,0.6799532771110535
1733461491992323800,5.43132373046875,6.143521785736084,-0.5889736413955688,1.0271124839782715
1733461492002333700,5.441333740234375,4.412513732910156,-0.730231523513794,0.9959878921508789
1733461492012343300,5.45134326171875,3.1435868740081787,-0.2298433631658554,0.9217676520347595
1733461492022322400,5.461322509765625,1.9728221893310547,0.033518824726343155,0.9911994934082031
1733461492032332300,5.471332275390625,1.9249382019042969,0.009576806798577309,1.3527239561080933
1733461492042342000,5.481341796875,3.318363666534424,-0.1364694982767105,1.4676456451416016
1733461492052321300,5.4913212890625,5.236119270324707,-0.18914192914962769,1.4269442558288574
1733461492062331100,5.5013310546875,6.521805286407471,0.0071826050989329815,1.1827356815338135
1733461492072340700,5.5113408203125,7.2568254470825195,0.3016694188117981,0.6823474764823914
1733461492082350600,5.5213505859375,7.536946773529053,0.47884035110473633,0.6799532771110535
1733461492092330000,5.531330078125,7.6782050132751465,0.9528923034667969,0.22744916379451752
1733461492102339600,5.541339599609375,8.087613105773926,1.3766659498214722,-0.3902548849582672
1733461492112349200,5.55134912109375,8.190564155578613,1.6735470294952393,-0.8164227604866028
1733461492122328600,5.56132861328125,8.178592681884766,2.0901381969451904,-1.0893617868423462
1733461492132338200,5.571338134765625,8.006210327148438,2.343923568725586,-1.3718775510787964
1733461492142348000,5.58134814453125,7.850587368011475,2.5929205417633057,-1.5275006294250488
1733461492152327400,5.591327392578125,7.795520782470703,2.650381326675415,-1.556231141090393
1733461492162337000,5.6013369140625,7.996633529663086,2.6839001178741455,-1.2497732639312744
1733461492172347000,5.611346923828125,8.248024940490723,2.6408045291900635,-0.950498104095459
1733461492182326300,5.621326171875,8.530540466308594,2.6408045291900635,-0.7805097699165344
1733461492192336000,5.6313359375,8.65982723236084,2.63362193107605,-0.6775590777397156
1733461492202345700,5.641345703125,8.7268648147583,2.6384103298187256,-0.5841852426528931
1733461492212324900,5.651324951171875,8.736441612243652,2.5713725090026855,-0.47165772318840027
1733461492222334700,5.661334716796875,8.774748802185059,2.518700122833252,-0.33279404044151306
1733461492232344600,5.671344482421875,8.796297073364258,2.497152328491211,-0.181959331035614
1733461492242323700,5.68132373046875,8.777143478393555,2.5258827209472656,-0.09576806426048279
1733461492252333300,5.691333251953125,8.755595207214355,2.564189910888672,0.033518824726343155
1733461492262343200,5.70134326171875,8.791508674621582,2.559401512145996,0.1867477297782898
1733461492272322600,5.711322509765625,8.892065048217773,2.5234885215759277,0.3711012601852417
1733461492282332200,5.721332275390625,8.96389102935791,2.535459518432617,0.40222588181495667
1733461492292342000,5.731342041015625,9.121908187866211,2.518700122833252,0.3902548849582672
1733461492302321400,5.7413212890625,9.368511199951172,2.5761611461639404,0.43335050344467163
1733461492312331300,5.751331298828125,9.641449928283691,2.6001031398773193,0.3902548849582672
1733461492322340900,5.7613408203125,9.983820915222168,2.674323320388794,0.3711012601852417
1733461492332350700,5.771350830078125,10.36449909210205,2.808398485183716,0.26575639843940735
1733461492342329600,5.78132958984375,10.702081680297852,2.9496564865112305,0.13168109953403473
1733461492352339500,5.79133935546875,10.953473091125488,2.978386878967285,0.06224924325942993
1733461492362349300,5.801349365234375,11.322179794311523,2.9233202934265137,0.07661445438861847
1733461492372328700,5.81132861328125,11.923124313354492,2.738966703414917,0.16759411990642548
1733461492382338300,5.82133837890625,12.85207462310791,2.4420857429504395,0.35673606395721436
1733461492392348200,5.83134814453125,13.833697319030762,2.121262788772583,0.545877993106842
1733461492402327600,5.84132763671875,14.879963874816895,1.9105730056762695,0.6224924325942993
1733461492412337200,5.851337158203125,15.452178001403809,1.9991583824157715,0.36152446269989014
1733461492422347000,5.861346923828125,15.397110939025879,2.360682964324951,-0.5099649429321289
1733461492432326100,5.871326171875,14.659696578979492,2.7724854946136475,-1.2449848651885986
1733461492442335700,5.881335693359375,13.352462768554688,3.098097085952759,-1.723825216293335
1733461492452345600,5.891345703125,12.145785331726074,3.184288263320923,-1.7956513166427612
1733461492462325000,5.901324951171875,11.463438034057617,2.7988216876983643,-1.86508309841156
1733461492472334600,5.91133447265625,11.496956825256348,1.9632453918457031,-1.8339585065841675
1733461492482344400,5.921344482421875,12.382811546325684,1.115697979927063,-1.580173134803772
1733461492492323800,5.93132373046875,13.994109153747559,0.31603461503982544,-1.0055646896362305
1733461492502333400,5.94133349609375,15.083470344543457,-0.13407529890537262,-0.6392518281936646
1733461492512343300,5.95134326171875,15.10262393951416,-0.20111294090747833,-0.7709329724311829
1733461492522322400,5.961322509765625,13.924676895141602,-0.10055647045373917,-1.115697979927063
1733461492532332000,5.97133203125,11.382035255432129,-0.09576806426048279,-1.338358759880066
1733461492542342000,5.981341796875,8.592789649963379,-0.06464344263076782,-1.2617442607879639
1733461492552321300,5.9913212890625,5.518634796142578,0.026336219161748886,-1.2473790645599365
1733461492562331100,6.0013310546875,2.9688100814819336,0.11252748221158981,-1.4748282432556152
1733461492572340700,6.0113408203125,1.6855180263519287,0.29209262132644653,-1.5442601442337036
1733461492582350600,6.0213505859375,1.644816517829895,0.42616790533065796,-1.5634137392044067
1733461492592329700,6.031329833984375,2.628833532333374,0.44771572947502136,-1.2186486721038818
1733461492602339600,6.041339599609375,4.32871675491333,0.12210428714752197,-0.3974374830722809
1733461492612349400,6.051349365234375,6.244078159332275,-0.08379705995321274,0.3902548849582672
1733461492622328600,6.06132861328125,7.675810813903809,-0.2944868206977844,0.8834604024887085
1733461492632338200,6.071338134765625,8.655038833618164,-0.031124621629714966,0.8475474119186401
1733461492642348000,6.08134814453125,9.165003776550293,0.42616790533065796,0.524330198764801
1733461492652327400,6.091327392578125,9.337387084960938,0.7637503147125244,0.33279404044151306
1733461492662337000,6.1013369140625,9.124302864074707,1.2617442607879639,-0.08858546614646912
1733461492672347000,6.111346923828125,8.901641845703125,1.8363527059555054,-0.5578489899635315
1733461492682326300,6.121326171875,8.877699851989746,2.252943754196167,-0.933738648891449
1733461492692335900,6.1313359375,8.96149730682373,2.6791117191314697,-1.1109095811843872
1733461492702345700,6.141345703125,9.026140213012695,2.896984100341797,-1.2114660739898682
1733461492712324900,6.151324951171875,9.172186851501465,3.043030261993408,-1.1516109704971313
1733461492722334700,6.161334716796875,9.184157371520996,3.1316158771514893,-1.0031704902648926
1733461492732344600,6.171344482421875,8.983044624328613,3.181894063949585,-0.8834604024887085
1733461492742323700,6.18132373046875,8.556877136230469,3.2178070545196533,-0.8164227604866028
1733461492752333600,6.19133349609375,8.027758598327637,3.2321722507476807,-0.6655880808830261
1733461492762343200,6.20134326171875,7.592013359069824,3.1196448802948,-0.6584054827690125
1733461492772322600,6.211322509765625,7.2783732414245605,3.0190882682800293,-0.44771572947502136
1733461492782332400,6.22133251953125,7.326257228851318,2.873042106628418,-0.5027823448181152
1733461492792342000,6.231342041015625,7.450755596160889,2.7509377002716064,-0.5530605912208557
1733461492802321400,6.2413212890625,7.752425193786621,2.6240451335906982,-0.5554547905921936
1733461492812331300,6.251331298828125,8.161833763122559,2.499546527862549,-0.5913678407669067
1733461492822340900,6.2613408203125,8.578424453735352,2.410961151123047,-0.6871358752250671
1733461492832350500,6.2713505859375,8.942343711853027,2.4372973442077637,-0.790086567401886
1733461492842329900,6.281329833984375,9.327810287475586,2.5091233253479004,-0.8690952062606812
1733461492852339500,6.29133935546875,9.607931137084961,2.557007312774658,-0.8427590131759644
1733461492862349300,6.301349365234375,9.813833236694336,2.669534921646118,-0.667982280254364
1733461492872328700,6.31132861328125,9.974244117736816,2.7509377002716064,-0.4381389021873474
1733461492882338300,6.32133837890625,10.345345497131348,2.8107926845550537,-0.19632454216480255
1733461492892348200,6.33134814453125,11.039664268493652,2.784456491470337,-0.10773907601833344
1733461492902327600,6.34132763671875,11.623848915100098,2.7485435009002686,-0.17477671802043915
1733461492912337200,6.351337158203125,12.442666053771973,2.5953147411346436,-0.2513911724090576
1733461492922347000,6.361346923828125,13.230358123779297,2.4444799423217773,-0.4572925269603729
1733461492932326100,6.371326171875,13.998897552490234,2.3343467712402344,-0.5554547905921936
1733461492942335700,6.381335693359375,14.477737426757812,2.360682964324951,-0.5027823448181152
1733461492952345600,6.391345703125,14.956578254699707,2.5905263423919678,-0.31364041566848755
1733461492962325000,6.401324951171875,15.176844596862793,2.896984100341797,-0.26575639843940735
1733461492972334600,6.41133447265625,15.30373764038086,3.162740468978882,-0.3926490843296051
1733461492982344400,6.421344482421875,15.184026718139648,3.134010076522827,-0.6368576288223267
1733461492992323800,6.43132373046875,14.329297065734863,2.5929205417633057,-0.912190854549408
1733461493002333700,6.441333740234375,13.144166946411133,1.5682021379470825,-0.7565677165985107
1733461493012343300,6.45134326171875,12.650961875915527,0.6823474764823914,-0.730231523513794
1733461493022322400,6.461322509765625,13.182474136352539,-0.07661445438861847,-0.4908113479614258
1733461493032332300,6.471332275390625,14.082694053649902,-0.47405192255973816,0.07182604819536209
1733461493042342000,6.481341796875,14.645331382751465,-0.6200982332229614,0.4644751250743866
1733461493052321300,6.4913212890625,14.132972717285156,-0.586579442024231,0.6248866319656372
1733461493062331100,6.5013310546875,11.908759117126465,-0.3758896589279175,0.507570743560791
1733461493072340700,6.5113408203125,9.349357604980469,-0.3280056416988373,0.586579442024231
1733461493082350600,6.5213505859375,6.433219909667969,-0.33758243918418884,0.8427590131759644
1733461493092330000,6.531330078125,3.773261785507202,-0.12689268589019775,0.8882488012313843
1733461493102339600,6.541339599609375,1.3862427473068237,0.2106897532939911,0.5530605912208557
1733461493112349200,6.55134912109375,0.17477671802043915,0.629675030708313,-0.31364041566848755
1733461493122328600,6.56132861328125,0.9552865028381348,0.7661445140838623,-0.8451532125473022
1733461493132338200,6.571338134765625,2.782062292098999,0.3495534360408783,-0.8595184087753296
1733461493142348000,6.58134814453125,5.018246650695801,-0.1173158809542656,-0.4189853072166443
1733461493152327400,6.591327392578125,7.5417351722717285,-0.6727706789970398,0.7422025203704834
1733461493162337000,6.6013369140625,9.083600997924805,-0.950498104095459,1.4891934394836426
1733461493172347000,6.611346923828125,9.964667320251465,-0.3758896589279175,1.5083470344543457
1733461493182326300,6.621326171875,10.524910926818848,0.4213795065879822,0.9313444495201111
1733461493192336000,6.6313359375,10.493785858154297,1.2018892765045166,0.2753331959247589
1733461493202345700,6.641345703125,9.93354320526123,1.7525556087493896,-0.07661445438861847
1733461493212324900,6.651324951171875,9.08838939666748,2.3965959548950195,-0.5219359993934631
1733461493222334700,6.661334716796875,8.130708694458008,2.9520506858825684,-1.1324573755264282
1733461493232344600,6.671344482421875,7.740454196929932,3.2393548488616943,-1.2976573705673218
1733461493242323700,6.68132373046875,7.740454196929932,3.1699230670928955,-1.0079588890075684
1733461493252333300,6.691333251953125,7.903259754180908,2.9903578758239746,-0.6799532771110535
1733461493262343200,6.70134326171875,8.20492935180664,2.7772738933563232,-0.3280056416988373
1733461493272322600,6.711322509765625,8.607154846191406,2.628833532333374,0
1733461493282332200,6.721332275390625,9.02135181427002,2.4181437492370605,0.28969839215278625
1733461493292342000,6.731342041015625,9.253589630126953,2.2840683460235596,0.47644615173339844
1733461493302321400,6.7413212890625,9.433155059814453,2.2242133617401123,0.5817909836769104
1733461493312331300,6.751331298828125,9.524134635925293,2.1954829692840576,0.6416460275650024
1733461493322340900,6.7613408203125,9.639056205749512,2.209848165512085,0.629675030708313
1733461493332350700,6.771350830078125,9.473855972290039,2.1595699787139893,0.6224924325942993
1733461493342329600,6.78132958984375,9.263166427612305,2.145204782485962,0.7709329724311829
1733461493352339500,6.79133935546875,9.006986618041992,2.169146776199341,0.7876923680305481
1733461493362349300,6.801349365234375,8.884882926940918,2.279279947280884,0.6560112833976746
1733461493372328700,6.81132861328125,9.040505409240723,2.456450939178467,0.6272808313369751
1733461493382338300,6.82133837890625,9.244012832641602,2.609679937362671,0.790086567401886
1733461493392348200,6.83134814453125,9.524134635925293,2.8203697204589844,0.9816226959228516
1733461493402327600,6.84132763671875,9.679757118225098,2.9544448852539062,0.8643068075180054
1733461493412337200,6.851337158203125,9.694122314453125,3.043030261993408,0.545877993106842
1733461493422347000,6.861346923828125,10.134655952453613,2.999934673309326,0.2322375625371933
1733461493432326100,6.871326171875,11.130643844604492,3.0861260890960693,-0.2968810200691223
1733461493442335700,6.881335693359375,13.165715217590332,2.999934673309326,-0.6224924325942993
1733461493452345600,6.891345703125,15.222334861755371,2.7030537128448486,-0.7206547260284424
1733461493462325000,6.901324951171875,16.917428970336914,2.3798365592956543,-0.5626373887062073
1733461493472334600,6.91133447265625,17.530344009399414,2.1571757793426514,-0.4644751250743866
1733461493482344400,6.921344482421875,16.83123779296875,1.9321208000183105,-0.6009446382522583
1733461493492323800,6.93132373046875,14.980520248413086,1.9177556037902832,-0.8571242094039917
1733461493502333400,6.94133349609375,12.33013916015625,2.252943754196167,-0.9457096457481384
1733461493512343300,6.95134326171875,10.290278434753418,2.5546131134033203,-0.912190854549408
1733461493522322400,6.961322509765625,8.547300338745117,2.7748796939849854,-1.316810965538025
1733461493532332000,6.97133203125,7.479485988616943,2.5905263423919678,-1.8914192914962769
1733461493542342000,6.981341796875,7.9176249504089355,2.0231003761291504,-2.5019407272338867
1733461493552321300,6.9913212890625,10.326191902160645,1.2401964664459229,-2.6886885166168213
1733461493562331100,7.0013310546875,12.78264331817627,0.40462008118629456,-2.2625205516815186
1733461493572340700,7.0113408203125,14.659696578979492,-0.24181437492370605,-1.5969325304031372
1733461493582350600,7.0213505859375,14.970943450927734,-0.33039984107017517,-1.5179238319396973
1733461493592329700,7.031329833984375,13.496114730834961,-0.22744916379451752,-1.656787633895874
1733461493602339600,7.041339599609375,11.159374237060547,-0.1412578970193863,-1.8818424940109253
1733461493612349400,7.051349365234375,8.1139497756958,0.1364694982767105,-2.1811177730560303
1733461493622328600,7.06132861328125,5.595249176025391,0.5674257874488831,-2.762908697128296
1733461493632338200,7.071338134765625,3.6583402156829834,0.9911994934082031,-3.2106244564056396
1733461493642348000,7.08134814453125,2.9161376953125,1.216254472732544,-3.318363666534424
1733461493652327400,7.091327392578125,3.359065055847168,1.2473790645599365,-2.8395233154296875
1733461493662337000,7.1013369140625,5.003881454467773,0.8834604024887085,-1.3886369466781616
1733461493672347000,7.111346923828125,6.97430944442749,0.33279404044151306,0.002394201699644327
1733461493682326300,7.121326171875,8.738836288452148,0.05027823522686958,0.8044517636299133
1733461493692335900,7.1313359375,9.493009567260742,0.2561795711517334,0.8882488012313843
1733461493702345700,7.141345703125,9.38048267364502,0.6871358752250671,0.45250412821769714
1733461493712325000,7.1513251953125,8.942343711853027,1.1228805780410767,-0.05267243832349777
1733461493722334700,7.161334716796875,8.212111473083496,1.455674648284912,-0.33039984107017517
1733461493732344600,7.171344482421875,7.682993412017822,1.6376339197158813,-0.4644751250743866
1733461493742323700,7.18132373046875,7.5417351722717285,1.8938134908676147,-0.7422025203704834
1733461493752333600,7.19133349609375,7.747636795043945,2.1763293743133545,-1.0319008827209473
1733461493762343200,7.20134326171875,8.180987358093262,2.4372973442077637,-1.3024457693099976
1733461493772322600,7.211322509765625,8.547300338745117,2.6001031398773193,-1.4413094520568848
1733461493782332400,7.22133251953125,8.83939266204834,2.655169725418091,-1.3431471586227417
1733461493792342000,7.231342041015625,8.96389102935791,2.63362193107605,-1.1563993692398071
1733461493802321400,7.2413212890625,8.834604263305664,2.6408045291900635,-1.0271124839782715
1733461493812331300,7.251331298828125,8.640673637390137,2.6240451335906982,-0.7924807667732239
1733461493822340900,7.2613408203125,8.406042098999023,2.5713725090026855,-0.5530605912208557
1733461493832350500,7.2713505859375,8.161833763122559,2.4875755310058594,-0.4812345504760742
1733461493842329900,7.281329833984375,8.094796180725098,2.4396915435791016,-0.3998316824436188
1733461493852339500,7.29133935546875,8.133103370666504,2.4013843536376953,-0.2753331959247589
1733461493862349300,7.301349365234375,8.145073890686035,2.322375535964966,-0.2537853717803955
1733461493872328700,7.31132861328125,8.195352554321289,2.2864625453948975,-0.35913026332855225
1733461493882338300,7.32133837890625,8.446743965148926,2.322375535964966,-0.363918662071228
1733461493892348200,7.33134814453125,8.662221908569336,2.3487119674682617,-0.37828385829925537
1733461493902327600,7.34132763671875,8.98543930053711,2.5761611461639404,-0.43335050344467163
1733461493912337200,7.351337158203125,9.23682975769043,2.782062292098999,-0.49320554733276367
1733461493922347000,7.361346923828125,9.411606788635254,3.093308687210083,-0.5554547905921936
1733461493932326100,7.371326171875,9.428366661071777,3.3016040325164795,-0.5051765441894531
1733461493942335700,7.381335693359375,9.521739959716797,3.375824451446533,-0.4836287498474121
1733461493952345600,7.391345703125,9.710882186889648,3.265691041946411,-0.4812345504760742
1733461493962325000,7.401324951171875,10.053253173828125,3.064578056335449,-0.6727706789970398
1733461493972334600,7.41133447265625,10.737994194030762,2.87064790725708,-0.8547300100326538
1733461493982344400,7.421344482421875,11.978191375732422,2.5785553455352783,-0.9241618514060974
1733461493992323800,7.43132373046875,12.99812126159668,2.343923568725586,-1.0438719987869263
1733461494002333700,7.441333740234375,13.998897552490234,2.346317768096924,-1.0869675874710083
1733461494012343300,7.45134326171875,15.06671142578125,2.4660277366638184,-1.0342950820922852
1733461494022322400,7.461322509765625,15.904682159423828,2.557007312774658,-0.8786720037460327
1733461494032332300,7.471332275390625,16.65406608581543,2.63362193107605,-0.7158663272857666
1733461494042342000,7.481341796875,16.299724578857422,2.410961151123047,-0.4812345504760742
1733461494052321300,7.4913212890625,14.803349494934082,1.922544002532959,-0.12928688526153564
1733461494062331100,7.5013310546875,13.613430976867676,1.256955862045288,0.4884171485900879
1733461494072340700,7.5113408203125,12.509703636169434,0.4668693244457245,0.7757213711738586
1733461494082350600,7.5213505859375,12.248735427856445,0.20350714027881622,0.7469909191131592
1733461494092330000,7.531330078125,12.49055004119873,0.11971008777618408,0.5674257874488831
1733461494102339600,7.541339599609375,12.734758377075195,0.15801730751991272,0.5841852426528931
1733461494112349400,7.551349365234375,12.121843338012695,0.2801215946674347,0.7038952708244324
1733461494122328600,7.56132861328125,10.654197692871094,0.29209262132644653,0.9074024558067322
1733461494132338200,7.571338134765625,9.014169692993164,0.26575639843940735,1.1851298809051514
1733461494142348000,7.58134814453125,7.299921035766602,0.2585737705230713,1.213860273361206
1733461494152327400,7.591327392578125,5.971138954162598,0.10055647045373917,1.3982137441635132
1733461494162337000,7.6013369140625,5.185841083526611,0.06224924325942993,1.556231141090393
1733461494172347000,7.611346923828125,5.118803024291992,0.019153613597154617,1.5298948287963867
1733461494182326300,7.621326171875,5.66228723526001,-0.11013327538967133,1.5107412338256836
1733461494192336000,7.6313359375,6.473921298980713,-0.014365210197865963,1.292868971824646
1733461494202345700,7.641345703125,7.096413612365723,0.4596867263317108,0.4692635238170624
1733461494212325000,7.6513251953125,7.177816867828369,0.9864110946655273,-0.37828385829925537
1733461494222334700,7.661334716796875,6.830657482147217,1.3120225667953491,-0.7876923680305481
1733461494232344600,7.671344482421875,6.643909931182861,1.5969325304031372,-1.0414776802062988
1733461494242323700,7.68132373046875,6.710947513580322,1.8076223134994507,-1.1061211824417114
1733461494252333300,7.691333251953125,6.904877662658691,1.9393033981323242,-1.070208191871643
1733461494262343200,7.70134326171875,7.177816867828369,2.0590133666992188,-0.9050082564353943
1733461494272322600,7.711322509765625,7.491456985473633,2.1763293743133545,-0.6943184733390808
1733461494282332200,7.721332275390625,7.6782050132751465,2.1954829692840576,-0.45010992884635925
1733461494292342000,7.731342041015625,7.934384346008301,2.2385785579681396,-0.22505496442317963
1733461494302321400,7.7413212890625,7.99184513092041,2.3319525718688965,-0.15322890877723694
1733461494312331300,7.751331298828125,7.869740962982178,2.470816135406494,-0.3208230137825012
1733461494322340900,7.7613408203125,7.769184589385986,2.535459518432617,-0.4118026793003082
1733461494332350700,7.771350830078125,7.694964408874512,2.5043349266052246,-0.26096799969673157
1733461494342329600,7.78132958984375,7.675810813903809,2.4133553504943848,-0.0694318488240242
1733461494352339500,7.79133935546875,7.879317760467529,2.3080103397369385,0.1604115068912506
1733461494362349300,7.801349365234375,8.29830265045166,2.2864625453948975,0.38546648621559143
1733461494372328700,7.81132861328125,8.736441612243652,2.2840683460235596,0.43335050344467163
1733461494382338300,7.82133837890625,9.035717010498047,2.3511061668395996,0.38307225704193115
1733461494392348200,7.83134814453125,9.150638580322266,2.497152328491211,0.40462008118629456
1733461494402327600,7.84132763671875,9.296685218811035,2.542642116546631,0.4405331015586853
1733461494412337200,7.851337158203125,9.454702377319336,2.564189910888672,0.5315127968788147
1733461494422347000,7.861346923828125,9.545681953430176,2.669534921646118,0.4908113479614258
1733461494432326100,7.871326171875,9.742006301879883,2.782062292098999,0.44532153010368347
1733461494442335700,7.881335693359375,9.880870819091797,2.801215887069702,0.38307225704193115
1733461494452345600,7.891345703125,9.914389610290527,2.849100112915039,0.1173158809542656
1733461494462325000,7.901324951171875,10.103530883789062,2.801215887069702,-0.22505496442317963
1733461494472334600,7.91133447265625,10.472238540649414,2.782062292098999,-0.4429273009300232
1733461494482344400,7.921344482421875,11.221623420715332,2.7892448902130127,-0.3687070608139038
1733461494492323800,7.93132373046875,12.1194486618042,2.7964274883270264,-0.3758896589279175
1733461494502333400,7.94133349609375,12.674903869628906,2.7246015071868896,-0.3734954595565796
1733461494512343300,7.95134326171875,13.03403377532959,2.5953147411346436,0.08140286058187485
1733461494522322400,7.961322509765625,13.060370445251465,2.322375535964966,0.3495534360408783
1733461494532332000,7.97133203125,13.151350021362305,2.1140801906585693,0.5554547905921936
1733461494542342000,7.981341796875,13.275848388671875,2.205059766769409,0.35673606395721436
1733461494552321300,7.9913212890625,13.51766300201416,2.5306711196899414,-0.047884032130241394
1733461494562331100,8.0013310546875,13.57512378692627,2.9089550971984863,-0.8020575642585754
1733461494572340700,8.0113408203125,13.2710599899292,2.6647465229034424,-1.5203180313110352
1733461494582350600,8.0213505859375,12.677297592163086,2.205059766769409,-1.8602946996688843
1733461494592329700,8.031329833984374,13.105859756469727,1.8579005002975464,-2.9089550971984863
1733461494602339600,8.041339599609374,14.305355072021484,1.1492167711257935,-3.2297780513763428
1733461494612349400,8.051349365234374,15.818490982055664,0.40940847992897034,-2.7916390895843506
1733461494622328600,8.06132861328125,16.982072830200195,-0.17956513166427612,-1.845929503440857
1733461494632338200,8.071338134765625,16.304513931274414,-0.35913026332855225,-1.522712230682373
1733461494642348000,8.08134814453125,13.852850914001465,-0.19632454216480255,-1.7190368175506592
1733461494652327400,8.091327392578124,10.273519515991211,-0.10055647045373917,-1.8363527059555054
1733461494662337000,8.1013369140625,7.177816867828369,0.0071826050989329815,-1.7932571172714233
1733461494672347000,8.111346923828124,4.242525577545166,0.2753331959247589,-2.2002713680267334
1733461494682326300,8.121326171875,2.456450939178467,0.5626373887062073,-2.717418909072876
1733461494692335900,8.1313359375,1.5131354331970215,0.9169792532920837,-2.585737943649292
1733461494702345700,8.141345703125,2.094926595687866,1.0678139925003052,-1.8794482946395874
1733461494712325000,8.1513251953125,3.624821424484253,0.8188169598579407,-0.6033388376235962
1733461494722334700,8.161334716796874,5.367800235748291,0.49320554733276367,0.6009446382522583
1733461494732344600,8.171344482421874,6.981492042541504,0.2968810200691223,1.316810965538025
1733461494742323700,8.18132373046875,7.982268333435059,0.5051765441894531,1.3335703611373901
1733461494752333600,8.19133349609375,8.676587104797363,0.9552865028381348,0.8858546018600464
1733461494762343200,8.20134326171875,8.762778282165527,1.2401964664459229,0.5267243981361389
1733461494772322600,8.211322509765624,8.643068313598633,1.4700398445129395,0.2801215946674347
1733461494782332400,8.22133251953125,8.322244644165039,1.7262194156646729,-0.047884032130241394
1733461494792342000,8.231342041015624,8.128314971923828,1.8794482946395874,-0.2537853717803955
1733461494802321400,8.2413212890625,8.283937454223633,2.188300371170044,-0.304063618183136
1733461494812331300,8.251331298828125,8.5903959274292,2.367865562438965,-0.3423708379268646
1733461494822340900,8.2613408203125,8.858546257019043,2.4875755310058594,-0.31603461503982544
1733461494832350500,8.2713505859375,8.89685344696045,2.609679937362671,-0.20111294090747833
1733461494842329900,8.281329833984374,8.638279914855957,2.6886885166168213,-0.16998831927776337
1733461494852339500,8.29133935546875,8.547300338745117,2.75812029838562,-0.21308395266532898
1733461494862349300,8.301349365234374,8.470685958862305,2.698265314102173,-0.1628057211637497
1733461494872328700,8.31132861328125,8.33182144165039,2.6575639247894287,-0.08140286058187485
1733461494882338300,8.32133837890625,8.190564155578613,2.6240451335906982,-0.16519992053508759
1733461494892348200,8.33134814453125,7.967903137207031,2.6001031398773193,-0.07422025501728058
1733461494902327600,8.34132763671875,7.812280178070068,2.535459518432617,-0.07661445438861847
1733461494912337200,8.351337158203124,7.781155586242676,2.47560453414917,-0.0071826050989329815
1733461494922347000,8.361346923828124,7.979874134063721,2.4157495498657227,-0.08858546614646912
1733461494932326100,8.371326171875,8.018181800842285,2.3056161403656006,-0.21547815203666687
1733461494942335700,8.381335693359375,8.87291145324707,2.5498247146606445,-0.05506663769483566
1733461494952345600,8.391345703125,9.428366661071777,2.5977089405059814,-0.12689268589019775
1733461494962325000,8.401324951171874,9.636661529541016,2.7126305103302,-0.05985504388809204
1733461494972334600,8.41133447265625,9.813833236694336,2.935291290283203,-0.12928688526153564
1733461494982344400,8.421344482421874,9.938331604003906,2.9927520751953125,-0.1867477297782898
1733461494992323800,8.43132373046875,10.02452278137207,2.8179752826690674,0.038307227194309235
1733461495002333700,8.441333740234375,10.228029251098633,2.6408045291900635,0.2082955539226532
1733461495012343300,8.45134326171875,10.747570991516113,2.3247697353363037,0.06703764945268631
1733461495022322400,8.461322509765624,11.748347282409668,1.9033904075622559,-0.2322375625371933
1733461495032332300,8.471332275390624,12.509703636169434,1.647210717201233,-0.6105214357376099
1733461495042342000,8.481341796875,13.711592674255371,1.6759412288665771,-0.3926490843296051
1733461495052321300,8.4913212890625,14.867992401123047,1.9632453918457031,-0.12689268589019775
1733461495062331100,8.5013310546875,15.878345489501953,2.537853717803955,0.019153613597154617
1733461495072340700,8.5113408203125,16.15128517150879,2.918531894683838,-0.4596867263317108
1733461495082350600,8.5213505859375,15.76821231842041,2.75812029838562,-1.4844050407409668
1733461495092330000,8.531330078125,14.781801223754883,2.011129379272461,-1.5945383310317993
1733461495102339600,8.541339599609374,14.437036514282227,0.7350199222564697,-0.993593692779541
1733461495112349200,8.55134912109375,14.875175476074219,-0.15562310814857483,-0.15801730751991272
1733461495122328600,8.56132861328125,15.399505615234375,-0.47165772318840027,0.7661445140838623
1733461495132338400,8.57133837890625,15.219940185546875,-0.45250412821769714,1.357512354850769
1733461495142348000,8.58134814453125,13.893552780151367,-0.17477671802043915,1.3886369466781616
1733461495152327400,8.591327392578124,11.338939666748047,0.22744916379451752,1.316810965538025
1733461495162337000,8.6013369140625,8.87051773071289,0.35673606395721436,1.3742717504501343
1733461495172347000,8.611346923828124,5.849034786224365,0.4908113479614258,1.1492167711257935
1733461495182326300,8.621326171875,3.507505416870117,0.6272808313369751,1.0654197931289673
1733461495192336000,8.6313359375,1.9847931861877441,0.6727706789970398,1.0534487962722778
1733461495202345700,8.641345703125,2.051830768585205,0.629675030708313,1.2545616626739502
1733461495212325000,8.6513251953125,3.3207578659057617,0.5482721924781799,1.5083470344543457
1733461495222334700,8.661334716796874,5.614402770996094,0.6105214357376099,1.6831238269805908
1733461495232344600,8.671344482421874,7.287950038909912,0.7972691655158997,1.1875240802764893
1733461495242323700,8.68132373046875,8.008605003356934,1.070208191871643,0.7015010714530945
1733461495252333600,8.69133349609375,7.9415669441223145,1.2042834758758545,0.48602294921875
1733461495262343200,8.70134326171875,7.841010570526123,1.4772224426269531,-0.002394201699644327
1733461495272322600,8.711322509765624,7.797914981842041,1.6735470294952393,-0.31124621629714966
1733461495282332200,8.721332275390624,7.7883381843566895,1.7741034030914307,-0.6153098344802856
1733461495292342000,8.731342041015624,8.022970199584961,1.9800047874450684,-1.0414776802062988
1733461495302321400,8.7413212890625,8.157045364379883,1.968033790588379,-1.0654197931289673
1733461495312331300,8.751331298828125,8.286332130432129,1.8171991109848022,-0.6943184733390808
1733461495322340900,8.7613408203125,8.621520042419434,1.7717092037200928,-0.6177040338516235
1733461495332350700,8.771350830078125,8.944737434387207,1.7741034030914307,-0.5195417404174805
1733461495342329600,8.78132958984375,9.227252960205078,1.824381709098816,-0.45010992884635925
1733461495352339500,8.79133935546875,9.272743225097656,1.9345149993896484,-0.586579442024231
1733461495362349300,8.801349365234374,9.198522567749023,2.03507137298584,-0.7230489253997803
1733461495372328700,8.81132861328125,9.14345645904541,2.049436569213867,-0.5650315880775452
1733461495382338300,8.82133837890625,9.002198219299316,1.9512743949890137,-0.21787235140800476
1733461495392348200,8.83134814453125,8.705317497253418,1.8698714971542358,-0.019153613597154617
1733461495402327600,8.84132763671875,8.38688850402832,1.8171991109848022,0.1604115068912506
1733461495412337200,8.851337158203124,8.212111473083496,1.9273324012756348,0.33997663855552673
1733461495422347000,8.861346923828124,8.269572257995605,2.0829553604125977,0.29209262132644653
1733461495432326100,8.871326171875,8.250418663024902,2.27209734916687,0.22026655077934265
1733461495442335700,8.881335693359375,8.406042098999023,2.516305923461914,0.2513911724090576
1733461495452345600,8.891345703125,8.537723541259766,2.6455929279327393,0.3687070608139038
1733461495462325000,8.901324951171874,8.650250434875488,2.7940332889556885,0.42616790533065796
1733461495472334600,8.91133447265625,8.772355079650879,2.8874073028564453,0.3519476354122162
1733461495482344400,8.921344482421874,9.081207275390625,2.9903578758239746,0.22744916379451752
1733461495492323800,8.93132373046875,9.605537414550781,3.023876667022705,0.15083470940589905
1733461495502333400,8.94133349609375,10.503362655639648,3.026270866394043,0.1604115068912506
1733461495512343300,8.95134326171875,11.39400577545166,2.8993782997131348,0.031124621629714966
1733461495522322400,8.961322509765624,12.469002723693848,2.7222073078155518,0.17477671802043915
1733461495532332000,8.97133203125,13.690045356750488,2.516305923461914,0.4620809257030487
1733461495542342000,8.981341796875,14.532804489135742,2.293645143508911,0.5841852426528931
1733461495552321300,8.9913212890625,14.970943450927734,2.300827741622925,0.4429273009300232
1733461495562331100,9.0013310546875,14.992490768432617,2.5282769203186035,0.2298433631658554
1733461495572340700,9.0113408203125,14.67406177520752,3.1723172664642334,-0.05027823522686958
1733461495582350600,9.0213505859375,14.101847648620605,3.7445313930511475,-0.629675030708313
1733461495592329700,9.031329833984374,13.266271591186523,3.9001545906066895,-1.4413094520568848
1733461495602339600,9.041339599609374,12.684480667114258,3.383007049560547,-1.9704279899597168
1733461495612349400,9.051349365234374,12.653355598449707,2.255337953567505,-2.03507137298584
1733461495622328600,9.06132861328125,13.438653945922852,1.194706678390503,-1.9847931861877441
1733461495632338400,9.07133837890625,15.002067565917969,0.23702596127986908,-1.9177556037902832
1733461495642348000,9.08134814453125,16.28775405883789,-0.38546648621559143,-1.4939818382263184
1733461495652327400,9.091327392578124,16.77617073059082,-0.6344634294509888,-1.316810965538025
1733461495662337000,9.1013369140625,15.105018615722656,-0.6655880808830261,-1.5634137392044067
1733461495672347000,9.111346923828124,12.447454452514648,-0.5099649429321289,-1.9560627937316895
1733461495682326300,9.121326171875,8.813055992126465,-0.5410895943641663,-1.8770540952682495
1733461495692335900,9.1313359375,5.609614372253418,-0.6823474764823914,-1.6615760326385498
1733461495702345700,9.141345703125,2.784456491470337,-0.6823474764823914,-1.6903064250946045
1733461495712325000,9.1513251953125,1.4652514457702637,-0.4141969084739685,-1.7094600200653076
1733461495722334700,9.161334716796874,1.6687586307525635,-0.10055647045373917,-1.8124107122421265
1733461495732344600,9.171344482421874,2.9544448852539062,0.22266076505184174,-1.6855180263519287
1733461495742323700,9.18132373046875,4.876988887786865,0.33039984107017517,-0.8667010068893433
1733461495752333600,9.19133349609375,6.564900875091553,0.40222588181495667,0.040701430290937424
1733461495762343200,9.20134326171875,7.544129371643066,0.6344634294509888,0.6584054827690125
1733461495772322600,9.211322509765624,7.948749542236328,0.730231523513794,0.9265560507774353
1733461495782332400,9.22133251953125,7.632715225219727,0.993593692779541,1.0773907899856567
1733461495792342000,9.231342041015624,7.101202011108398,1.3718775510787964,0.8786720037460327
1733461495802321400,9.2413212890625,6.823474884033203,1.6089035272598267,0.7541735172271729
1733461495812331300,9.251331298828125,6.619967937469482,1.9752163887023926,0.5770025849342346
1733461495822340900,9.2613408203125,6.72531270980835,2.3056161403656006,0.2849099934101105
1733461495832350500,9.2713505859375,7.182605266571045,2.6384103298187256,0.07661445438861847
1733461495842329900,9.281329833984374,7.587224960327148,2.8395233154296875,-0.08619125932455063
1733461495852339500,9.29133935546875,8.061277389526367,2.9544448852539062,-0.17956513166427612
1733461495862349300,9.301349365234374,8.540117263793945,2.959233283996582,-0.17956513166427612
1733461495872328700,9.31132861328125,9.004592895507812,2.9544448852539062,-0.0933738648891449
1733461495882338300,9.32133837890625,9.481039047241211,2.918531894683838,0.05027823522686958
1733461495892348200,9.33134814453125,9.703699111938477,2.9089550971984863,0.15562310814857483
1733461495902327600,9.34132763671875,9.674968719482422,2.8850131034851074,0.2322375625371933
1733461495912337200,9.351337158203124,9.385271072387695,2.911349296569824,0.20350714027881622
1733461495922347000,9.361346923828124,8.995016098022461,2.894589900970459,0.1364694982767105
1733461495932326100,9.371326171875,8.827422142028809,2.8227639198303223,0.06703764945268631
1733461495942335700,9.381335693359375,9.081207275390625,2.7006595134735107,0.12689268589019775
1733461495952345600,9.391345703125,9.277531623840332,2.5905263423919678,0.1173158809542656
1733461495962325000,9.401324951171874,9.442731857299805,2.5737667083740234,0.009576806798577309
1733461495972334600,9.41133447265625,9.5408935546875,2.5905263423919678,-0.028730420395731926
1733461495982344400,9.421344482421874,9.708487510681152,2.655169725418091,-0.0694318488240242
1733461495992323800,9.43132373046875,9.93354320526123,2.7317841053009033,-0.1149216815829277
1733461496002333700,9.441333740234375,10.261548042297363,2.7772738933563232,0.05027823522686958
1733461496012343300,9.45134326171875,10.54406452178955,2.75812029838562,0.090979665517807
1733461496022322400,9.461322509765624,10.685321807861328,2.7724854946136475,0.24899697303771973
1733461496032332300,9.471332275390624,10.737994194030762,2.7700912952423096,0.19632454216480255
1733461496042342000,9.481341796875,10.855310440063477,2.8203697204589844,0.004788403399288654
1733461496052321300,9.4913212890625,11.192893028259277,2.8371291160583496,-0.3280056416988373
1733461496062331100,9.5013310546875,11.72201156616211,2.7054479122161865,-0.4118026793003082
1733461496072340700,9.5113408203125,12.610260009765625,2.626439332962036,-0.07182604819536209
1733461496082350600,9.5213505859375,13.943830490112305,2.738966703414917,0.49559974670410156
1733461496092330000,9.531330078125,15.397110939025879,2.875436305999756,0.7182605266571045
1733461496102339600,9.541339599609374,16.484079360961914,2.9496564865112305,0.5195417404174805
1733461496112349200,9.55134912109375,16.970102310180664,2.6408045291900635,0.12210428714752197
1733461496122328600,9.56132861328125,16.89109230041504,1.6927006244659424,0.08379705995321274
1733461496132338400,9.57133837890625,16.35479164123535,0.9002198576927185,0.5291185975074768
1733461496142348000,9.58134814453125,15.308526039123535,0.21308395266532898,1.0630255937576294
1733461496152327400,9.591327392578124,14.504074096679688,-0.2561795711517334,1.357512354850769
1733461496162337000,9.6013369140625,13.30457878112793,-0.48602294921875,1.6424223184585571
1733461496172347000,9.611346923828124,11.748347282409668,-0.3902548849582672,1.7405846118927002
1733461496182326300,9.621326171875,9.730035781860352,-0.2777273952960968,1.7501614093780518
1733461496192336000,9.6313359375,7.469909191131592,-0.21547815203666687,1.7310078144073486
1733461496202345700,9.641345703125,5.676652431488037,-0.08619125932455063,1.4963760375976562
1733461496212325000,9.6513251953125,4.0078935623168945,0.002394201699644327,1.3551181554794312
1733461496222334700,9.661334716796874,3.00711727142334,0.06224924325942993,1.3215993642807007
1733461496232344600,9.671344482421874,2.8586769104003906,0.11971008777618408,1.1851298809051514
1733461496242323700,9.68132373046875,3.4548330307006836,0.07182604819536209,1.1420341730117798
1733461496252333300,9.691333251953125,4.613626480102539,-0.014365210197865963,1.113303780555725
1733461496262343200,9.70134326171875,5.473145008087158,-0.11252748221158981,1.1180921792984009
1733461496272322600,9.711322509765624,6.234501361846924,0.15322890877723694,1.1180921792984009
1733461496282332200,9.721332275390624,7.070077419281006,0.5219359993934631,0.6560112833976746
1733461496292342000,9.731342041015624,7.795520782470703,1.039083480834961,0.3064578175544739
1733461496302321400,9.7413212890625,8.324639320373535,1.4293384552001953,-0.07661445438861847
1733461496312331300,9.751331298828125,8.901641845703125,1.9249382019042969,-0.5339069962501526
1733461496322340900,9.7613408203125,9.01895809173584,2.3535003662109375,-0.9768342971801758
1733461496332350700,9.771350830078125,8.667010307312012,2.607285737991333,-1.3024457693099976
1733461496342329600,9.78132958984375,8.001421928405762,2.674323320388794,-1.2090718746185303
1733461496352339500,9.79133935546875,7.457938194274902,2.607285737991333,-0.751779317855835
1733461496362349300,9.801349365234374,7.196970462799072,2.4612393379211426,-0.608127236366272
1733461496372328700,9.81132861328125,7.496245384216309,2.4133553504943848,-0.5051765441894531
1733461496382338300,9.82133837890625,8.216899871826172,2.3989901542663574,-0.5195417404174805
1733461496392348200,9.83134814453125,9.181763648986816,2.408566951751709,-0.7565677165985107
1733461496402327600,9.84132763671875,9.947908401489258,2.540247917175293,-0.9959878921508789
1733461496412337200,9.851337158203124,10.340557098388672,2.6024973392486572,-1.039083480834961
1733461496422347000,9.861346923828124,10.309432983398438,2.518700122833252,-0.9672574996948242
1733461496432326100,9.871326171875,9.907206535339355,2.4684219360351562,-0.7110779285430908
1733461496442335700,9.881335693359375,9.516951560974121,2.3702597618103027,-0.5746083855628967
1733461496452345600,9.891345703125,9.20091724395752,2.2625205516815186,-0.44532153010368347
1733461496462325000,9.901324951171874,9.167398452758789,2.231395959854126,-0.3519476354122162
1733461496472334600,9.91133447265625,9.296685218811035,2.2457611560821533,-0.17238251864910126
1733461496482344400,9.921344482421874,9.509769439697266,2.3271639347076416,-0.07422025501728058
1733461496492323800,9.93132373046875,9.516951560974121,2.4588451385498047,-0.1412578970193863
1733461496502333400,9.94133349609375,9.521739959716797,2.5737667083740234,-0.12689268589019775
1733461496512343300,9.95134326171875,9.63187313079834,2.695871114730835,-0.07900865375995636
1733461496521890300,9.960890380859375,9.5624418258667,2.868253707885742,-0.363918662071228
1733461496531900000,9.97089990234375,9.77791976928711,3.1244332790374756,-0.5913678407669067
1733461496541909800,9.98090966796875,9.976638793945312,3.3662476539611816,-0.7134721279144287
1733461496551889000,9.990888916015624,10.134655952453613,3.581725835800171,-0.7948749661445618
1733461496561898800,10.000898681640624,10.721235275268555,3.552995204925537,-0.5482721924781799
1733461496571908400,10.010908447265624,11.279084205627441,3.136404275894165,-0.043095629662275314
1733461496581918200,10.020918212890624,11.762712478637695,2.4444799423217773,0.3926490843296051
1733461496591897300,10.0308974609375,12.248735427856445,1.941697597503662,0.4884171485900879
1733461496601907200,10.0409072265625,12.773066520690918,1.7357962131500244,0.4908113479614258
1733461496611917000,10.0509169921875,13.120224952697754,1.9847931861877441,0.2992752194404602
1733461496621896400,10.060896484375,13.340492248535156,2.5450363159179688,-0.43095630407333374
1733461496631906000,10.070906005859374,12.559982299804688,2.6791117191314697,-0.912190854549408
1733461496641916000,10.080916015625,12.02607536315918,2.2888567447662354,-1.6424223184585571
1733461496651895000,10.09089501953125,12.36365795135498,1.4915876388549805,-2.4468741416931152
1733461496661904600,10.100904541015625,13.508086204528809,0.42377370595932007,-2.7269957065582275
1733461496671914500,10.11091455078125,15.516820907592773,-0.8092401623725891,-2.0925323963165283
1733461496681894000,10.120893798828124,17.683574676513672,-1.4173674583435059,-1.3694833517074585
1733461496691903500,10.130903564453124,18.868703842163086,-1.4101848602294922,-0.9169792532920837
1733461496701913300,10.140913330078124,17.98763656616211,-1.1659762859344482,-0.8020575642585754
1733461496711892700,10.150892822265625,14.911087989807129,-1.1204863786697388,-0.8403648138046265
1733461496721902300,10.16090234375,11.252747535705566,-0.9864110946655273,-0.8643068075180054
1733461496731912200,10.170912109375,6.876147270202637,-0.9433154463768005,-0.395043283700943
1733461496741891300,10.180891357421874,3.6176388263702393,-0.4884171485900879,-0.7110779285430908
1733461496751901200,10.190901123046874,0.4213795065879822,0.36152446269989014,-1.7310078144073486
1733461496761910800,10.200910888671874,-1.2330138683319092,1.6208745241165161,-3.0813376903533936
1733461496771890200,10.21089013671875,-1.1420341730117798,2.298433542251587,-3.907337188720703
1733461496781900000,10.220900146484375,0.7015010714530945,2.425326347351074,-3.907337188720703
1733461496791909600,10.23090966796875,3.466804027557373,1.9752163887023926,-2.829946517944336
1733461496801889000,10.240888916015624,6.502651691436768,0.871489405632019,-1.4508862495422363
1733461496811899000,10.25089892578125,9.172186851501465,0.28730419278144836,-0.395043283700943
1733461496821908500,10.260908447265624,11.858481407165527,-0.016759412363171577,0.5147533416748047
1733461496831918300,10.27091845703125,13.263877868652344,-0.1867477297782898,0.8188169598579407
1733461496841897500,10.2808974609375,13.721169471740723,0.24660277366638184,0.7422025203704834
1733461496851907000,10.290906982421875,13.024456977844238,0.7565677165985107,0.002394201699644327
1733461496861917000,10.3009169921875,11.8225679397583,1.4413094520568848,-0.47165772318840027
1733461496871896300,10.310896240234374,10.223240852355957,1.968033790588379,-0.6991068720817566
1733461496881906000,10.320906005859374,9.153033256530762,2.2840683460235596,-0.7326257228851318
1733461496891915800,10.330915771484374,8.336610794067383,2.537853717803955,-0.608127236366272
1733461496901895200,10.340895263671875,7.850587368011475,2.6862943172454834,-0.5147533416748047
1733461496911904800,10.35090478515625,7.465120792388916,2.7509377002716064,-0.33997663855552673
1733461496921914600,10.36091455078125,7.15387487411499,2.7748796939849854,-0.23702596127986908
1733461496931894000,10.37089404296875,6.818686485290527,2.6791117191314697,-0.19393034279346466
1733461496941903600,10.380903564453124,6.830657482147217,2.626439332962036,-0.2298433631658554
1733461496951913500,10.39091357421875,7.223306655883789,2.4803929328918457,-0.19871874153614044
1733461496961892600,10.400892578125,7.841010570526123,2.2840683460235596,-0.090979665517807
1733461496971902200,10.410902099609375,8.473079681396484,2.0398597717285156,-0.033518824726343155
1733461496981912000,10.420912109375,8.911218643188477,1.8315643072128296,0.12689268589019775
1733461496991891500,10.430891357421874,9.246406555175781,1.7190368175506592,0.19871874153614044
1733461497001901300,10.4409013671875,9.440337181091309,1.8291701078414917,-0.0454898327589035
1733461497011911000,10.450910888671874,9.41400146484375,2.1092917919158936,-0.3016694188117981
1733461497021890300,10.460890380859375,9.248801231384277,2.408566951751709,-0.49559974670410156
1733461497031900200,10.470900146484375,9.17936897277832,2.6192567348480225,-0.5315127968788147
1733461497041909800,10.48090966796875,9.232041358947754,2.9065608978271484,-0.5339069962501526
1733461497051889000,10.490888916015624,9.385271072387695,2.956839084625244,-0.4644751250743866
1733461497061898800,10.500898681640624,9.667786598205566,2.9041666984558105,-0.3471592366695404
1733461497071908400,10.510908447265624,10.050858497619629,2.8802247047424316,-0.3926490843296051
1733461497081918200,10.520918212890624,10.453084945678711,2.8107926845550537,-0.47165772318840027
1733461497091897600,10.530897705078125,10.594342231750488,2.7533318996429443,-0.6631938815116882
1733461497101907200,10.5409072265625,10.57040023803711,2.580949544906616,-0.8379706144332886
1733461497111917000,10.5509169921875,10.63504409790039,2.3582887649536133,-0.6224924325942993
1733461497121896400,10.560896484375,10.886435508728027,2.1547815799713135,-0.22744916379451752
1733461497131906000,10.570906005859374,11.322179794311523,2.2194249629974365,0.09816227108240128
1733461497141916000,10.580916015625,11.949460983276367,2.5019407272338867,0.12210428714752197
1733461497151895000,10.59089501953125,12.447454452514648,2.7246015071868896,-0.011971008032560349
1733461497161904600,10.600904541015625,12.816162109375,2.7054479122161865,-0.1149216815829277
1733461497171914500,10.61091455078125,12.969390869140625,1.9177556037902832,0.07182604819536209
1733461497181894000,10.620893798828124,12.97657299041748,0.7493851184844971,0.4620809257030487
1733461497191903500,10.630903564453124,13.285425186157227,-0.10534487664699554,0.9241618514060974
1733461497201913300,10.640913330078124,14.247894287109375,-0.6584054827690125,1.3048399686813354
1733461497211892700,10.650892822265625,15.22472858428955,-0.9050082564353943,1.7118542194366455
1733461497221902600,10.660902587890625,15.452178001403809,-0.9481038451194763,2.31758713722229
1733461497231912200,10.670912109375,14.48970890045166,-0.6919242739677429,2.535459518432617
1733461497241891300,10.680891357421874,12.433089256286621,-0.3734954595565796,2.585737943649292
1733461497251901000,10.69090087890625,10.3549222946167,-0.1604115068912506,2.6431987285614014
1733461497261910800,10.700910888671874,8.413225173950195,-0.009576806798577309,2.583343744277954
1733461497271890200,10.71089013671875,7.117961883544922,-0.0694318488240242,2.322375535964966
1733461497281899800,10.720899658203125,6.313509941101074,-0.12449848651885986,2.2409727573394775
1733461497291909600,10.73090966796875,6.586448669433594,-0.14844051003456116,2.0470423698425293
1733461497301889000,10.740888916015624,7.663839817047119,0.014365210197865963,1.7070658206939697
1733461497311899000,10.75089892578125,9.167398452758789,0.20350714027881622,1.1037269830703735
1733461497321908500,10.760908447265624,9.72285270690918,0.3016694188117981,1.0223240852355957
1733461497331918300,10.77091845703125,10.043676376342773,0.5434837937355042,0.9074024558067322
1733461497341897500,10.7808974609375,9.823410034179688,0.8475474119186401,0.5339069962501526
1733461497351907300,10.7909072265625,9.215282440185547,1.2689268589019775,0.021547814831137657
1733461497361917000,10.8009169921875,8.571242332458496,1.5849615335464478,-0.586579442024231
1733461497371896300,10.810896240234374,7.733271598815918,1.9273324012756348,-1.139639973640442
1733461497381906000,10.820906005859374,7.137115478515625,2.1763293743133545,-1.357512354850769
1733461497391915800,10.830915771484374,6.63433313369751,2.3343467712402344,-1.381454348564148
1733461497401895200,10.840895263671875,6.282385349273682,2.341529369354248,-1.1851298809051514
1733461497411905000,10.850905029296875,6.0621185302734375,2.300827741622925,-0.9576807022094727
1733461497421914600,10.86091455078125,5.980715751647949,2.2912509441375732,-0.8068459630012512
1733461497431894000,10.87089404296875,5.990292549133301,2.3295583724975586,-0.8140285611152649
1733461497441903600,10.880903564453124,6.00226354598999,2.4013843536376953,-0.9026140570640564
1733461497451913500,10.89091357421875,5.987898349761963,2.3535003662109375,-0.7876923680305481
1733461497461892600,10.900892578125,6.217741966247559,2.2026655673980713,-0.49559974670410156
1733461497471902500,10.91090234375,6.660669326782227,2.075772762298584,-0.24899697303771973
1733461497481912000,10.920912109375,7.378929615020752,1.845929503440857,0.11252748221158981
1733461497491891500,10.930891357421874,8.226476669311523,1.6160861253738403,0.47644615173339844
1733461497501901000,10.940901123046874,8.990227699279785,1.3694833517074585,0.8140285611152649
1733461497511911000,10.950910888671874,9.516951560974121,1.2234370708465576,1.0845733880996704
1733461497521890300,10.960890380859375,9.787496566772461,1.1875240802764893,1.0271124839782715
1733461497531900000,10.97089990234375,10.108319282531738,1.235408067703247,0.8212111592292786
1733461497541909800,10.98090966796875,10.465055465698242,1.37906014919281,0.49799394607543945
1733461497551889000,10.990888916015624,11.03248119354248,1.5825673341751099,0.15562310814857483
1733461497561898800,11.000898681640624,11.520898818969727,1.802833914756775,-0.16519992053508759
1733461497571908400,11.010908447265624,12.052411079406738,2.1164743900299072,-0.43095630407333374
1733461497581918200,11.020918212890624,12.320562362670898,2.4157495498657227,-0.4381389021873474
1733461497591897600,11.030897705078125,12.227188110351562,2.765302896499634,-0.3280056416988373
1733461497601907200,11.0409072265625,11.51850414276123,2.980781078338623,-0.31842881441116333
1733461497611917000,11.0509169921875,10.074800491333008,3.3303346633911133,-0.6631938815116882
1733461497621896400,11.060896484375,8.9064302444458,3.531447410583496,-1.0247182846069336
1733461497631906000,11.070906005859374,8.015787124633789,3.5218706130981445,-1.3287819623947144
1733461497641916000,11.080916015625,7.673416614532471,3.339911460876465,-1.6280571222305298
1733461497651895000,11.09089501953125,8.066065788269043,2.9664158821105957,-1.699883222579956
1733461497661904600,11.100904541015625,9.14585018157959,2.4157495498657227,-1.6352397203445435
1733461497671914500,11.11091455078125,10.251971244812012,1.9823989868164062,-1.6759412288665771
1733461497681894000,11.120893798828124,11.17852783203125,1.6735470294952393,-1.6280571222305298
1733461497691903500,11.130903564453124,11.355698585510254,1.647210717201233,-1.721431016921997
1733461497701913300,11.140913330078124,10.809821128845215,1.678335428237915,-1.6879122257232666
1733461497711892700,11.150892822265625,9.974244117736816,1.9153614044189453,-1.5179238319396973
1733461497721902300,11.16090234375,8.89445972442627,2.190694570541382,-1.4963760375976562
1733461497731912200,11.170912109375,7.682993412017822,2.4420857429504395,-2.2697031497955322
1733461497741891300,11.180891357421874,7.240066051483154,2.7533318996429443,-3.177105665206909
1733461497751901200,11.190901123046874,8.257601737976074,2.4181437492370605,-4.1156325340271
1733461497761910800,11.200910888671874,10.254365921020508,1.1540051698684692,-4.307168960571289
1733461497771890200,11.21089013671875,13.728352546691895,-0.47644615173339844,-4.141968727111816
1733461497781900000,11.220900146484375,17.37711524963379,-1.8938134908676147,-3.56017804145813
1733461497791909600,11.23090966796875,21.353885650634766,-2.87064790725708,-1.5131354331970215
1733461497801889000,11.240888916015624,23.51824378967285,-3.064578056335449,0.395043283700943
1733461497811899000,11.25089892578125,23.52063751220703,-2.248155355453491,1.6376339197158813
1733461497821908500,11.260908447265624,21.169530868530273,-1.3670891523361206,1.2330138683319092
1733461497831918000,11.27091796875,16.304513931274414,-0.586579442024231,0.3256114423274994
1733461497841897500,11.2808974609375,11.221623420715332,-0.13168109953403473,0.26336219906806946
1733461497851907300,11.2909072265625,5.69580602645874,0.35673606395721436,-0.24420857429504395
1733461497861917000,11.3009169921875,1.2473790645599365,1.3910311460494995,-0.7134721279144287
1733461497871896300,11.310896240234374,-1.05105459690094,2.3104045391082764,-0.6703764796257019
1733461497881906000,11.320906005859374,-1.9129672050476074,2.827552318572998,0.1628057211637497
1733461497891915800,11.330915771484374,-2.1356279850006104,3.2992098331451416,0.05506663769483566
1733461497901895200,11.340895263671875,-1.0797849893569946,3.1076738834381104,0.4381389021873474
1733461497911904800,11.35090478515625,0.9361328482627869,2.2361843585968018,0.8619126081466675
1733461497921914600,11.36091455078125,3.4620156288146973,0.7230489253997803,1.8076223134994507
1733461497931894000,11.37089404296875,5.571307182312012,-0.8140285611152649,2.7293899059295654
1733461497941903600,11.380903564453124,8.473079681396484,-1.9776105880737305,2.82515811920166
1733461497951913500,11.39091357421875,11.975796699523926,-2.4181437492370605,2.6886885166168213
1733461497961892600,11.400892578125,14.911087989807129,-2.784456491470337,2.1571757793426514
1733461497971902200,11.410902099609375,16.266206741333008,-2.233790159225464,1.8507179021835327
1733461497981912000,11.420912109375,16.95094871520996,-1.534683346748352,1.0079588890075684
1733461497991891500,11.430891357421874,16.316484451293945,-0.5410895943641663,0.4692635238170624
1733461498001901300,11.4409013671875,14.628572463989258,0.21308395266532898,0.11252748221158981
1733461498011911000,11.450910888671874,12.29662036895752,0.8834604024887085,0.395043283700943
1733461498021890300,11.460890380859375,10.685321807861328,1.1061211824417114,0.5147533416748047
1733461498031900200,11.470900146484375,9.454702377319336,1.0989385843276978,0.8834604024887085
1733461498041909800,11.48090966796875,8.398859977722168,0.993593692779541,1.0606313943862915
1733461498051889000,11.490888916015624,7.553706169128418,0.9265560507774353,1.4269442558288574
1733461498061898800,11.500898681640624,7.19936466217041,0.7733271718025208,1.699883222579956
1733461498071908400,11.510908447265624,7.225700855255127,0.5434837937355042,1.7477672100067139
1733461498081918200,11.520918212890624,7.55131196975708,0.3495534360408783,1.647210717201233
1733461498091897600,11.530897705078125,8.02536392211914,0.10534487664699554,1.4844050407409668
1733461498101907200,11.5409072265625,8.789113998413086,-0.1867477297782898,1.161187767982483
1733461498111917000,11.5509169921875,9.639056205749512,-0.4596867263317108,0.8307880163192749
1733461498121896400,11.560896484375,10.438719749450684,-0.6512228846549988,0.31124621629714966
1733461498131906300,11.57090625,10.99896240234375,-0.6488286852836609,-0.21547815203666687
1733461498141916000,11.580916015625,11.425130844116211,-0.5937620401382446,-0.7182605266571045
1733461498151895000,11.59089501953125,11.580753326416016,-0.5434837937355042,-1.113303780555725
1733461498161904600,11.600904541015625,11.597513198852539,-0.5123591423034668,-1.3934253454208374
1733461498171914500,11.61091455078125,11.499350547790527,-0.44771572947502136,-1.7717092037200928
1733461498181894000,11.620893798828124,11.36048698425293,-0.33997663855552673,-2.2673089504241943
1733461498191903500,11.630903564453124,11.21204662322998,-0.14844051003456116,-3.1100680828094482
1733461498201913300,11.640913330078124,10.919954299926758,0.026336219161748886,-3.5266590118408203
1733461498211892700,11.650892822265625,10.72841739654541,0.1364694982767105,-3.643975019454956
1733461498221902300,11.66090234375,10.608707427978516,0.11252748221158981,-3.4811692237854004
1733461498231912200,11.670912109375,10.465055465698242,0.05985504388809204,-3.1914708614349365
1733461498241891300,11.680891357421874,10.194510459899902,0,-2.784456491470337
1733461498251901000,11.69090087890625,9.75397777557373,0.040701430290937424,-2.7222073078155518
1733461498261910800,11.700910888671874,9.399636268615723,0.27054479718208313,-3.043030261993408
1733461498271890200,11.71089013671875,9.069235801696777,0.6033388376235962,-3.5625722408294678
1733461498281899800,11.720899658203125,8.913613319396973,0.8643068075180054,-3.9432501792907715
1733461498291909600,11.73090966796875,8.81784439086914,1.036689281463623,-4.165910720825195
1733461498301889000,11.740888916015624,8.832210540771484,1.213860273361206,-4.14915132522583
1733461498311899000,11.75089892578125,8.939949035644531,1.1635819673538208,-3.845088005065918
1733461498321908500,11.760908447265624,9.033323287963867,1.1348515748977661,-3.5266590118408203
1733461498331918300,11.77091845703125,9.05247688293457,1.194706678390503,-3.3279404640197754
1733461498341897500,11.7808974609375,9.045293807983398,1.2976573705673218,-3.308786630630493
1733461498351907300,11.7909072265625,9.033323287963867,1.4269442558288574,-3.533841609954834
1733461498361917000,11.8009169921875,8.978256225585938,1.6903064250946045,-3.7397429943084717
1733461498371896300,11.810896240234374,8.777143478393555,1.8986018896102905,-3.890577793121338
1733461498381906000,11.820906005859374,8.628703117370605,2.0925323963165283,-3.907337188720703
1733461498391915800,11.830915771484374,8.465897560119629,2.2194249629974365,-3.8570590019226074
1733461498401895200,11.840895263671875,8.406042098999023,2.3080103397369385,-3.77565598487854
1733461498411904800,11.85090478515625,8.461109161376953,2.2649147510528564,-3.5218706130981445
1733461498421914600,11.86091455078125,8.643068313598633,2.1715409755706787,-3.308786630630493
1733461498431894000,11.87089404296875,8.9064302444458,2.0805611610412598,-3.1435868740081787
1733461498441903600,11.880903564453124,9.153033256530762,2.094926595687866,-2.9879636764526367
1733461498451913500,11.89091357421875,9.35893440246582,2.2146365642547607,-2.8443117141723633
1733461498461892600,11.900892578125,9.47146224975586,2.3032219409942627,-2.7509377002716064
1733461498471902200,11.910902099609375,9.490615844726562,2.3535003662109375,-2.5713725090026855
1733461498481912000,11.920912109375,9.409213066101074,2.343923568725586,-2.3798365592956543
1733461498491891500,11.930891357421874,9.375694274902344,2.2697031497955322,-2.056619167327881
1733461498501901000,11.940901123046874,9.454702377319336,2.1978771686553955,-1.867477297782898
1733461498511911000,11.950910888671874,9.603142738342285,2.056619167327881,-1.7501614093780518
1733461498521890300,11.960890380859375,9.48343276977539,2.0015525817871094,-1.6711528301239014
1733461498531900000,11.97089990234375,9.090784072875977,2.0614075660705566,-1.8602946996688843
1733461498541909800,11.98090966796875,8.635885238647461,2.2864625453948975,-2.183511972427368
1733461498551889000,11.990888916015624,8.281543731689453,2.449268341064453,-2.3918075561523438
1733461498561898800,12.000898681640624,8.121131896972656,2.537853717803955,-2.518700122833252
1733461498571908400,12.010908447265624,8.169015884399414,2.58813214302063,-2.652775526046753
1733461498581918200,12.020918212890624,8.465897560119629,2.542642116546631,-2.7078421115875244
1733461498591897300,12.0308974609375,8.927978515625,2.4612393379211426,-2.7054479122161865
1733461498601907200,12.0409072265625,9.603142738342285,2.3080103397369385,-2.535459518432617
1733461498611917000,12.0509169921875,10.077195167541504,2.205059766769409,-2.5258827209472656
1733461498621896400,12.060896484375,10.424354553222656,2.252943754196167,-2.5234885215759277
1733461498631906000,12.070906005859374,10.651803016662598,2.4013843536376953,-2.564189910888672
1733461498641916000,12.080916015625,10.867281913757324,2.518700122833252,-2.3942017555236816
1733461498651895000,12.09089501953125,11.12106704711914,2.7222073078155518,-2.1763293743133545
1733461498661904600,12.100904541015625,11.101913452148438,3.021482467651367,-2.1571757793426514
1733461498671914500,12.11091455078125,10.809821128845215,3.222595453262329,-2.1787235736846924
1733461498681894000,12.120893798828124,10.402806282043457,3.184288263320923,-2.0446481704711914
1733461498691903500,12.130903564453124,10.153809547424316,2.959233283996582,-1.9369091987609863
1733461498701913300,12.140913330078124,10.211270332336426,2.604891538619995,-1.8746598958969116
1733461498711892700,12.150892822265625,10.769119262695312,2.145204782485962,-1.766920804977417
1733461498721902300,12.16090234375,11.532869338989258,1.6184803247451782,-1.778891921043396
1733461498731912200,12.170912109375,12.378023147583008,1.2401964664459229,-1.4269442558288574
1733461498741891300,12.180891357421874,12.955025672912598,0.9528923034667969,-1.2665326595306396
1733461498751901200,12.190901123046874,13.345280647277832,0.828393816947937,-0.871489405632019
1733461498761910800,12.200910888671874,13.649343490600586,0.7589619159698486,-0.6200982332229614
1733461498771890200,12.21089013671875,13.73314094543457,0.8259995579719543,-0.5363011956214905
1733461498781900000,12.220900146484375,13.529633522033691,1.0295066833496094,-0.5817909836769104
1733461498791909600,12.23090966796875,13.275848388671875,1.1994950771331787,-0.8140285611152649
1733461498801889000,12.240888916015624,12.995726585388184,1.2114660739898682,-0.5770025849342346
1733461498811899000,12.25089892578125,12.854469299316406,1.0223240852355957,0.0454898327589035
1733461498821908500,12.260908447265624,12.085929870605469,0.8451532125473022,0.6440402865409851
1733461498831918300,12.27091845703125,11.154585838317871,0.8355764150619507,1.1444283723831177
1733461498841897500,12.2808974609375,9.931148529052734,0.727837324142456,1.6065093278884888
1733461498851907300,12.2909072265625,8.367734909057617,0.6655880808830261,1.965639591217041
1733461498861917000,12.3009169921875,6.72531270980835,0.7661445140838623,2.2194249629974365
1733461498871896300,12.310896240234374,4.853046894073486,0.9624691009521484,2.365471363067627
1733461498881906000,12.320906005859374,3.4787750244140625,1.3934253454208374,2.2242133617401123
1733461498891915800,12.330915771484374,2.432508945465088,2.0590133666992188,1.8914192914962769
1733461498901895200,12.340895263671875,1.9177556037902832,2.5258827209472656,1.534683346748352
1733461498911904800,12.35090478515625,2.1787235736846924,2.719813108444214,1.4077905416488647
1733461498921914600,12.36091455078125,2.959233283996582,2.631227731704712,1.2952631711959839
1733461498931894000,12.37089404296875,4.185064792633057,2.3702597618103027,1.3335703611373901
1733461498941903600,12.380903564453124,5.880159378051758,1.6065093278884888,1.9393033981323242
1733461498951913500,12.39091357421875,8.300697326660156,0.4165911078453064,2.9281086921691895
1733461498961892600,12.400892578125,10.486603736877441,-0.2777273952960968,3.2609026432037354
1733461498971902200,12.410902099609375,11.743558883666992,-0.16519992053508759,2.9664158821105957
1733461498981912000,12.420912109375,12.799402236938477,0.5051765441894531,1.6376339197158813
1733461498991891500,12.430891357421874,13.383587837219238,1.2210428714752197,0.4884171485900879
1733461499001901300,12.4409013671875,13.235146522521973,1.8818424940109253,-0.4596867263317108
1733461499011911000,12.450910888671874,12.591106414794922,2.4803929328918457,-1.1037269830703735
1733461499021890300,12.460890380859375,11.33654499053955,2.8826189041137695,-1.5131354331970215
1733461499031900200,12.470900146484375,9.713275909423828,2.911349296569824,-1.280897855758667
1733461499041909800,12.48090966796875,8.686163902282715,3.0334534645080566,-1.1085153818130493
1733461499051889000,12.490888916015624,8.427590370178223,3.1866824626922607,-1.1635819673538208
1733461499061898800,12.500898681640624,8.619126319885254,3.045424461364746,-0.9241618514060974
1733461499071908400,12.510908447265624,8.7268648147583,2.779668092727661,-0.4213795065879822
1733461499081918200,12.520918212890624,8.707711219787598,2.6240451335906982,-0.15083470940589905
1733461499091897600,12.530897705078125,8.647856712341309,2.5474305152893066,-0.08140286058187485
1733461499101907200,12.5409072265625,8.53293514251709,2.609679937362671,-0.2944868206977844
1733461499111917000,12.5509169921875,8.322244644165039,2.762908697128296,-0.629675030708313
1733461499121896400,12.560896484375,8.04691219329834,2.9089550971984863,-0.9002198576927185
1733461499131906000,12.570906005859374,7.876923561096191,2.942473888397217,-0.9409212470054626
1733461499141916000,12.580916015625,7.819462776184082,2.868253707885742,-0.7972691655158997
1733461499151895000,12.59089501953125,7.817068576812744,2.7006595134735107,-0.5554547905921936
1733461499161904600,12.600904541015625,7.714118003845215,2.5067291259765625,-0.10773907601833344
1733461499171914500,12.61091455078125,7.826645374298096,2.3726539611816406,0.2082955539226532
1733461499181894000,12.620893798828124,8.17380428314209,2.3918075561523438,0.6607996821403503
1733461499191903500,12.630903564453124,8.856152534484863,2.5282769203186035,0.33279404044151306
1733461499201913300,12.640913330078124,9.701305389404297,2.7485435009002686,-0.4836287498474121
1733461499211892700,12.650892822265625,10.438719749450684,2.983175277709961,-1.3096283674240112
1733461499221902300,12.66090234375,10.910377502441406,3.1292216777801514,-2.0901381969451904
1733461499231912200,12.670912109375,11.312602996826172,3.155557870864868,-2.2888567447662354
1733461499241891300,12.680891357421874,12.231976509094238,3.160346269607544,-2.1811177730560303
1733461499251901000,12.69090087890625,13.050793647766113,3.095702886581421,-1.6136919260025024
1733461499261910800,12.700910888671874,13.986926078796387,2.9281086921691895,-0.9169792532920837
1733461499271890200,12.71089013671875,14.477737426757812,2.8107926845550537,-0.5961562395095825
1733461499281899800,12.720899658203125,14.52322769165039,2.8874073028564453,-0.5123591423034668
1733461499291909600,12.73090966796875,14.142549514770508,3.184288263320923,-0.6224924325942993
1733461499301889000,12.740888916015624,13.663708686828613,3.160346269607544,-1.1252747774124146
1733461499311899000,12.75089892578125,13.333309173583984,2.736572504043579,-1.577778935432434
1733461499321908500,12.760908447265624,13.48653793334961,1.8602946996688843,-1.5825673341751099
1733461499331918300,12.77091845703125,14.214375495910645,0.7015010714530945,-1.3670891523361206
1733461499341897500,12.7808974609375,15.528792381286621,-0.24420857429504395,-1.0079588890075684
1733461499351907300,12.7909072265625,17.08023452758789,-0.9002198576927185,-0.5315127968788147
1733461499361917000,12.8009169921875,17.489643096923828,-0.9409212470054626,-0.730231523513794
1733461499371896300,12.810896240234374,16.242263793945312,-0.5961562395095825,-1.647210717201233
1733461499381906200,12.82090625,13.977349281311035,-0.5650315880775452,-2.0661959648132324
1733461499391915800,12.830915771484374,10.759542465209961,-0.5817909836769104,-2.31758713722229
1733461499401895200,12.840895263671875,7.620744228363037,-0.3663128614425659,-2.5546131134033203
1733461499411904800,12.85090478515625,4.955997467041016,-0.07422025501728058,-3.028665065765381
1733461499421914600,12.86091455078125,3.1531636714935303,0.7326257228851318,-3.6774938106536865
1733461499431894000,12.87089404296875,2.2577321529388428,1.3024457693099976,-3.9647979736328125
1733461499441903600,12.880903564453124,2.1930887699127197,1.5275006294250488,-3.5266590118408203
1733461499451913500,12.89091357421875,2.832340717315674,1.4437036514282227,-2.6647465229034424
1733461499461892600,12.900892578125,3.9695863723754883,0.9457096457481384,-0.9385270476341248
1733461499471902200,12.910902099609375,5.343858242034912,0.3016694188117981,0.6560112833976746
1733461499481912000,12.920912109375,7.307103633880615,0.090979665517807,1.45806884765625
1733461499491891500,12.930891357421874,9.097966194152832,0.22744916379451752,1.194706678390503
1733461499501901300,12.9409013671875,9.509769439697266,0.47644615173339844,1.2330138683319092
