time,seconds_elapsed,z,y,x
1733224533002078000,0.655077880859375,-0.31978511810302734,-0.09405827522277832,-0.004650741815567017
1733224533011795000,0.664794921875,-0.13592243194580078,-0.09421467781066895,-0.0369747132062912
1733224533022219800,0.6752197265625,0.1621561050415039,-0.10221672058105469,-0.06055711209774017
1733224533032229400,0.6852294921875,0.3172578811645508,-0.10415172576904297,-0.09070172905921936
1733224533042208800,0.695208740234375,0.3919382095336914,-0.10840225219726562,-0.18006110191345215
1733224533052218400,0.70521826171875,0.34113216400146484,-0.15339899063110352,-0.16303476691246033
1733224533062228200,0.715228271484375,0.23293113708496094,-0.13936114311218262,-0.24795904755592346
1733224533072207600,0.72520751953125,0.09503650665283203,-0.10454869270324707,-0.26326316595077515
1733224533082217500,0.735217529296875,-0.09882736206054688,-0.029585838317871094,-0.2593768537044525
1733224533091990500,0.744990478515625,-0.2930259704589844,0.010250091552734375,-0.20474518835544586
1733224533110156000,0.763156005859375,-0.6973381042480469,0.10343050956726074,0.002157539129257202
1733224533120166000,0.773165771484375,-0.723576545715332,0.07876753807067871,0.045374058187007904
1733224533130145300,0.783145263671875,-0.5923843383789062,0.048760414123535156,0.017124518752098083
1733224533140155100,0.793155029296875,-0.4052143096923828,0.0232999324798584,-0.03497067093849182
1733224533150164700,0.803164794921875,-0.2736978530883789,-0.09188342094421387,-0.15124864876270294
1733224533160144000,0.813143798828125,-0.15067577362060547,-0.13731718063354492,-0.2721046209335327
1733224533170153700,0.82315380859375,-0.04236412048339844,-0.1767280101776123,-0.4058164954185486
1733224533180163300,0.833163330078125,-0.0032777786254882812,-0.17977476119995117,-0.43983393907546997
1733224533190142700,0.843142822265625,-0.09209918975830078,-0.14960074424743652,-0.448412150144577
1733224533200152600,0.853152587890625,-0.3475370407104492,-0.027163267135620117,-0.42094892263412476
1733224533210162200,0.863162109375,-0.582850456237793,0.03147435188293457,-0.27523767948150635
1733224533220141600,0.8731416015625,-0.7797222137451172,-0.005306243896484375,-0.13452935218811035
1733224533230151400,0.8831513671875,-0.781829833984375,-0.06000089645385742,-0.003988325595855713
1733224533240161000,0.8931611328125,-0.6751480102539062,-0.1081535816192627,0.1463836431503296
1733224533250140200,0.90314013671875,-0.47214412689208984,-0.13718628883361816,0.07536929845809937
1733224533260150000,0.91314990234375,-0.291107177734375,-0.17647385597229004,-0.08848285675048828
1733224533270159600,0.92315966796875,-0.22470855712890625,-0.14456772804260254,-0.2481256127357483
1733224533280169500,0.93316943359375,-0.26105785369873047,-0.10046029090881348,-0.36784833669662476
1733224533290148900,0.94314892578125,-0.3769950866699219,-0.03752875328063965,-0.4131341576576233
1733224533300158700,0.95315869140625,-0.5459728240966797,0.023402929306030273,-0.46478670835494995
1733224533310168300,0.963168212890625,-0.6955623626708984,0.016145944595336914,-0.44354766607284546
1733224533320147700,0.973147705078125,-0.7614631652832031,-0.017348289489746094,-0.4161619544029236
1733224533330157300,0.9831572265625,-0.6793718338012695,0.0364227294921875,-0.4000120162963867
1733224533340167200,0.993167236328125,-0.5262956619262695,0.09969973564147949,-0.40027469396591187
1733224533350146300,1.003146240234375,-0.24258136749267578,0.11080527305603027,-0.3816150426864624
1733224533360156200,1.01315625,0.05144500732421875,0.10579490661621094,-0.3311741352081299
1733224533370165800,1.023165771484375,0.3955545425415039,0.16490435600280762,-0.21797478199005127
1733224533380145200,1.033145263671875,0.682124137878418,0.19178032875061035,-0.04982727766036987
1733224533390155000,1.043155029296875,0.8988552093505859,0.2464303970336914,0.2010001540184021
1733224533400164600,1.05316455078125,1.0031461715698242,0.37049198150634766,0.34156274795532227
1733224533410144000,1.06314404296875,1.019780158996582,0.39381980895996094,0.5483824014663696
1733224533420153900,1.07315380859375,0.9157686233520508,0.4123554229736328,0.6055513620376587
1733224533430163500,1.08316357421875,0.6399726867675781,0.5045011043548584,0.5050836205482483
1733224533440142800,1.093142822265625,0.3460245132446289,0.5894672870635986,0.3608258068561554
1733224533450152400,1.10315234375,0.012739181518554688,0.577491044998169,0.35767731070518494
1733224533460162300,1.113162353515625,-0.36033153533935547,0.5774400234222412,0.3550979197025299
1733224533470141400,1.123141357421875,-0.586848258972168,0.6458709239959717,0.40315839648246765
1733224533480151300,1.1331513671875,-0.7461767196655273,0.7556984424591064,0.430793821811676
1733224533490161000,1.143160888671875,-0.7070379257202148,0.9086172580718994,0.5629218220710754
1733224533500140300,1.153140380859375,-0.5272769927978516,0.7344815731048584,0.7027357220649719
1733224533510150100,1.163150146484375,-0.3519620895385742,0.579005241394043,0.8049215078353882
1733224533520160000,1.173159912109375,-0.22655677795410156,0.4955015182495117,0.8586806058883667
1733224533530169600,1.183169677734375,-0.15274429321289062,0.4148375988006592,0.8790104985237122
1733224533540149000,1.19314892578125,-0.09586143493652344,0.3639106750488281,0.8881431221961975
1733224533550158600,1.20315869140625,-0.014307022094726562,0.34775662422180176,0.8225845098495483
1733224533560168400,1.21316845703125,0.06090545654296875,0.3158750534057617,0.6164051294326782
1733224533570147600,1.223147705078125,0.15494632720947266,0.21718883514404297,0.3305578827857971
1733224533580157400,1.233157470703125,0.32770252227783203,0.16159677505493164,0.047002047300338745
1733224533590167000,1.2431669921875,0.5746259689331055,0.2065415382385254,-0.3008466064929962
1733224533600146400,1.253146484375,0.6377573013305664,0.3048698902130127,-0.5832275152206421
1733224533610156000,1.263156005859375,0.4747200012207031,0.346951961517334,-0.798215389251709
1733224533620166000,1.273165771484375,0.22213363647460938,0.36592745780944824,-0.9006258249282837
1733224533630145300,1.283145263671875,-0.010502815246582031,0.32282233238220215,-0.9956998825073242
1733224533640155100,1.293155029296875,-0.17255783081054688,0.10344552993774414,-0.8194332122802734
1733224533650164700,1.303164794921875,-0.2502889633178711,-0.10789227485656738,-0.6827442646026611
1733224533660143900,1.313143798828125,0.026338577270507812,-0.25860023498535156,-0.7164283990859985
1733224533670153700,1.32315380859375,0.6427221298217773,-0.36947083473205566,-0.8037136793136597
1733224533680163300,1.333163330078125,1.5110540390014648,-0.5735745429992676,-0.9498258233070374
1733224533690142700,1.343142822265625,2.1793041229248047,-0.7840523719787598,-1.003787875175476
1733224533700152600,1.353152587890625,2.6800737380981445,-0.9064202308654785,-1.2311280965805054
1733224533710162200,1.363162109375,2.95751953125,-0.9283409118652344,-1.398747205734253
1733224533720141600,1.3731416015625,3.1251773834228516,-0.9125621318817139,-1.6089502573013306
1733224533730151400,1.3831513671875,3.0779361724853516,-0.819072961807251,-1.6919817924499512
1733224533740161000,1.3931611328125,2.7020721435546875,-0.6873738765716553,-1.5924572944641113
1733224533750140200,1.40314013671875,2.2415952682495117,-0.523871898651123,-1.3450794219970703
1733224533760150000,1.41314990234375,1.7029228210449219,-0.41956019401550293,-0.9879565238952637
1733224533770159600,1.42315966796875,1.2999200820922852,-0.458385705947876,-0.3617256283760071
1733224533780169500,1.43316943359375,1.2465991973876953,-0.44455671310424805,0.04309847950935364
1733224533790148900,1.44314892578125,1.5028839111328125,-0.44506406784057617,0.42364829778671265
1733224533800158700,1.45315869140625,1.7390899658203125,-0.4960057735443115,0.7219179272651672
1733224533810168300,1.463168212890625,1.846613883972168,-0.6203985214233398,1.0034677982330322
1733224533820147700,1.473147705078125,1.775395393371582,-0.8811540603637695,1.4535455703735352
1733224533830157600,1.483157470703125,1.5970582962036133,-1.3976991176605225,1.9863137006759644
1733224533840167200,1.493167236328125,1.7365779876708984,-2.009033203125,2.3514397144317627
1733224533850146300,1.503146240234375,2.6431312561035156,-2.7605066299438477,2.246422052383423
1733224533860156000,1.513156005859375,3.7181596755981445,-3.2567718029022217,1.7683321237564087
1733224533870165800,1.523165771484375,4.727117538452148,-3.537728786468506,0.9614525437355042
1733224533880145200,1.533145263671875,5.106451988220215,-3.721116781234741,0.19469663500785828
1733224533890155000,1.543155029296875,4.823383331298828,-3.8805203437805176,-0.36612945795059204
1733224533900164600,1.55316455078125,3.7271804809570312,-4.034965515136719,-0.2783839702606201
1733224533910144000,1.56314404296875,2.424466133117676,-4.083610534667969,0.08001460134983063
1733224533920153900,1.57315380859375,0.8234062194824219,-3.989631175994873,0.4590090811252594
1733224533930163500,1.58316357421875,-0.5786838531494141,-3.875379800796509,0.8147400617599487
1733224533940142800,1.593142822265625,-1.7306947708129883,-3.6171844005584717,1.236209511756897
1733224533950152400,1.60315234375,-2.317267417907715,-3.420562267303467,1.6908752918243408
1733224533960162300,1.613162353515625,-2.4959397315979004,-3.333381175994873,2.1639864444732666
1733224533970141400,1.623141357421875,-2.4076175689697266,-3.3442869186401367,2.4205379486083984
1733224533980151300,1.6331513671875,-2.053091526031494,-3.313387870788574,2.4495275020599365
1733224533990161000,1.643160888671875,-1.527000904083252,-3.2436890602111816,2.243168830871582
1733224534000140300,1.653140380859375,-0.8906135559082031,-3.1734659671783447,1.8584914207458496
1733224534010150100,1.663150146484375,-0.46032142639160156,-3.0810253620147705,1.5332361459732056
1733224534020159700,1.67315966796875,-0.29854679107666016,-2.937993288040161,1.1854124069213867
1733224534030169600,1.683169677734375,-0.33721923828125,-2.7580394744873047,0.8875204920768738
1733224534040149000,1.69314892578125,-0.532343864440918,-2.6325645446777344,0.6688405871391296
1733224534050158800,1.703158935546875,-0.8573169708251953,-2.512629508972168,0.4495023488998413
1733224534060168400,1.71316845703125,-1.1090893745422363,-2.3924784660339355,0.26179391145706177
1733224534070147600,1.723147705078125,-1.3482437133789062,-2.231919765472412,0.09112238883972168
1733224534080157200,1.7331572265625,-1.4415793418884277,-2.167360305786133,0.0843108594417572
1733224534090167000,1.7431669921875,-1.4972691535949707,-2.12296724319458,0.2649787664413452
1733224534100146400,1.753146484375,-1.3199834823608398,-2.098057746887207,0.3850042521953583
1733224534110156300,1.76315625,-0.9526767730712891,-2.088120222091675,0.43991386890411377
1733224534120166000,1.773165771484375,-0.5625572204589844,-2.0701746940612793,0.4337047338485718
1733224534130145300,1.783145263671875,-0.20837974548339844,-1.9966864585876465,0.3508938252925873
1733224534140155100,1.793155029296875,-0.030506134033203125,-1.9298981428146362,0.3429396152496338
1733224534150164700,1.803164794921875,-0.0229949951171875,-1.8536566495895386,0.3606451153755188
1733224534160144000,1.813143798828125,-0.19479942321777344,-1.7409632205963135,0.39817142486572266
1733224534170153700,1.82315380859375,-0.36289119720458984,-1.6141834259033203,0.5110063552856445
1733224534180163300,1.833163330078125,-0.5844154357910156,-1.4488706588745117,0.7030417323112488
1733224534190142700,1.843142822265625,-0.6999530792236328,-1.3693609237670898,0.8624626398086548
1733224534200152600,1.853152587890625,-0.7846755981445312,-1.339489221572876,1.0635350942611694
1733224534210162200,1.863162109375,-0.7291107177734375,-1.342832326889038,1.1784743070602417
1733224534220141600,1.8731416015625,-0.4954710006713867,-1.3346166610717773,1.1537270545959473
1733224534230151400,1.8831513671875,-0.10555171966552734,-1.3115899562835693,1.0132863521575928
1733224534240161000,1.8931611328125,0.27932262420654297,-1.192192554473877,0.7903364896774292
1733224534250140400,1.903140380859375,0.7117509841918945,-1.1809630393981934,0.56459641456604
1733224534260150000,1.91314990234375,0.9483118057250977,-1.1321096420288086,0.26167920231819153
1733224534270160000,1.923159912109375,1.037912368774414,-1.0509076118469238,-0.08271285891532898
1733224534280169500,1.93316943359375,0.873875617980957,-0.971397876739502,-0.3025420904159546
1733224534290148900,1.94314892578125,0.4136476516723633,-0.8353292942047119,-0.44711703062057495
1733224534300158500,1.953158447265625,-0.002964019775390625,-0.7356038093566895,-0.3963596224784851
1733224534310168300,1.963168212890625,-0.2672739028930664,-0.6352086067199707,-0.1917954683303833
1733224534320147700,1.973147705078125,-0.16261672973632812,-0.5691256523132324,0.09959858655929565
1733224534330157300,1.9831572265625,0.2232837677001953,-0.6267995834350586,0.37188994884490967
1733224534340167200,1.993167236328125,0.727055549621582,-0.7180864810943604,0.5402778387069702
1733224534350146300,2.003146240234375,1.4785947799682617,-0.8106105327606201,0.6378321647644043
1733224534360156200,2.01315625,2.1711597442626953,-0.9483695030212402,0.7302389740943909
1733224534370165800,2.023165771484375,2.639695167541504,-1.0470185279846191,0.6628662347793579
1733224534380145200,2.033145263671875,2.991039276123047,-1.0259747505187988,0.378972589969635
1733224534390155000,2.043155029296875,3.15853214263916,-0.9127917289733887,0.07909137010574341
1733224534400164600,2.05316455078125,3.0611515045166016,-0.775585412979126,-0.22531461715698242
1733224534410144000,2.06314404296875,2.735605239868164,-0.7813065052032471,-0.293459415435791
1733224534420153900,2.07315380859375,2.2845077514648438,-0.766460657119751,-0.41950392723083496
1733224534430163500,2.08316357421875,1.969843864440918,-0.7306303977966309,-0.6806107759475708
1733224534440142800,2.093142822265625,1.847482681274414,-0.6322298049926758,-1.0503265857696533
1733224534450152400,2.10315234375,1.7053861618041992,-0.5714125633239746,-1.1556522846221924
1733224534460162300,2.113162353515625,1.592529296875,-0.7470488548278809,-0.8533939719200134
1733224534470141400,2.123141357421875,1.6089048385620117,-1.2411882877349854,-0.20026785135269165
1733224534480151300,2.1331513671875,2.0092411041259766,-1.715308427810669,0.3554190397262573
1733224534490161000,2.143160888671875,2.763845443725586,-2.0541815757751465,0.5960108637809753
1733224534500140300,2.153140380859375,3.3326168060302734,-2.216000556945801,0.4998455047607422
1733224534510150100,2.163150146484375,3.7898712158203125,-2.4305968284606934,0.06351110339164734
1733224534520160000,2.173159912109375,3.979921340942383,-2.523190498352051,-0.4717053472995758
1733224534530169600,2.183169677734375,3.7809572219848633,-2.52392840385437,-0.8884471654891968
1733224534540149000,2.19314892578125,2.948629379272461,-2.5589606761932373,-0.8325697183609009
1733224534550158600,2.20315869140625,1.6728324890136719,-2.656843662261963,-0.6326004862785339
1733224534560168400,2.21316845703125,0.33802032470703125,-2.80587100982666,-0.3792235851287842
1733224534570147600,2.223147705078125,-0.9778780937194824,-2.90303897857666,-0.21054178476333618
1733224534580157400,2.233157470703125,-1.8841524124145508,-2.9203758239746094,-0.15488237142562866
1733224534590167000,2.2431669921875,-2.3016815185546875,-2.8869576454162598,-0.27921396493911743
1733224534600146400,2.253146484375,-2.2912850379943848,-2.9133288860321045,-0.48082685470581055
1733224534610156000,2.263156005859375,-1.8602356910705566,-2.923494577407837,-0.6428221464157104
1733224534620166000,2.273165771484375,-1.2243461608886719,-2.9398131370544434,-0.596025824546814
1733224534630145300,2.283145263671875,-0.7685928344726562,-2.9385557174682617,-0.4930717945098877
1733224534640155100,2.293155029296875,-0.4022865295410156,-2.974287509918213,-0.3322973847389221
1733224534650164700,2.303164794921875,-0.14295578002929688,-2.899810791015625,-0.1839379072189331
1733224534660143900,2.313143798828125,0.10377025604248047,-2.763394594192505,-0.023436307907104492
1733224534670153700,2.32315380859375,0.2738494873046875,-2.590884208679199,0.10948896408081055
1733224534680163300,2.333163330078125,0.3487997055053711,-2.3003273010253906,0.20786428451538086
1733224534690142700,2.343142822265625,0.24578571319580078,-1.9813880920410156,0.19638431072235107
1733224534700152600,2.353152587890625,-0.09504508972167969,-1.6649682521820068,0.18743205070495605
1733224534710162200,2.363162109375,-0.5268611907958984,-1.501272439956665,0.155134916305542
1733224534720141600,2.3731416015625,-0.9568262100219727,-1.4532413482666016,0.15078291296958923
1733224534730151400,2.3831513671875,-1.3051352500915527,-1.4547595977783203,0.126345694065094
1733224534740161000,2.3931611328125,-1.4971203804016113,-1.501124620437622,0.09879723191261292
1733224534750140200,2.40314013671875,-1.5701179504394531,-1.5431735515594482,-0.02493518590927124
1733224534760150000,2.41314990234375,-1.4494080543518066,-1.5379867553710938,-0.06423267722129822
1733224534770159600,2.42315966796875,-1.2518291473388672,-1.5294322967529297,-0.06888991594314575
1733224534780169500,2.43316943359375,-1.0418701171875,-1.4749047756195068,-0.06195327639579773
1733224534790148900,2.44314892578125,-0.7305841445922852,-1.4088189601898193,-0.07808166742324829
1733224534800158700,2.45315869140625,-0.5448570251464844,-1.3158447742462158,-0.08188238739967346
1733224534810168300,2.463168212890625,-0.4886770248413086,-1.2313964366912842,-0.04245980083942413
1733224534820147700,2.473147705078125,-0.45845890045166016,-1.1114895343780518,-0.03458769619464874
1733224534830157600,2.483157470703125,-0.46589183807373047,-1.047696828842163,-0.04285511374473572
1733224534840167200,2.493167236328125,-0.5400495529174805,-1.017897129058838,-0.11673259735107422
1733224534850146300,2.503146240234375,-0.5853042602539062,-1.0146312713623047,-0.2334602177143097
1733224534860156200,2.51315625,-0.5469112396240234,-1.0300674438476562,-0.3899792432785034
1733224534870165800,2.523165771484375,-0.4229774475097656,-1.036902666091919,-0.4597233533859253
1733224534880145200,2.533145263671875,-0.09928321838378906,-1.0432679653167725,-0.5360144376754761
1733224534890155000,2.543155029296875,0.21803760528564453,-1.0007777214050293,-0.5259693264961243
1733224534900164600,2.55316455078125,0.5719766616821289,-0.8550105094909668,-0.3429187536239624
1733224534910144000,2.56314404296875,0.8122835159301758,-0.8104324340820312,-0.17972439527511597
1733224534920153900,2.57315380859375,1.1378593444824219,-0.772972822189331,0.015008687973022461
1733224534930163500,2.58316357421875,1.4532785415649414,-0.7669844627380371,0.1690036952495575
1733224534940142800,2.593142822265625,1.5112314224243164,-0.4791836738586426,0.2983546555042267
1733224534950152400,2.60315234375,1.5879335403442383,-0.3501245975494385,0.3914191722869873
1733224534960162300,2.613162353515625,1.6100091934204102,-0.2814908027648926,0.3312370181083679
1733224534970141400,2.623141357421875,1.5733489990234375,-0.21921706199645996,0.12645122408866882
1733224534980151300,2.6331513671875,1.4571571350097656,-0.2517669200897217,-0.02705073356628418
1733224534990161000,2.643160888671875,1.309342384338379,-0.3627004623413086,-0.050648242235183716
1733224535000140300,2.653140380859375,1.315964698791504,-0.5609867572784424,0.10753148794174194
1733224535010150100,2.663150146484375,1.5232667922973633,-0.7969558238983154,0.28926050662994385
1733224535020159700,2.67315966796875,1.775071144104004,-0.968120813369751,0.2817060351371765
1733224535030169600,2.683169677734375,2.1073389053344727,-0.9879603385925293,0.16283449530601501
1733224535040149000,2.69314892578125,2.336092948913574,-1.0680731534957886,0.17484627664089203
1733224535050158800,2.703158935546875,2.380380630493164,-1.2312614917755127,0.24345065653324127
1733224535060168400,2.71316845703125,2.2188720703125,-1.5549553632736206,0.35806897282600403
1733224535070147600,2.723147705078125,2.1004819869995117,-1.9837958812713623,0.49549731612205505
1733224535080157200,2.7331572265625,2.359518051147461,-2.620579481124878,0.5156424045562744
1733224535090167000,2.7431669921875,2.9138383865356445,-2.991255521774292,0.41337233781814575
1733224535100146400,2.753146484375,3.577404022216797,-3.0594162940979004,-0.08577216416597366
1733224535110156300,2.76315625,3.8062524795532227,-2.9624388217926025,-0.5113047957420349
1733224535120166000,2.773165771484375,3.846898078918457,-2.8249645233154297,-0.7731125950813293
1733224535130145300,2.783145263671875,3.4260635375976562,-2.738511085510254,-0.5192453265190125
1733224535140155100,2.793155029296875,2.3824453353881836,-2.5109403133392334,0.2809126675128937
1733224535150164700,2.803164794921875,1.0534791946411133,-2.267958402633667,1.0929303169250488
1733224535160144000,2.813143798828125,-0.22244644165039062,-2.098886013031006,1.7666778564453125
1733224535170153700,2.82315380859375,-1.527115821838379,-1.8362644910812378,2.479844570159912
1733224535180163300,2.833163330078125,-2.4467411041259766,-1.6008626222610474,2.9439573287963867
1733224535190142700,2.843142822265625,-2.9876437187194824,-1.4610694646835327,3.2363855838775635
1733224535200152600,2.853152587890625,-3.006497383117676,-1.4527667760849,3.2840940952301025
1733224535210162200,2.863162109375,-2.4137563705444336,-1.5055190324783325,2.990312099456787
1733224535220141600,2.8731416015625,-1.5331807136535645,-1.5754685401916504,2.5646729469299316
1733224535230151400,2.8831513671875,-0.6978616714477539,-1.6347273588180542,2.1224396228790283
1733224535240161000,2.8931611328125,-0.14269065856933594,-1.6449888944625854,1.6850054264068604
1733224535250140400,2.903140380859375,0.31232643127441406,-1.6847996711730957,1.1915093660354614
1733224535260150000,2.91314990234375,0.4895305633544922,-1.6844508647918701,0.8620689511299133
1733224535270160000,2.923159912109375,0.4275846481323242,-1.6081340312957764,0.4920926094055176
1733224535280169500,2.93316943359375,0.19878196716308594,-1.4214500188827515,0.18913228809833527
1733224535290148900,2.94314892578125,-0.1723041534423828,-1.2271628379821777,-0.014650162309408188
1733224535300158500,2.953158447265625,-0.6880207061767578,-1.0259076356887817,-0.10187171399593353
1733224535310168300,2.963168212890625,-1.159571647644043,-0.8243098258972168,-0.11230266094207764
1733224535320147700,2.973147705078125,-1.5901265144348145,-0.6251897811889648,-0.08803418278694153
1733224535330157300,2.9831572265625,-1.856368064880371,-0.46357250213623047,-0.0070618391036987305
1733224535340167200,2.993167236328125,-1.9452581405639648,-0.3475301265716553,0.10368344187736511
1733224535350146300,3.003146240234375,-1.9318900108337402,-0.25113677978515625,0.1636425256729126
1733224535360156200,3.01315625,-1.84004545211792,-0.18423008918762207,0.25139009952545166
1733224535370165800,3.023165771484375,-1.7412991523742676,-0.13073492050170898,0.325958788394928
1733224535380145200,3.033145263671875,-1.6115164756774902,-0.007454633712768555,0.39059823751449585
1733224535390155000,3.043155029296875,-1.4505271911621094,0.07712459564208984,0.44258683919906616
1733224535400164600,3.05316455078125,-1.3155908584594727,0.08170008659362793,0.41579577326774597
1733224535410144000,3.06314404296875,-1.0725364685058594,0.07520341873168945,0.36975932121276855
1733224535420153900,3.07315380859375,-0.8432273864746094,-0.03026413917541504,0.27479860186576843
1733224535430163500,3.08316357421875,-0.6324872970581055,-0.18450927734375,0.08764505386352539
1733224535440142800,3.093142822265625,-0.5381879806518555,-0.2618141174316406,-0.11037951707839966
1733224535450152400,3.10315234375,-0.56695556640625,-0.20177626609802246,-0.32564425468444824
1733224535460162300,3.113162353515625,-0.6851491928100586,-0.19610357284545898,-0.3678686022758484
1733224535470141400,3.123141357421875,-0.909637451171875,-0.10735225677490234,-0.32583993673324585
1733224535480151300,3.1331513671875,-1.0375547409057617,-0.04358196258544922,-0.24850207567214966
1733224535490161000,3.143160888671875,-0.9739151000976562,0.12508225440979004,-0.09680545330047607
1733224535500140300,3.153140380859375,-0.6889362335205078,0.24279236793518066,0.1479252576828003
1733224535510150100,3.163150146484375,-0.30016040802001953,0.24098968505859375,0.4047962427139282
1733224535520160000,3.173159912109375,0.2188549041748047,0.1101980209350586,0.6793588995933533
1733224535530169600,3.183169677734375,0.7116727828979492,0.023458480834960938,0.7335171103477478
1733224535540149000,3.19314892578125,1.269352912902832,-0.05535244941711426,0.6347801089286804
1733224535550158600,3.20315869140625,1.675704002380371,-0.15927982330322266,0.6051384210586548
1733224535560168400,3.21316845703125,2.0182018280029297,-0.19313359260559082,0.5444379448890686
1733224535570147600,3.223147705078125,2.1628761291503906,-0.23662257194519043,0.4777248501777649
1733224535580157400,3.233157470703125,2.125844955444336,-0.3027944564819336,0.426740825176239
1733224535590167000,3.2431669921875,1.9392461776733398,-0.35767698287963867,0.32476285099983215
1733224535600146400,3.253146484375,1.650233268737793,-0.315748929977417,0.21190965175628662
1733224535610156000,3.263156005859375,1.4329442977905273,-0.28233909606933594,0.17688268423080444
1733224535620166000,3.273165771484375,1.375227928161621,-0.1277916431427002,0.10702085494995117
1733224535630145300,3.283145263671875,1.6415061950683594,0.12678909301757812,-0.06838738918304443
1733224535640155100,3.293155029296875,1.9962749481201172,0.37750935554504395,-0.1907362937927246
1733224535650164700,3.303164794921875,2.3048391342163086,0.4575216770172119,-0.1913319230079651
1733224535660143900,3.313143798828125,2.340754508972168,0.470782995223999,-0.08194947242736816
1733224535670153700,3.32315380859375,2.2911911010742188,0.2757141590118408,0.11912602186203003
1733224535680163300,3.333163330078125,2.2108945846557617,-0.13500690460205078,0.37795063853263855
1733224535690142700,3.343142822265625,2.3527889251708984,-0.767432451248169,0.5932007431983948
1733224535700152600,3.353152587890625,2.8091135025024414,-1.2570743560791016,0.5803203582763672
1733224535710162200,3.363162109375,3.242227554321289,-1.6390199661254883,0.3146165609359741
1733224535720141600,3.3731416015625,3.4570980072021484,-1.7245783805847168,-0.3017879128456116
1733224535730151400,3.3831513671875,3.6281070709228516,-1.7743991613388062,-1.1569514274597168
1733224535740161000,3.3931611328125,3.440455436706543,-1.8260619640350342,-1.8944497108459473
1733224535750140200,3.40314013671875,2.8550853729248047,-1.8063551187515259,-2.1691527366638184
1733224535760150000,3.41314990234375,1.8994989395141602,-1.664581537246704,-1.9766737222671509
1733224535770159600,3.42315966796875,0.9256420135498047,-1.551814317703247,-1.6251585483551025
1733224535780169500,3.43316943359375,-0.05797576904296875,-1.4259487390518188,-1.085808277130127
1733224535790148900,3.44314892578125,-0.8204450607299805,-1.3024333715438843,-0.5446827411651611
1733224535800158700,3.45315869140625,-1.4731812477111816,-1.249793291091919,-0.05755069851875305
1733224535810168300,3.463168212890625,-1.7335524559020996,-1.3111913204193115,0.2565484642982483
1733224535820147700,3.473147705078125,-1.7605504989624023,-1.4263473749160767,0.3230678141117096
1733224535830157600,3.483157470703125,-1.3988690376281738,-1.5728394985198975,0.07865801453590393
1733224535840167200,3.493167236328125,-0.9092473983764648,-1.6850329637527466,-0.10716333985328674
1733224535850146300,3.503146240234375,-0.4918994903564453,-1.7739338874816895,-0.057688355445861816
1733224535860156200,3.51315625,-0.26909828186035156,-1.848029375076294,-0.02155819535255432
1733224535870165800,3.523165771484375,-0.1598501205444336,-1.935897946357727,0.032998304814100266
1733224535880145200,3.533145263671875,-0.120880126953125,-1.9909172058105469,0.03914134204387665
1733224535890155000,3.543155029296875,-0.1638040542602539,-1.9981060028076172,-0.09219561517238617
1733224535900164600,3.55316455078125,-0.2212228775024414,-1.892002820968628,-0.26196080446243286
1733224535910144000,3.56314404296875,-0.32852840423583984,-1.755878210067749,-0.5393890738487244
1733224535920153900,3.57315380859375,-0.5473213195800781,-1.6542279720306396,-0.6875826120376587
1733224535930163500,3.58316357421875,-0.850428581237793,-1.4679503440856934,-0.7843245267868042
1733224535940142800,3.593142822265625,-1.2317848205566406,-1.3286250829696655,-0.7859714031219482
1733224535950152400,3.60315234375,-1.658742904663086,-1.1471385955810547,-0.7058385610580444
1733224535960162300,3.613162353515625,-2.067692279815674,-1.0109068155288696,-0.514531135559082
1733224535970141400,3.623141357421875,-2.327765464782715,-0.8811765909194946,-0.3540089726448059
1733224535980151300,3.6331513671875,-2.4562621116638184,-0.7440488338470459,-0.14428439736366272
1733224535990161000,3.643160888671875,-2.48960018157959,-0.6479651927947998,-0.01519128680229187
1733224536000140300,3.653140380859375,-2.5118284225463867,-0.5560581684112549,0.06191723793745041
1733224536010150100,3.663150146484375,-2.4684839248657227,-0.4517676830291748,0.045406244695186615
1733224536020159700,3.67315966796875,-2.3710665702819824,-0.262526273727417,-0.030611552298069
1733224536030169600,3.683169677734375,-2.1525983810424805,-0.059955596923828125,-0.07760068774223328
1733224536040149000,3.69314892578125,-1.9422945976257324,0.11260747909545898,-0.0913240909576416
1733224536050158800,3.703158935546875,-1.7302942276000977,0.2757267951965332,-0.13496041297912598
1733224536060168400,3.71316845703125,-1.3703947067260742,0.43607378005981445,-0.25160422921180725
1733224536070147600,3.723147705078125,-1.034703254699707,0.5448000431060791,-0.305570513010025
1733224536080157200,3.7331572265625,-0.7777776718139648,0.6741950511932373,-0.3678453266620636
1733224536090167000,3.7431669921875,-0.5656566619873047,0.7101292610168457,-0.2279207408428192
1733224536100146400,3.753146484375,-0.48204803466796875,0.673797607421875,0.04005041718482971
1733224536110156300,3.76315625,-0.4265584945678711,0.6256518363952637,0.3573988974094391
1733224536120166000,3.773165771484375,-0.24538230895996094,0.554051399230957,0.5688295364379883
1733224536130145300,3.783145263671875,0.034638404846191406,0.45846104621887207,0.6262335181236267
1733224536140155100,3.793155029296875,0.4729957580566406,0.4144892692565918,0.5579878091812134
1733224536150164700,3.803164794921875,1.0391817092895508,0.31527280807495117,0.3487173020839691
1733224536160144000,3.813143798828125,1.5296268463134766,0.06503605842590332,0.10984920710325241
1733224536170153700,3.82315380859375,1.9334144592285156,-0.09938263893127441,-0.10188962519168854
1733224536180163300,3.833163330078125,2.1966552734375,-0.2685387134552002,-0.3071522116661072
1733224536190142700,3.843142822265625,2.391695976257324,-0.40841054916381836,-0.5037140846252441
1733224536200152600,3.853152587890625,2.3970232009887695,-0.4756908416748047,-0.5954515933990479
1733224536210162200,3.863162109375,2.1818313598632812,-0.4524352550506592,-0.5392279028892517
1733224536220141600,3.8731416015625,1.8418264389038086,-0.48434948921203613,-0.2987107038497925
1733224536230151400,3.8831513671875,1.652146339416504,-0.6252243518829346,0.12466508150100708
1733224536240161000,3.8931611328125,1.6636943817138672,-0.7632236480712891,0.6526452898979187
1733224536250140200,3.90314013671875,1.8325252532958984,-0.8305946588516235,0.9225042462348938
1733224536260150000,3.91314990234375,2.1438865661621094,-0.8500889539718628,0.9148235321044922
1733224536270160000,3.923159912109375,2.3126916885375977,-0.8168289661407471,0.8224555253982544
1733224536280169500,3.93316943359375,2.4754257202148438,-1.0594472885131836,0.9199737906455994
1733224536290148900,3.94314892578125,2.4574594497680664,-1.4593024253845215,1.143298625946045
1733224536300158700,3.95315869140625,2.48403263092041,-1.8522182703018188,1.2087841033935547
1733224536310168300,3.963168212890625,2.6578760147094727,-2.003415822982788,0.9141907095909119
1733224536320147700,3.973147705078125,2.8698081970214844,-2.0373127460479736,0.47002774477005005
1733224536330157300,3.9831572265625,2.9510602951049805,-1.9654874801635742,-0.034043073654174805
1733224536340167200,3.993167236328125,2.7332897186279297,-1.8681488037109375,-0.14581942558288574
1733224536350146300,4.003146240234375,1.978856086730957,-1.7294292449951172,0.19456279277801514
1733224536360156200,4.01315625,1.0530128479003906,-1.7227978706359863,0.6106473803520203
1733224536370165800,4.023165771484375,-0.18779754638671875,-1.820831537246704,1.171260952949524
1733224536380145200,4.033145263671875,-1.3221158981323242,-1.8587439060211182,1.625006079673767
1733224536390155000,4.043155029296875,-2.3337016105651855,-1.8377622365951538,1.901172399520874
1733224536400164600,4.05316455078125,-2.8448667526245117,-1.8395228385925293,2.0090818405151367
1733224536410144000,4.06314404296875,-2.86865234375,-2.0289340019226074,1.9843840599060059
1733224536420153900,4.07315380859375,-2.23073148727417,-2.2358651161193848,1.7676481008529663
1733224536430163500,4.08316357421875,-1.347461223602295,-2.350808620452881,1.4709627628326416
1733224536440142800,4.093142822265625,-0.357757568359375,-2.360093832015991,0.8273505568504333
1733224536450152400,4.10315234375,0.4817380905151367,-2.3232994079589844,0.3248403072357178
1733224536460162300,4.113162353515625,1.208451271057129,-2.233553886413574,-0.0707533061504364
1733224536470141400,4.123141357421875,1.5406408309936523,-2.075500249862671,-0.23579028248786926
1733224536480151300,4.1331513671875,1.4520988464355469,-1.851883888244629,-0.217545747756958
1733224536490161000,4.143160888671875,0.937225341796875,-1.6247767210006714,-0.17470160126686096
1733224536500140300,4.153140380859375,0.07355308532714844,-1.4288105964660645,-0.16276201605796814
1733224536510150100,4.163150146484375,-0.6301031112670898,-1.2087445259094238,-0.24590250849723816
1733224536520160000,4.173159912109375,-1.3521709442138672,-0.9818817377090454,-0.3352215588092804
1733224536530169600,4.183169677734375,-1.8302950859069824,-0.8264628648757935,-0.45596346259117126
1733224536540149000,4.19314892578125,-2.224545955657959,-0.6468334197998047,-0.6058182120323181
1733224536550158800,4.203158935546875,-2.456695079803467,-0.5192914009094238,-0.6233606338500977
1733224536560168400,4.21316845703125,-2.534350872039795,-0.3920161724090576,-0.6361393928527832
1733224536570147600,4.223147705078125,-2.3595805168151855,-0.22345304489135742,-0.5555517077445984
1733224536580157200,4.2331572265625,-2.0378427505493164,-0.08739256858825684,-0.5068601369857788
1733224536590167000,4.2431669921875,-1.635998249053955,-0.046811580657958984,-0.3745940327644348
1733224536600146400,4.253146484375,-1.4048633575439453,-0.012912750244140625,-0.2195138931274414
1733224536610156300,4.26315625,-1.3911066055297852,0.010013341903686523,-0.04626673460006714
1733224536620166000,4.273165771484375,-1.4843897819519043,0.0020914077758789062,-0.07409924268722534
1733224536630145300,4.283145263671875,-1.558121681213379,-0.07159638404846191,-0.10024872422218323
1733224536640155100,4.293155029296875,-1.4764719009399414,-0.19205546379089355,-0.20956560969352722
1733224536650164700,4.303164794921875,-1.1131267547607422,-0.366884708404541,-0.3317984640598297
1733224536660143900,4.313143798828125,-0.6000547409057617,-0.5615273714065552,-0.3884860575199127
1733224536670153700,4.32315380859375,-0.24159717559814453,-0.7225849628448486,-0.43971216678619385
1733224536680163300,4.333163330078125,0.1881875991821289,-0.7905668020248413,-0.6323612928390503
1733224536690142700,4.343142822265625,0.48461341857910156,-0.7672250270843506,-0.7557895183563232
1733224536700152600,4.353152587890625,0.7397613525390625,-0.6246925592422485,-0.7710663080215454
1733224536710162200,4.363162109375,0.8568477630615234,-0.47852957248687744,-0.66258305311203
1733224536720141600,4.3731416015625,0.8637180328369141,-0.35953259468078613,-0.6670501828193665
1733224536730151400,4.3831513671875,0.7052183151245117,-0.17178726196289062,-0.527513861656189
1733224536740161000,4.3931611328125,0.3686342239379883,0.023952603340148926,-0.12527519464492798
1733224536750140200,4.40314013671875,-0.09583187103271484,0.19535601139068604,0.37273237109184265
1733224536760150000,4.41314990234375,-0.574885368347168,0.3454015254974365,0.8740728497505188
1733224536770159900,4.423159912109375,-0.5746221542358398,0.3378617763519287,1.1890088319778442
1733224536780169500,4.43316943359375,-0.20621013641357422,0.2750285863876343,1.3770513534545898
1733224536790148900,4.44314892578125,0.48491859436035156,0.24571287631988525,1.5025925636291504
1733224536800158700,4.45315869140625,1.2790870666503906,0.4256715774536133,1.5555908679962158
1733224536810168300,4.463168212890625,2.3686866760253906,0.6705434322357178,1.667866587638855
1733224536820147700,4.473147705078125,3.271306037902832,0.792849063873291,1.6914623975753784
1733224536830157300,4.4831572265625,3.8479843139648438,0.9885669946670532,1.6519441604614258
1733224536840167200,4.493167236328125,3.9584274291992188,1.1144380569458008,1.6136174201965332
1733224536850146300,4.503146240234375,3.448413848876953,1.2387865781784058,1.6989750862121582
1733224536860156200,4.51315625,2.5576791763305664,1.4464142322540283,1.8203725814819336
1733224536870165800,4.523165771484375,1.5392208099365234,1.5323072671890259,1.716740369796753
1733224536880145200,4.533145263671875,0.8248138427734375,1.2420207262039185,1.5514404773712158
1733224536890155000,4.543155029296875,0.22591400146484375,0.8727123737335205,1.124784231185913
1733224536900164600,4.55316455078125,-0.10111713409423828,0.485994815826416,0.42912203073501587
1733224536910144000,4.56314404296875,-0.06886005401611328,0.004037618637084961,0.0021157264709472656
1733224536920153900,4.57315380859375,0.24254703521728516,-0.8667678833007812,-0.26278889179229736
1733224536930163500,4.58316357421875,0.9711322784423828,-1.721229076385498,-0.5114080309867859
1733224536940142800,4.593142822265625,2.3851146697998047,-2.610383987426758,-0.931812047958374
1733224536950152700,4.603152587890625,3.7914161682128906,-3.0694732666015625,-1.0508086681365967
1733224536960162300,4.613162353515625,5.038602828979492,-3.2915053367614746,-2.0406179428100586
1733224536970141400,4.623141357421875,5.917181968688965,-3.0728256702423096,-2.7622315883636475
1733224536980151300,4.6331513671875,6.074672698974609,-2.7576141357421875,-3.0136923789978027
1733224536990161000,4.643160888671875,5.225032806396484,-2.535776138305664,-2.482276678085327
1733224537000140300,4.653140380859375,3.6279916763305664,-2.22556471824646,-1.7365248203277588
1733224537010150100,4.663150146484375,1.585409164428711,-1.835089087486267,-0.9128479957580566
1733224537020160000,4.673159912109375,-0.30703067779541016,-1.510848045349121,-0.14756718277931213
1733224537030169600,4.683169677734375,-2.0442709922790527,-1.067359209060669,0.7170830965042114
1733224537040149000,4.69314892578125,-3.126826286315918,-0.7438783645629883,1.278907060623169
1733224537050158800,4.703158935546875,-3.723374366760254,-0.5179990530014038,1.6673882007598877
1733224537060168400,4.71316845703125,-3.6752872467041016,-0.3652883768081665,1.7919728755950928
1733224537070147600,4.723147705078125,-3.1352200508117676,-0.33792388439178467,1.7557973861694336
1733224537080157200,4.7331572265625,-2.291748046875,-0.5261163711547852,1.611654281616211
1733224537090167000,4.7431669921875,-1.4220685958862305,-0.8341653347015381,1.5437672138214111
1733224537100146400,4.753146484375,-0.8477945327758789,-1.0553560256958008,1.4411979913711548
1733224537110156300,4.76315625,-0.3808012008666992,-1.312591791152954,1.2676047086715698
1733224537120166000,4.773165771484375,-0.023245811462402344,-1.6113934516906738,1.0473310947418213
1733224537130145300,4.783145263671875,0.2111654281616211,-1.8880409002304077,0.7263500690460205
1733224537140155100,4.793155029296875,0.3947486877441406,-2.0943002700805664,0.1827123463153839
1733224537150164700,4.803164794921875,0.5208511352539062,-2.1652982234954834,-0.4812336564064026
1733224537160144000,4.813143798828125,0.4963951110839844,-2.1532490253448486,-1.0550991296768188
1733224537170153700,4.82315380859375,0.26299190521240234,-2.0853257179260254,-1.4217902421951294
1733224537180163300,4.833163330078125,-0.2029571533203125,-1.9497325420379639,-1.6258527040481567
1733224537190142700,4.843142822265625,-0.7059259414672852,-1.7977882623672485,-1.5763485431671143
1733224537200152300,4.85315234375,-1.331003189086914,-1.600891351699829,-1.2775871753692627
1733224537210162200,4.863162109375,-1.8483777046203613,-1.4367952346801758,-0.9497180581092834
1733224537220141600,4.8731416015625,-2.1883645057678223,-1.2244179248809814,-0.5557091236114502
1733224537230151400,4.8831513671875,-2.37563419342041,-1.0133023262023926,-0.19209539890289307
1733224537240161000,4.8931611328125,-2.3794498443603516,-0.8686004877090454,0.12451276183128357
1733224537250140200,4.90314013671875,-2.257500171661377,-0.7650744915008545,0.36101028323173523
1733224537260150000,4.91314990234375,-2.029468059539795,-0.5997920036315918,0.43298202753067017
1733224537270160000,4.923159912109375,-1.6491289138793945,-0.43556153774261475,0.250443696975708
1733224537280169500,4.93316943359375,-1.4103918075561523,-0.3751378059387207,0.101960688829422
1733224537290148900,4.94314892578125,-1.2814922332763672,-0.28449416160583496,-0.08329638838768005
1733224537300158700,4.95315869140625,-1.3170490264892578,-0.23010802268981934,-0.2001323103904724
1733224537310168300,4.963168212890625,-1.3853111267089844,-0.22208499908447266,-0.250080943107605
1733224537320147700,4.973147705078125,-1.4195499420166016,-0.225966215133667,-0.18959030508995056
1733224537330157300,4.9831572265625,-1.4703474044799805,-0.2240307331085205,-0.11120083928108215
1733224537340167200,4.993167236328125,-1.4543418884277344,-0.1525125503540039,-0.08564409613609314
1733224537350146300,5.003146240234375,-1.3527612686157227,-0.040459394454956055,-0.10749784111976624
1733224537360156200,5.01315625,-1.0796327590942383,0.12744927406311035,-0.03714323043823242
1733224537370165800,5.023165771484375,-0.7333278656005859,0.15077519416809082,0.014690279960632324
1733224537380145200,5.033145263671875,-0.29943275451660156,0.08193588256835938,0.18894150853157043
1733224537390155000,5.043155029296875,-0.01954174041748047,-0.07275938987731934,0.32258719205856323
1733224537400164600,5.05316455078125,0.2861652374267578,-0.25191831588745117,0.49533626437187195
1733224537410144000,5.06314404296875,0.57012939453125,-0.36767029762268066,0.5575438737869263
1733224537420153900,5.07315380859375,0.8942480087280273,-0.4308815002441406,0.4501062035560608
1733224537430163500,5.08316357421875,1.1719436645507812,-0.4352138042449951,0.29289209842681885
1733224537440142800,5.093142822265625,1.457108497619629,-0.3563659191131592,0.04546022415161133
1733224537450152700,5.103152587890625,1.600724220275879,-0.3451237678527832,-0.04032790660858154
1733224537460162300,5.113162353515625,1.4737548828125,-0.4437382221221924,0.10770738124847412
1733224537470141400,5.123141357421875,1.2049989700317383,-0.49451518058776855,0.28874197602272034
1733224537480151300,5.1331513671875,1.1718673706054688,-0.5813491344451904,0.5111044645309448
1733224537490161000,5.143160888671875,1.1586799621582031,-1.067345142364502,1.0146584510803223
1733224537500140300,5.153140380859375,1.1828184127807617,-1.8328824043273926,1.5152232646942139
1733224537510150100,5.163150146484375,1.561777114868164,-2.7419016361236572,1.8139559030532837
1733224537520160000,5.173159912109375,2.372076988220215,-3.5618624687194824,1.7700573205947876
1733224537530169600,5.183169677734375,3.8935461044311523,-4.273420333862305,1.1132922172546387
1733224537540149000,5.19314892578125,5.603031158447266,-4.582231521606445,0.24369113147258759
1733224537550158800,5.203158935546875,7.345844268798828,-4.440010070800781,-0.6097744107246399
1733224537560168400,5.21316845703125,8.147880554199219,-4.052983283996582,-0.9713208079338074
1733224537570147600,5.223147705078125,7.948925971984863,-3.600947141647339,-0.7033858895301819
1733224537580157200,5.2331572265625,6.499631881713867,-3.182652473449707,0.17615020275115967
1733224537590167000,5.2431669921875,4.698974609375,-2.814197540283203,0.9553506374359131
1733224537600146400,5.253146484375,2.331165313720703,-2.384455442428589,1.6598469018936157
1733224537610156300,5.26315625,0.15799331665039062,-1.957170009613037,2.391340494155884
1733224537620166000,5.273165771484375,-1.8496508598327637,-1.6770329475402832,3.1219396591186523
1733224537630145300,5.283145263671875,-2.882246971130371,-1.6933014392852783,3.548198699951172
1733224537640155100,5.293155029296875,-3.144582748413086,-1.831329345703125,3.5082507133483887
1733224537650164700,5.303164794921875,-2.5455236434936523,-1.9380987882614136,3.0292210578918457
1733224537660143900,5.313143798828125,-1.3284893035888672,-1.97234308719635,2.3973817825317383
1733224537670153700,5.32315380859375,-0.47890758514404297,-1.9576064348220825,1.9301683902740479
1733224537680163300,5.333163330078125,0.04806327819824219,-1.8903526067733765,1.3480738401412964
1733224537690142700,5.343142822265625,0.10204410552978516,-1.7947907447814941,0.9341922998428345
1733224537700152600,5.353152587890625,-0.15050506591796875,-1.7188971042633057,0.7057512998580933
1733224537710162200,5.363162109375,-0.517460823059082,-1.7422592639923096,0.5882395505905151
1733224537720141600,5.3731416015625,-0.6468095779418945,-1.7734858989715576,0.5104069113731384
1733224537730151400,5.3831513671875,-0.5721492767333984,-1.7186768054962158,0.28121209144592285
1733224537740161000,5.3931611328125,-0.4423046112060547,-1.6673965454101562,0.11468780040740967
1733224537750140200,5.40314013671875,-0.36043453216552734,-1.5498508214950562,-0.13855192065238953
1733224537760150000,5.41314990234375,-0.5514898300170898,-1.4937007427215576,-0.4327930212020874
1733224537770159900,5.423159912109375,-0.9245595932006836,-1.474625825881958,-0.5637092590332031
1733224537780169500,5.43316943359375,-1.268819808959961,-1.5001211166381836,-0.6117516756057739
1733224537790148900,5.44314892578125,-1.7125778198242188,-1.4525145292282104,-0.3819826543331146
1733224537800158700,5.45315869140625,-1.888927936553955,-1.366025686264038,0.00647350400686264
1733224537810168300,5.463168212890625,-1.7919373512268066,-1.2889856100082397,0.289892315864563
1733224537820147700,5.473147705078125,-1.4536428451538086,-1.3307863473892212,0.55696702003479
1733224537830157300,5.4831572265625,-1.0896005630493164,-1.3738948106765747,0.7026647329330444
1733224537840167200,5.493167236328125,-0.7927608489990234,-1.4557080268859863,0.6945899724960327
1733224537850146300,5.503146240234375,-0.3933868408203125,-1.565625548362732,0.5421938300132751
1733224537860156200,5.51315625,0.03810691833496094,-1.773114800453186,0.258562833070755
1733224537870165800,5.523165771484375,0.3918190002441406,-1.882645845413208,-0.12473142147064209
1733224537880145200,5.533145263671875,0.6414766311645508,-2.0046730041503906,-0.5153703093528748
1733224537890155000,5.543155029296875,0.8663806915283203,-2.0277910232543945,-0.8183259963989258
1733224537900164600,5.55316455078125,1.0569124221801758,-2.0738959312438965,-0.9337413907051086
1733224537910144000,5.56314404296875,1.2515392303466797,-2.054856538772583,-0.8043344020843506
1733224537920153900,5.57315380859375,1.4011716842651367,-1.907963752746582,-0.5511696338653564
1733224537930163500,5.58316357421875,1.5813169479370117,-1.6597256660461426,-0.31886014342308044
1733224537940142800,5.593142822265625,1.6005382537841797,-1.4160475730895996,-0.11834821850061417
1733224537950152700,5.603152587890625,1.4518461227416992,-1.12277090549469,0.0643969252705574
1733224537960162300,5.613162353515625,1.123417854309082,-0.8357199430465698,0.24603140354156494
1733224537970141400,5.623141357421875,0.6030788421630859,-0.5758227109909058,0.4180978536605835
1733224537980151300,5.6331513671875,0.12263202667236328,-0.4468226432800293,0.5685356259346008
1733224537990161000,5.643160888671875,-0.2540922164916992,-0.33309268951416016,0.6081716418266296
1733224538000140300,5.653140380859375,-0.4681720733642578,-0.3652377128601074,0.6369868516921997
1733224538010150100,5.663150146484375,-0.5085573196411133,-0.4268360137939453,0.6110802888870239
1733224538020160000,5.673159912109375,-0.3419981002807617,-0.5333602428436279,0.6036414504051208
1733224538030169600,5.683169677734375,-0.0020742416381835938,-0.619644045829773,0.6036258935928345
1733224538040149000,5.69314892578125,0.27909088134765625,-0.6861175298690796,0.5086256265640259
1733224538050158800,5.703158935546875,0.5066804885864258,-0.7201333045959473,0.35226503014564514
1733224538060168400,5.71316845703125,0.7433004379272461,-0.6922450065612793,0.27230969071388245
1733224538070147600,5.723147705078125,0.8341779708862305,-0.6181427240371704,0.2591489553451538
1733224538080157200,5.7331572265625,0.7681398391723633,-0.5915361642837524,0.29337504506111145
1733224538090167000,5.7431669921875,0.5838212966918945,-0.5895377397537231,0.2875213623046875
1733224538100146400,5.753146484375,0.35083675384521484,-0.5289900302886963,0.22555392980575562
1733224538110156300,5.76315625,0.09537124633789062,-0.46680164337158203,0.223851278424263
1733224538120166000,5.773165771484375,-0.22350311279296875,-0.38533782958984375,0.21503369510173798
1733224538130145300,5.783145263671875,-0.4170570373535156,-0.333235502243042,0.30590054392814636
1733224538140155100,5.793155029296875,-0.6484975814819336,-0.3040893077850342,0.3409782946109772
1733224538150164700,5.803164794921875,-0.8729047775268555,-0.319627046585083,0.38871005177497864
1733224538160144000,5.813143798828125,-1.064345359802246,-0.2898275852203369,0.4536093771457672
1733224538170153700,5.82315380859375,-1.1398916244506836,-0.28342652320861816,0.5211857557296753
1733224538180163300,5.833163330078125,-1.0568113327026367,-0.27527570724487305,0.6036204695701599
1733224538190142700,5.843142822265625,-0.7623367309570312,-0.22693920135498047,0.5071194171905518
1733224538200152600,5.853152587890625,-0.3291349411010742,-0.24421143531799316,0.4341982305049896
1733224538210162200,5.863162109375,0.1623516082763672,-0.35126447677612305,0.28261393308639526
1733224538220141600,5.8731416015625,0.4305105209350586,-0.46513867378234863,0.08070230484008789
1733224538230151400,5.8831513671875,0.5364570617675781,-0.5954033136367798,-0.13212087750434875
1733224538240161000,5.8931611328125,0.44953060150146484,-0.6290088891983032,-0.2884431481361389
1733224538250140200,5.90314013671875,0.23221683502197266,-0.6722867488861084,-0.4030010998249054
1733224538260150000,5.91314990234375,-0.044266700744628906,-0.5112216472625732,-0.500845193862915
1733224538270160000,5.923159912109375,-0.22545528411865234,-0.3623241186141968,-0.5023667216300964
1733224538280169500,5.93316943359375,-0.3719758987426758,-0.29000842571258545,-0.4044646918773651
1733224538290148900,5.94314892578125,-0.4353151321411133,-0.23777472972869873,-0.3796209692955017
1733224538300158700,5.95315869140625,-0.5629367828369141,-0.1951817274093628,-0.2931048572063446
1733224538310168300,5.963168212890625,-0.6360597610473633,-0.13955092430114746,-0.22920973598957062
1733224538320147700,5.973147705078125,-0.6197195053100586,-0.07193994522094727,-0.13696546852588654
1733224538330157300,5.9831572265625,-0.4050006866455078,-0.1400822401046753,0.020047932863235474
1733224538340167200,5.993167236328125,-0.34389495849609375,-0.151758074760437,-0.014989763498306274
1733224538350146300,6.003146240234375,-0.32994937896728516,-0.1867600679397583,0.14051637053489685
1733224538360156200,6.01315625,-0.3545713424682617,-0.20153939723968506,0.24617643654346466
1733224538370165800,6.023165771484375,-0.4151620864868164,-0.1726309061050415,0.2662842869758606
1733224538380145200,6.033145263671875,-0.34922122955322266,-0.16579926013946533,0.22462168335914612
1733224538390155000,6.043155029296875,-0.2644052505493164,-0.14793050289154053,0.2333236038684845
1733224538400164600,6.05316455078125,-0.15443706512451172,-0.05263209342956543,0.19481325149536133
1733224538410144000,6.06314404296875,0.03687477111816406,-0.042940378189086914,0.15350452065467834
1733224538420153900,6.07315380859375,0.20129776000976562,-0.0804893970489502,0.0783134400844574
1733224538430163500,6.08316357421875,0.28621482849121094,-0.10092973709106445,-0.0011155596002936363
1733224538440142800,6.093142822265625,0.3633460998535156,-0.11332237720489502,-0.07143771648406982
1733224538450152700,6.103152587890625,0.5704107284545898,-0.12369680404663086,-0.04667721688747406
1733224538460162300,6.113162353515625,0.6749200820922852,-0.11629307270050049,-0.23239189386367798
1733224538470141400,6.123141357421875,0.6317605972290039,-0.06921517848968506,-0.3113473355770111
