time,seconds_elapsed,z,y,x
1733231803940405200,0.2124052734375,-1.1936163902282715,-0.4515373706817627,-0.04931306838989258
1733231803950433000,0.22243310546875,-1.3724045753479004,-0.41953063011169434,-0.049429357051849365
1733231803960443000,0.23244287109375,-1.4780497550964355,-0.43710827827453613,0.008215576410293579
1733231803970452700,0.24245263671875,-1.4996542930603027,-0.4185447692871094,0.026056379079818726
1733231803980432000,0.252431884765625,-1.4946303367614746,-0.4847533702850342,0.0731641948223114
1733231803990441700,0.262441650390625,-1.3129854202270508,-0.5734574794769287,0.0984538197517395
1733231804000451300,0.272451416015625,-1.0862550735473633,-0.5835390090942383,0.13321518898010254
1733231804010430500,0.282430419921875,-0.7503442764282227,-0.6251819133758545,0.0958300232887268
1733231804020440300,0.2924404296875,-0.3398580551147461,-0.5505814552307129,-0.003336489200592041
1733231804030450200,0.3024501953125,0.19245147705078125,-0.4317970275878906,-0.06551754474639893
1733231804040429600,0.3124296875,0.597895622253418,-0.3158583641052246,-0.07960990071296692
1733231804050439200,0.322439208984375,0.995783805847168,-0.1733384132385254,-0.12199747562408447
1733231804060449000,0.332448974609375,1.109156608581543,-0.009760618209838867,-0.10768389701843262
1733231804070428400,0.342428466796875,0.8526983261108398,0.16292166709899902,-0.08384731411933899
1733231804080438000,0.35243798828125,0.24840545654296875,0.293917179107666,-0.08025741577148438
1733231804090447600,0.362447509765625,-0.35166454315185547,0.33206796646118164,-0.07706204056739807
1733231804100426800,0.3724267578125,-1.0516176223754883,0.4245784282684326,-0.05912506580352783
1733231804110436600,0.3824365234375,-1.5016694068908691,0.4875202178955078,0.021349668502807617
1733231804120446500,0.392446533203125,-1.9016261100769043,0.5677335262298584,0.1152140200138092
1733231804130425900,0.40242578125,-1.9219965934753418,0.12868213653564453,0.11954057216644287
1733231804140435500,0.412435546875,-1.9429998397827148,0.053914785385131836,0.12286782264709473
1733231804150445300,0.4224453125,-1.8266754150390625,-0.029909133911132812,0.15010476112365723
1733231804160424700,0.4324248046875,-1.6518702507019043,-0.12386751174926758,0.17975622415542603
1733231804170434300,0.442434326171875,-1.4931797981262207,-0.19588088989257812,0.13860684633255005
1733231804180444200,0.452444091796875,-1.2644352912902832,-0.23155736923217773,0.02320241928100586
1733231804190453800,0.462453857421875,-1.0039358139038086,-0.2915191650390625,-0.06722772121429443
1733231804200433000,0.472432861328125,-0.7285346984863281,-0.3085803985595703,-0.12479168176651001
1733231804210442800,0.48244287109375,-0.5099706649780273,-0.35758399963378906,-0.19939473271369934
1733231804220452600,0.49245263671875,-0.2929401397705078,-0.35508155822753906,-0.2049533724784851
1733231804230431700,0.502431640625,-0.04323768615722656,-0.3015561103820801,-0.2747234106063843
1733231804240441600,0.512441650390625,0.19751834869384766,-0.2873091697692871,-0.4137215316295624
1733231804250451500,0.522451416015625,0.3718395233154297,-0.2612934112548828,-0.5129690766334534
1733231804260430600,0.5324306640625,0.42083072662353516,-0.20428848266601562,-0.506125807762146
1733231804270440400,0.5424404296875,0.3801565170288086,-0.050386905670166016,-0.5371098518371582
1733231804280450000,0.552449951171875,0.20334339141845703,0.04549217224121094,-0.47422438859939575
1733231804290429400,0.562429443359375,-0.030379295349121094,0.19268274307250977,-0.4679613709449768
1733231804300439000,0.57243896484375,-0.29241466522216797,0.2366194725036621,-0.46683764457702637
1733231804310449000,0.582448974609375,-0.49828624725341797,0.2997779846191406,-0.4136730134487152
1733231804320428300,0.59242822265625,-0.7151517868041992,0.3849492073059082,-0.34136372804641724
1733231804330438000,0.60243798828125,-0.752049446105957,0.43619632720947266,-0.24828311800956726
1733231804340447700,0.61244775390625,-0.5379734039306641,0.31895017623901367,-0.15687675774097443
1733231804350427000,0.622427001953125,-0.2738189697265625,0.2142014503479004,-0.06024433672428131
1733231804360436700,0.632436767578125,0.05072498321533203,0.1452012062072754,0.11127207428216934
1733231804370446300,0.6424462890625,0.25380706787109375,0.08333730697631836,0.2065161168575287
1733231804380425700,0.65242578125,0.41161251068115234,0.055529117584228516,0.33980289101600647
1733231804390435600,0.662435546875,0.4885740280151367,0.0888519287109375,0.3839430809020996
1733231804400445200,0.672445068359375,0.48485469818115234,0.13266563415527344,0.44498103857040405
1733231804410424600,0.682424560546875,0.4320554733276367,0.10695695877075195,0.4812434911727905
1733231804420434200,0.69243408203125,0.5640411376953125,0.08517265319824219,0.4816614091396332
1733231804430444000,0.702444091796875,0.7032012939453125,0.0610809326171875,0.45323479175567627
1733231804440454000,0.712453857421875,0.7825679779052734,0.022979736328125,0.3192337155342102
1733231804450433000,0.72243310546875,0.8566207885742188,-0.06179046630859375,0.2608911395072937
1733231804460443000,0.73244287109375,0.9984292984008789,-0.12391519546508789,0.17676511406898499
1733231804470452700,0.74245263671875,1.284388542175293,-0.16315078735351562,-0.0129375159740448
1733231804480431900,0.752431884765625,1.4035396575927734,-0.08980321884155273,-0.23337972164154053
1733231804490441700,0.762441650390625,1.1832962036132812,0.04588460922241211,-0.37323957681655884
1733231804500451300,0.772451416015625,0.7121963500976562,0.16975831985473633,-0.39489978551864624
1733231804510430500,0.782430419921875,0.2216482162475586,0.28592824935913086,-0.6180546283721924
1733231804520440300,0.7924404296875,-0.06236457824707031,0.26127052307128906,-0.8129298090934753
1733231804530450200,0.8024501953125,-0.25979042053222656,0.08306550979614258,-1.0284724235534668
1733231804540429600,0.8124296875,0.11421394348144531,-0.289034366607666,-1.1411359310150146
1733231804550439200,0.822439208984375,1.1318464279174805,-0.6485860347747803,-1.2753190994262695
1733231804560449000,0.832448974609375,2.9722366333007812,-0.9874932765960693,-1.3212708234786987
1733231804570428400,0.842428466796875,4.752653121948242,-1.2902588844299316,-1.3770831823349
1733231804580438000,0.85243798828125,5.894841194152832,-1.5168659687042236,-1.34822678565979
1733231804590447600,0.862447509765625,6.005801200866699,-1.5724585056304932,-1.3247722387313843
1733231804600426800,0.8724267578125,5.267705917358398,-1.6074306964874268,-1.3433529138565063
1733231804610436600,0.8824365234375,4.078939437866211,-1.5792737007141113,-1.2755212783813477
1733231804620446500,0.892446533203125,2.65647029876709,-1.5365352630615234,-1.2882789373397827
1733231804630425900,0.90242578125,1.556126594543457,-1.4804878234863281,-1.3151915073394775
1733231804640435500,0.912435546875,0.5108127593994141,-1.4639039039611816,-1.2814128398895264
1733231804650445300,0.9224453125,-0.47794055938720703,-1.4796411991119385,-1.1949172019958496
1733231804660424700,0.9324248046875,-1.1713829040527344,-1.5546140670776367,-1.0590386390686035
1733231804670434300,0.942434326171875,-1.5465121269226074,-1.6074986457824707,-0.9402400255203247
1733231804680444200,0.952444091796875,-1.682727336883545,-1.634979009628296,-0.8386727571487427
1733231804690453800,0.962453857421875,-1.6665587425231934,-1.6776278018951416,-0.7586785554885864
1733231804700433000,0.972432861328125,-1.7084999084472656,-1.6380949020385742,-0.6737092733383179
1733231804710442800,0.98244287109375,-1.750539779663086,-1.6326816082000732,-0.6800991296768188
1733231804720452600,0.99245263671875,-1.879584789276123,-1.5375657081604004,-0.825195848941803
1733231804730431700,1.002431640625,-2.0339040756225586,-1.4496557712554932,-1.0131505727767944
1733231804740441600,1.012441650390625,-1.9853320121765137,-1.3913288116455078,-1.1419744491577148
1733231804750451500,1.022451416015625,-1.675417423248291,-1.3426048755645752,-1.2960631847381592
1733231804760430600,1.0324306640625,-1.2248225212097168,-1.3396522998809814,-1.4484846591949463
1733231804770440400,1.0424404296875,-0.7647037506103516,-1.3758220672607422,-1.4441908597946167
1733231804780450000,1.052449951171875,-0.09696674346923828,-1.428840160369873,-1.3883503675460815
1733231804790429400,1.062429443359375,0.6207704544067383,-1.4588778018951416,-1.4249229431152344
1733231804800439000,1.07243896484375,1.5302810668945312,-1.5149338245391846,-1.4200365543365479
1733231804810449000,1.082448974609375,2.275822639465332,-1.4651174545288086,-1.3535786867141724
1733231804820428300,1.09242822265625,2.8585615158081055,-1.424560546875,-1.1867352724075317
1733231804830438000,1.10243798828125,2.94277286529541,-1.3545362949371338,-1.1780654191970825
1733231804840447700,1.11244775390625,2.6597862243652344,-1.3285925388336182,-1.160093903541565
1733231804850427000,1.122427001953125,2.117605209350586,-1.2848961353302002,-1.0356042385101318
1733231804860436700,1.132436767578125,1.1504697799682617,-1.202129602432251,-1.0166138410568237
1733231804870446600,1.142446533203125,0.24667644500732422,-1.1158843040466309,-1.0182597637176514
1733231804880425700,1.15242578125,-0.3542137145996094,-1.080571174621582,-0.9585559964179993
1733231804890435600,1.162435546875,-0.7472639083862305,-1.0131208896636963,-1.014599323272705
1733231804900445200,1.172445068359375,-0.9739618301391602,-0.9738657474517822,-1.048909068107605
1733231804910424600,1.182424560546875,-1.1460623741149902,-0.9342727661132812,-1.0999938249588013
1733231804920434200,1.19243408203125,-1.1589183807373047,-0.8702075481414795,-1.1417330503463745
1733231804930444000,1.202444091796875,-1.0694999694824219,-0.7852146625518799,-1.211533546447754
1733231804940454000,1.212453857421875,-1.03574800491333,-0.7848563194274902,-1.2502597570419312
1733231804950433000,1.22243310546875,-0.8250761032104492,-0.7694249153137207,-1.2566145658493042
1733231804960443000,1.23244287109375,-0.8852529525756836,-0.6451866626739502,-1.1442394256591797
1733231804970452700,1.24245263671875,-1.0104408264160156,-0.5118503570556641,-1.1202425956726074
1733231804980432000,1.252431884765625,-1.1252870559692383,-0.4510807991027832,-1.0557805299758911
1733231804990441700,1.262441650390625,-1.2200593948364258,-0.3699154853820801,-1.0549261569976807
1733231805000451300,1.272451416015625,-1.1645288467407227,-0.2945897579193115,-1.0701143741607666
1733231805010430500,1.282430419921875,-0.9799690246582031,-0.2317037582397461,-1.1285364627838135
1733231805020440300,1.2924404296875,-0.7428121566772461,-0.22892212867736816,-1.0282979011535645
1733231805030450200,1.3024501953125,-0.45400428771972656,-0.2186295986175537,-0.9517984986305237
1733231805040429600,1.3124296875,-0.09632396697998047,-0.23439645767211914,-0.7411608099937439
1733231805050439200,1.322439208984375,0.24771499633789062,-0.22285008430480957,-0.4905003309249878
1733231805060449000,1.332448974609375,0.4399070739746094,-0.16011571884155273,-0.4496147632598877
1733231805070428400,1.342428466796875,0.4598245620727539,-0.10676050186157227,-0.3819239139556885
1733231805080438000,1.35243798828125,0.2992210388183594,-0.026837587356567383,-0.2593804597854614
1733231805090447600,1.362447509765625,-0.07249259948730469,0.05255937576293945,-0.15160715579986572
1733231805100427000,1.372427001953125,-0.4614114761352539,0.17496323585510254,-0.17470335960388184
1733231805110436600,1.3824365234375,-0.7794408798217773,0.28450894355773926,-0.19841217994689941
1733231805120446500,1.392446533203125,-0.8948678970336914,0.3526923656463623,-0.05685222148895264
1733231805130425900,1.40242578125,-0.8421669006347656,0.4100358486175537,-0.020222902297973633
1733231805140435500,1.412435546875,-0.6345968246459961,0.41051602363586426,-0.03451073169708252
1733231805150445300,1.4224453125,-0.33226966857910156,0.42157840728759766,0.02839815616607666
1733231805160424700,1.4324248046875,-0.020577430725097656,0.39342713356018066,0.044632673263549805
1733231805170434300,1.442434326171875,0.2981910705566406,0.43349361419677734,-0.07054460048675537
1733231805180444200,1.452444091796875,0.6083984375,0.47059106826782227,-0.11528229713439941
1733231805190453800,1.462453857421875,0.9611444473266602,0.5382311344146729,-0.06685531139373779
1733231805200433000,1.472432861328125,1.1305732727050781,0.5876791477203369,-0.07826578617095947
1733231805210442800,1.48244287109375,1.1409721374511719,0.5996015071868896,-0.14278912544250488
1733231805220452600,1.49245263671875,1.0787391662597656,0.658405065536499,-0.11060833930969238
1733231805230431700,1.502431640625,1.094095230102539,0.7270314693450928,-0.020602822303771973
1733231805240441600,1.512441650390625,1.1890764236450195,0.7777214050292969,0.09648704528808594
1733231805250451500,1.522451416015625,1.2675447463989258,0.755988597869873,0.20143342018127441
1733231805260430600,1.5324306640625,1.3772106170654297,0.7143094539642334,0.35449641942977905
1733231805270440400,1.5424404296875,1.5516748428344727,0.6619558334350586,0.40677809715270996
1733231805280450000,1.552449951171875,1.6761350631713867,0.6129865646362305,0.461012065410614
1733231805290429400,1.562429443359375,1.6747264862060547,0.6638717651367188,0.5364134907722473
1733231805300439000,1.57243896484375,1.4041662216186523,0.7042868137359619,0.6135845184326172
1733231805310449000,1.582448974609375,1.0083885192871094,0.6547877788543701,0.7961194515228271
1733231805320428300,1.59242822265625,0.599339485168457,0.5691795349121094,0.9297688007354736
1733231805330438000,1.60243798828125,0.3668632507324219,0.38854527473449707,1.0408459901809692
1733231805340447700,1.61244775390625,0.4669790267944336,0.042154550552368164,1.4047966003417969
1733231805350427000,1.622427001953125,1.0345115661621094,-0.4596986770629883,1.6038455963134766
1733231805360436700,1.632436767578125,1.9059486389160156,-0.7778916358947754,1.4338204860687256
1733231805370446600,1.642446533203125,3.1223649978637695,-1.0935008525848389,1.3332502841949463
1733231805380425700,1.65242578125,4.359471321105957,-1.2690966129302979,1.2042592763900757
1733231805390435600,1.662435546875,5.265490531921387,-1.3037214279174805,1.0957818031311035
1733231805400445200,1.672445068359375,5.280750274658203,-1.3519408702850342,1.0540136098861694
1733231805410424600,1.682424560546875,4.403713226318359,-1.4375884532928467,1.053360939025879
1733231805420434200,1.69243408203125,3.1293106079101562,-1.4524593353271484,0.9956176280975342
1733231805430444000,1.702444091796875,1.4795160293579102,-1.3620657920837402,0.8506967425346375
1733231805440454000,1.712453857421875,-0.22501468658447266,-1.3771986961364746,0.8040419220924377
1733231805450433000,1.72243310546875,-1.682847023010254,-1.4660694599151611,0.8811260461807251
1733231805460443000,1.73244287109375,-2.9197192192077637,-1.4259309768676758,0.984021782875061
1733231805470452700,1.74245263671875,-3.4593453407287598,-1.363731861114502,1.092606782913208
1733231805480431900,1.752431884765625,-3.5671896934509277,-1.4021234512329102,1.1852012872695923
1733231805490441700,1.762441650390625,-3.2715930938720703,-1.4016027450561523,1.3018710613250732
1733231805500451300,1.772451416015625,-2.750087261199951,-1.4583740234375,1.518539309501648
1733231805510430500,1.782430419921875,-2.2745003700256348,-1.4622483253479004,1.6222405433654785
1733231805520440300,1.7924404296875,-1.9208908081054688,-1.5653681755065918,1.8800013065338135
1733231805530450200,1.8024501953125,-1.8150882720947266,-1.6838679313659668,2.0649378299713135
1733231805540429600,1.8124296875,-1.9230551719665527,-1.7394249439239502,2.149897336959839
1733231805550439200,1.822439208984375,-1.7806706428527832,-1.766235113143921,2.126127243041992
1733231805560449000,1.832448974609375,-1.3890624046325684,-1.7731044292449951,1.9838166236877441
1733231805570428400,1.842428466796875,-0.7447633743286133,-1.8669135570526123,1.8651063442230225
1733231805580438000,1.85243798828125,0.07971858978271484,-1.8878018856048584,1.703729510307312
1733231805590447600,1.862447509765625,1.3814153671264648,-1.7917120456695557,1.4733059406280518
1733231805600426800,1.8724267578125,2.376096725463867,-1.6830272674560547,1.3024647235870361
1733231805610436600,1.8824365234375,3.006350517272949,-1.6310272216796875,1.303635835647583
1733231805620446500,1.892446533203125,2.9923458099365234,-1.5190465450286865,1.3361172676086426
1733231805630425900,1.90242578125,2.363144874572754,-1.3334391117095947,1.204606294631958
1733231805640435500,1.912435546875,1.5249347686767578,-1.1879661083221436,1.1208571195602417
1733231805650445300,1.9224453125,0.41561126708984375,-1.028641939163208,0.9926195740699768
1733231805660424700,1.9324248046875,-0.4226217269897461,-0.9774963855743408,0.9496439695358276
1733231805670434300,1.942434326171875,-1.16878080368042,-0.982947826385498,1.0759632587432861
1733231805680444200,1.952444091796875,-1.678147315979004,-0.8935184478759766,1.1149272918701172
1733231805690453800,1.962453857421875,-1.9353461265563965,-0.8140296936035156,1.1463805437088013
1733231805700433000,1.972432861328125,-1.8986668586730957,-0.7968168258666992,1.2519724369049072
1733231805710442800,1.98244287109375,-1.5581188201904297,-0.804304838180542,1.336956262588501
1733231805720452600,1.99245263671875,-1.1010489463806152,-0.7829751968383789,1.2573766708374023
1733231805730431700,2.002431640625,-0.7192726135253906,-0.7498695850372314,1.308262825012207
1733231805740441600,2.012441650390625,-0.3312969207763672,-0.7268245220184326,1.3726181983947754
1733231805750451500,2.022451416015625,-0.025422096252441406,-0.64068603515625,1.3603098392486572
1733231805760430600,2.0324306640625,0.10321998596191406,-0.5526852607727051,1.363039493560791
1733231805770440400,2.0424404296875,0.1343984603881836,-0.4644920825958252,1.3168907165527344
1733231805780450000,2.052449951171875,0.09243011474609375,-0.23800444602966309,0.9905449748039246
1733231805790429400,2.062429443359375,0.02214813232421875,-0.14521336555480957,1.0666313171386719
1733231805800439000,2.07243896484375,-0.1281604766845703,-0.029610157012939453,0.7856320142745972
1733231805810449000,2.082448974609375,-0.21868610382080078,0.06340956687927246,0.8076274394989014
1733231805820428300,2.09242822265625,-0.17347240447998047,0.1346607208251953,0.571561336517334
1733231805830438000,2.10243798828125,0.03415679931640625,0.20229363441467285,0.3527444899082184
1733231805840447700,2.11244775390625,0.32990169525146484,0.24307703971862793,0.1602538377046585
1733231805850427000,2.122427001953125,0.6103830337524414,0.3269467353820801,0.09544205665588379
1733231805860436700,2.132436767578125,0.8024883270263672,0.3421623706817627,0.060808539390563965
1733231805870446600,2.142446533203125,0.808039665222168,0.4059302806854248,-0.03902049362659454
1733231805880425700,2.15242578125,0.73455810546875,0.48209309577941895,-0.14354205131530762
1733231805890435600,2.162435546875,0.5703763961791992,0.5535645484924316,-0.23595906794071198
1733231805900445200,2.172445068359375,0.3716106414794922,0.5676021575927734,-0.2308637797832489
1733231805910424600,2.182424560546875,0.229644775390625,0.6085996627807617,-0.24284079670906067
1733231805920434200,2.19243408203125,0.23406505584716797,0.62502121925354,-0.26717913150787354
1733231805930444000,2.202444091796875,0.28447628021240234,0.6165533065795898,-0.24848464131355286
1733231805940454000,2.212453857421875,0.3041267395019531,0.6050984859466553,-0.24298998713493347
1733231805950433000,2.22243310546875,0.3646068572998047,0.5219120979309082,-0.1855515092611313
1733231805960443000,2.23244287109375,0.5401277542114258,0.39106225967407227,-0.16769742965698242
1733231805970452700,2.24245263671875,0.764063835144043,0.271136999130249,-0.14668020606040955
1733231805980432000,2.252431884765625,0.9732122421264648,0.16671347618103027,-0.1184682697057724
1733231805990441700,2.262441650390625,0.9556684494018555,0.1420450210571289,-0.09602101892232895
1733231806000451300,2.272451416015625,0.7143621444702148,0.23172974586486816,-0.09106895327568054
1733231806010430500,2.282430419921875,0.25152587890625,0.32357096672058105,-0.04541734606027603
1733231806020440300,2.2924404296875,-0.2368450164794922,0.29111576080322266,-0.014992401003837585
1733231806030450200,2.3024501953125,-0.6193180084228516,0.15668392181396484,-0.20867621898651123
1733231806040429600,2.3124296875,-0.18967247009277344,-0.0898292064666748,-0.402765691280365
1733231806050439200,2.322439208984375,1.8132314682006836,-0.4050288200378418,-0.7253060936927795
1733231806060449000,2.332448974609375,4.10930061340332,-0.6999726295471191,-1.0292495489120483
1733231806070428400,2.342428466796875,6.20562744140625,-1.1190297603607178,-0.9962766766548157
1733231806080438000,2.35243798828125,7.051420211791992,-1.512979507446289,-0.886721134185791
1733231806090447600,2.362447509765625,6.801902770996094,-1.7846951484680176,-0.7851606607437134
1733231806100426800,2.3724267578125,5.952893257141113,-1.8671306371688843,-0.757466733455658
1733231806110436600,2.3824365234375,4.637783050537109,-1.8476094007492065,-0.9336833953857422
1733231806120446500,2.392446533203125,3.295907974243164,-1.7139403820037842,-1.2730796337127686
1733231806130425900,2.40242578125,2.187239646911621,-1.5779883861541748,-1.4156513214111328
1733231806140435500,2.412435546875,0.8732824325561523,-1.5742030143737793,-1.2966300249099731
1733231806150445300,2.4224453125,-0.21505355834960938,-1.6032733917236328,-1.337174654006958
1733231806160424700,2.4324248046875,-1.3081259727478027,-1.6058645248413086,-1.426857829093933
1733231806170434300,2.442434326171875,-2.0242486000061035,-1.6956605911254883,-1.370151162147522
1733231806180444200,2.452444091796875,-2.336615562438965,-1.7942602634429932,-1.218064308166504
1733231806190453800,2.462453857421875,-2.258246898651123,-1.880587100982666,-1.0814390182495117
1733231806200433000,2.472432861328125,-2.0388331413269043,-1.8331067562103271,-1.0668904781341553
1733231806210442800,2.48244287109375,-1.8240575790405273,-1.8243818283081055,-1.0717473030090332
1733231806220452600,2.49245263671875,-1.5181818008422852,-1.7705624103546143,-1.1048591136932373
1733231806230431700,2.502431640625,-1.3757381439208984,-1.7129042148590088,-1.1388671398162842
1733231806240441600,2.512441650390625,-1.291064739227295,-1.64961576461792,-1.3223868608474731
1733231806250451500,2.522451416015625,-1.1376323699951172,-1.5990009307861328,-1.4820222854614258
1733231806260430600,2.5324306640625,-0.8658895492553711,-1.571485996246338,-1.5511813163757324
1733231806270440400,2.5424404296875,-0.5268230438232422,-1.5272784233093262,-1.5365893840789795
1733231806280450000,2.552449951171875,-0.21628952026367188,-1.5021467208862305,-1.4908931255340576
1733231806290429400,2.562429443359375,0.14017963409423828,-1.5086474418640137,-1.4098963737487793
1733231806300439000,2.57243896484375,0.33687782287597656,-1.4632105827331543,-1.2303558588027954
1733231806310449000,2.582448974609375,0.4597816467285156,-1.4781951904296875,-1.1202791929244995
1733231806320428300,2.59242822265625,0.29204368591308594,-1.1980571746826172,-0.8375536203384399
1733231806330438000,2.60243798828125,-0.04136085510253906,-0.910546064376831,-0.4954403042793274
1733231806340447700,2.61244775390625,-0.5148801803588867,-0.7629349231719971,-0.2588576674461365
1733231806350427000,2.622427001953125,-0.8834695816040039,-0.6216177940368652,-0.17312288284301758
1733231806360436700,2.632436767578125,-1.1294822692871094,-0.5385215282440186,-0.09298986196517944
1733231806370446600,2.642446533203125,-1.2096309661865234,-0.5109341144561768,-0.0004177689552307129
1733231806380425700,2.65242578125,-1.1383600234985352,-0.48202943801879883,0.03700125217437744
1733231806390435600,2.662435546875,-1.0194816589355469,-0.43587803840637207,0.006462037563323975
1733231806400445200,2.672445068359375,-0.8868341445922852,-0.39364099502563477,0.005836009979248047
1733231806410424600,2.682424560546875,-0.7823238372802734,-0.33542966842651367,-0.007678985595703125
1733231806420434200,2.69243408203125,-0.8192453384399414,-0.20667171478271484,-0.07907676696777344
1733231806430444000,2.702444091796875,-0.8944339752197266,-0.11072492599487305,-0.14746689796447754
1733231806440454000,2.712453857421875,-0.9099187850952148,0.02951836585998535,-0.24897778034210205
1733231806450433000,2.72243310546875,-0.8780155181884766,0.14064908027648926,-0.28395015001296997
1733231806460443000,2.73244287109375,-0.7560615539550781,0.23076105117797852,-0.25172150135040283
1733231806470452700,2.74245263671875,-0.6558752059936523,0.27605390548706055,-0.19108211994171143
1733231806480431900,2.752431884765625,-0.6009283065795898,0.36141467094421387,-0.18531537055969238
1733231806490441700,2.762441650390625,-0.5690908432006836,0.4540719985961914,-0.16193830966949463
1733231806500451300,2.772451416015625,-0.552952766418457,0.5534937381744385,-0.1895129680633545
1733231806510430500,2.782430419921875,-0.6624031066894531,0.6614303588867188,-0.15251564979553223
1733231806520440300,2.7924404296875,-0.8064184188842773,0.7347159385681152,-0.15831202268600464
1733231806530450200,2.8024501953125,-0.9610967636108398,0.8790304660797119,-0.20365631580352783
1733231806540429600,2.8124296875,-1.0069894790649414,0.9735114574432373,-0.2676880359649658
1733231806550439200,2.822439208984375,-0.9706792831420898,1.0995759963989258,-0.3034213185310364
1733231806560449000,2.832448974609375,-0.8065805435180664,1.2374427318572998,-0.31467634439468384
1733231806570428400,2.842428466796875,-0.535491943359375,1.3510522842407227,-0.30731022357940674
1733231806580438000,2.85243798828125,-0.30518627166748047,1.421334981918335,-0.28029054403305054
1733231806590447600,2.862447509765625,-0.1844463348388672,1.482309103012085,-0.27464503049850464
1733231806600426800,2.8724267578125,-0.09137248992919922,1.5664408206939697,-0.3329283595085144
1733231806610436600,2.8824365234375,0.049338340759277344,1.656067132949829,-0.34646332263946533
1733231806620446500,2.892446533203125,0.16925525665283203,1.6591730117797852,-0.2850537896156311
1733231806630425900,2.90242578125,0.2039966583251953,1.6875269412994385,-0.2413387894630432
1733231806640435500,2.912435546875,0.2925224304199219,1.6860573291778564,-0.2974640727043152
1733231806650445300,2.9224453125,0.4247751235961914,1.6535654067993164,-0.3385869264602661
1733231806660424700,2.9324248046875,0.6668415069580078,1.6402866840362549,-0.33649998903274536
1733231806670434300,2.942434326171875,0.963221549987793,1.5777640342712402,-0.29630744457244873
1733231806680444200,2.952444091796875,1.3114757537841797,1.5042195320129395,-0.23049277067184448
1733231806690453800,2.962453857421875,1.5180292129516602,1.397831678390503,-0.1627240777015686
1733231806700433000,2.972432861328125,1.636932373046875,1.3122749328613281,-0.09578925371170044
1733231806710442800,2.98244287109375,1.7208938598632812,1.1711602210998535,-0.02850431203842163
1733231806720452600,2.99245263671875,1.6072444915771484,1.0820622444152832,-0.022454380989074707
1733231806730431700,3.002431640625,1.501866340637207,1.0596630573272705,0.1460389494895935
1733231806740441600,3.012441650390625,1.323099136352539,0.983081579208374,0.328869491815567
1733231806750451500,3.022451416015625,0.9699697494506836,0.8655600547790527,0.5606584548950195
1733231806760430600,3.0324306640625,0.728388786315918,0.5714907646179199,0.8511747121810913
1733231806770440400,3.0424404296875,0.9367132186889648,0.1379835605621338,1.211094856262207
1733231806780450000,3.052449951171875,1.6485185623168945,-0.1396334171295166,1.341524600982666
1733231806790429400,3.062429443359375,2.863006591796875,-0.5300929546356201,1.4020016193389893
1733231806800439000,3.07243896484375,4.0040483474731445,-0.9301316738128662,1.5821902751922607
1733231806810449000,3.082448974609375,4.640153884887695,-1.1953935623168945,1.6010822057724
1733231806820428300,3.09242822265625,4.831479072570801,-1.1906828880310059,1.5052497386932373
1733231806830438000,3.10243798828125,4.409694671630859,-1.177445411682129,1.6543004512786865
1733231806840447700,3.11244775390625,3.0497379302978516,-1.2745890617370605,1.716780185699463
1733231806850427000,3.122427001953125,1.4350833892822266,-1.2841284275054932,1.5413591861724854
1733231806860436700,3.132436767578125,-0.4489402770996094,-1.1142535209655762,1.4191197156906128
1733231806870446600,3.142446533203125,-1.9745259284973145,-1.0926589965820312,1.432152509689331
1733231806880425700,3.15242578125,-3.330005168914795,-1.1597716808319092,1.4666744470596313
1733231806890435600,3.162435546875,-3.993313789367676,-1.1635453701019287,1.3356330394744873
1733231806900445200,3.172445068359375,-4.026048183441162,-1.2959260940551758,1.6165435314178467
1733231806910424600,3.182424560546875,-3.9468026161193848,-1.27742600440979,1.420629858970642
1733231806920434200,3.19243408203125,-3.398043155670166,-1.1735291481018066,1.8305972814559937
1733231806930444000,3.202444091796875,-2.422821044921875,-1.2103443145751953,2.0236377716064453
1733231806940454000,3.212453857421875,-1.5907583236694336,-1.2836005687713623,1.9594306945800781
1733231806950433000,3.22243310546875,-0.9220094680786133,-1.497145414352417,1.9134771823883057
1733231806960443000,3.23244287109375,-0.4344348907470703,-1.6359679698944092,1.8861900568008423
1733231806970452700,3.24245263671875,-0.23947429656982422,-1.6400872468948364,1.710792064666748
1733231806980432000,3.252431884765625,-0.22759056091308594,-1.5788228511810303,1.4606071710586548
1733231806990441700,3.262441650390625,-0.0831899642944336,-1.6061872243881226,1.299174189567566
1733231807000451300,3.272451416015625,0.1668386459350586,-1.619667887687683,1.0510145425796509
1733231807010430500,3.282430419921875,0.5456371307373047,-1.5352380275726318,0.8339300155639648
1733231807020440300,3.2924404296875,0.7631607055664062,-1.3708689212799072,0.5582706928253174
1733231807030450200,3.3024501953125,0.7504053115844727,-1.1969234943389893,0.4257657527923584
1733231807040429600,3.3124296875,0.44815731048583984,-1.026993751525879,0.37782150506973267
1733231807050439200,3.322439208984375,0.07512187957763672,-0.9176714420318604,0.23885689675807953
1733231807060449000,3.332448974609375,-0.29007911682128906,-0.8397243022918701,0.1702514886856079
1733231807070428400,3.342428466796875,-0.5302848815917969,-0.7476465702056885,0.09436491131782532
1733231807080438000,3.35243798828125,-0.5715646743774414,-0.6649858951568604,0.11727094650268555
1733231807090447600,3.362447509765625,-0.5794706344604492,-0.6102025508880615,0.22014519572257996
1733231807100426800,3.3724267578125,-0.6087856292724609,-0.5554306507110596,0.37645936012268066
1733231807110436600,3.3824365234375,-0.6662054061889648,-0.49970579147338867,0.4832859933376312
1733231807120446500,3.392446533203125,-0.76605224609375,-0.4217383861541748,0.5666868686676025
1733231807130425900,3.40242578125,-0.8386507034301758,-0.38233208656311035,0.7120697498321533
1733231807140435500,3.412435546875,-0.9667234420776367,-0.2565906047821045,0.7523778676986694
1733231807150445300,3.4224453125,-0.8497381210327148,-0.11622357368469238,0.783311665058136
1733231807160424700,3.4324248046875,-0.8060264587402344,-0.018525123596191406,0.800643801689148
1733231807170434300,3.442434326171875,-0.6833953857421875,0.06916499137878418,0.7880585789680481
1733231807180444200,3.452444091796875,-0.5104475021362305,0.1508009433746338,0.721815824508667
1733231807190453800,3.462453857421875,-0.3392333984375,0.18915534019470215,0.7702144384384155
1733231807200433000,3.472432861328125,-0.18926525115966797,0.23555493354797363,0.8773919343948364
1733231807210442800,3.48244287109375,-0.048523902893066406,0.3118436336517334,0.9671456217765808
1733231807220452600,3.49245263671875,0.1478404998779297,0.4414482116699219,0.9141367673873901
1733231807230431700,3.502431640625,0.38083744049072266,0.49945545196533203,0.8105033040046692
1733231807240441600,3.512441650390625,0.5723466873168945,0.4606130123138428,0.4239368736743927
1733231807250451500,3.522451416015625,0.7318353652954102,0.4976186752319336,0.19988596439361572
1733231807260430600,3.5324306640625,0.701481819152832,0.5692570209503174,0.07208579778671265
1733231807270440400,3.5424404296875,0.5889835357666016,0.655609130859375,0.013922572135925293
1733231807280450000,3.552449951171875,0.4246358871459961,0.7565162181854248,-0.061399996280670166
1733231807290429400,3.562429443359375,0.23705673217773438,0.8204309940338135,-0.11438771337270737
1733231807300439000,3.57243896484375,0.03875160217285156,0.8357753753662109,-0.11624196916818619
1733231807310449000,3.582448974609375,0.03291130065917969,0.8801450729370117,-0.1503990888595581
1733231807320428300,3.59242822265625,0.22822189331054688,0.8458232879638672,-0.14332988858222961
1733231807330438000,3.60243798828125,0.39458179473876953,0.764585018157959,-0.0883813202381134
1733231807340447700,3.61244775390625,0.6820201873779297,0.6073713302612305,-0.09049597382545471
1733231807350427000,3.622427001953125,0.9191112518310547,0.47856783866882324,-0.05730082094669342
1733231807360436700,3.632436767578125,1.047037124633789,0.32936620712280273,-0.03361702710390091
1733231807370446600,3.642446533203125,1.0668306350708008,0.18509817123413086,-0.004357174038887024
1733231807380425700,3.65242578125,0.9183015823364258,0.25938844680786133,-0.12934710085391998
1733231807390435600,3.662435546875,0.6919403076171875,0.35475754737854004,-0.23684155941009521
1733231807400445200,3.672445068359375,0.3419504165649414,0.36180663108825684,-0.32129356265068054
1733231807410424600,3.682424560546875,-0.10079288482666016,0.336198091506958,-0.37638548016548157
1733231807420434200,3.69243408203125,-0.4149494171142578,0.1472170352935791,-0.3455331027507782
1733231807430444000,3.702444091796875,0.03629112243652344,-0.10706424713134766,-0.562444806098938
1733231807440454000,3.712453857421875,1.6030683517456055,-0.34783148765563965,-0.8793525695800781
1733231807450433000,3.72243310546875,3.849140167236328,-0.7298181056976318,-1.0303423404693604
1733231807460443000,3.73244287109375,5.464822769165039,-1.102421760559082,-1.0237722396850586
1733231807470452700,3.74245263671875,6.480927467346191,-1.394542932510376,-0.9628722667694092
1733231807480431900,3.752431884765625,6.431365966796875,-1.6356334686279297,-0.8297909498214722
1733231807490441700,3.762441650390625,5.844860076904297,-1.7356306314468384,-0.6182501316070557
1733231807500451300,3.772451416015625,4.618839263916016,-1.6042828559875488,-0.8025287985801697
1733231807510430500,3.782430419921875,3.3801984786987305,-1.5665152072906494,-1.3544344902038574
1733231807520440300,3.7924404296875,2.0064315795898438,-1.4865126609802246,-1.6213245391845703
1733231807530450200,3.8024501953125,0.5622577667236328,-1.509162425994873,-1.3551620244979858
1733231807540429600,3.8124296875,-1.0361194610595703,-1.5138070583343506,-1.255299687385559
1733231807550439200,3.822439208984375,-2.1814470291137695,-1.5839457511901855,-1.2703945636749268
1733231807560449000,3.832448974609375,-2.9423136711120605,-1.7204065322875977,-1.112702488899231
1733231807570428400,3.842428466796875,-3.2427048683166504,-1.7609732151031494,-0.9405325651168823
1733231807580438000,3.85243798828125,-3.1717867851257324,-1.7721004486083984,-0.8218399286270142
1733231807590447600,3.862447509765625,-2.8832759857177734,-1.8300366401672363,-0.7623185515403748
1733231807600426800,3.8724267578125,-2.6426405906677246,-1.8713111877441406,-0.6464933156967163
1733231807610436600,3.8824365234375,-2.2937865257263184,-1.7772786617279053,-0.6878523826599121
1733231807620446500,3.892446533203125,-2.054347515106201,-1.7227797508239746,-0.726546049118042
1733231807630425900,3.90242578125,-1.6346921920776367,-1.752673625946045,-0.8674306273460388
1733231807640435500,3.912435546875,-1.215402603149414,-1.7662250995635986,-0.9550436735153198
1733231807650445300,3.9224453125,-0.7909908294677734,-1.741175651550293,-1.0366865396499634
1733231807660424700,3.9324248046875,-0.3350200653076172,-1.718538522720337,-1.0319712162017822
1733231807670434300,3.942434326171875,0.3990592956542969,-1.6120178699493408,-1.0838396549224854
1733231807680444200,3.952444091796875,1.0429067611694336,-1.5660593509674072,-1.1384235620498657
1733231807690453800,3.962453857421875,1.506338119506836,-1.5464706420898438,-1.0135524272918701
1733231807700433000,3.972432861328125,1.587122917175293,-1.5537173748016357,-0.9911743998527527
1733231807710442800,3.98244287109375,1.354884147644043,-1.475167989730835,-0.9805275797843933
1733231807720452600,3.99245263671875,0.4487943649291992,-0.7071382999420166,-0.47515878081321716
1733231807730431700,4.002431640625,-0.3953132629394531,-0.32704949378967285,-0.2091447114944458
1733231807740441600,4.012441650390625,-1.2602462768554688,-0.23957371711730957,-0.3344688415527344
1733231807750451500,4.022451416015625,-1.7624926567077637,-0.12516498565673828,-0.5143113136291504
1733231807760430600,4.0324306640625,-1.9756779670715332,-0.09579920768737793,-0.49989640712738037
1733231807770440400,4.0424404296875,-1.8651728630065918,-0.03528714179992676,-0.48066455125808716
1733231807780450000,4.052449951171875,-1.5295615196228027,0.040526628494262695,-0.5669316053390503
1733231807790429400,4.062429443359375,-1.158926010131836,0.09109044075012207,-0.6661065816879272
1733231807800439000,4.07243896484375,-0.7633781433105469,0.1696312427520752,-0.7215922474861145
1733231807810449000,4.082448974609375,-0.507288932800293,0.22541403770446777,-0.7221060991287231
1733231807820428300,4.09242822265625,-0.3516244888305664,0.26336669921875,-0.6476419568061829
1733231807830438000,4.10243798828125,-0.4034299850463867,0.36028361320495605,-0.6530648469924927
1733231807840447700,4.11244775390625,-0.5356235504150391,0.44600462913513184,-0.654619574546814
1733231807850427000,4.122427001953125,-0.7220325469970703,0.4708592891693115,-0.5968242883682251
1733231807860436700,4.132436767578125,-0.8121423721313477,0.5607049465179443,-0.6076676249504089
1733231807870446600,4.142446533203125,-0.7658786773681641,0.651287317276001,-0.6026910543441772
1733231807880426000,4.152426025390625,-0.5972719192504883,0.5810260772705078,-0.39603108167648315
1733231807890435600,4.162435546875,-0.3298473358154297,0.5045180320739746,-0.2547985911369324
1733231807900445200,4.172445068359375,-0.10868167877197266,0.4750981330871582,-0.1592537760734558
1733231807910424600,4.182424560546875,0.10436534881591797,0.45017170906066895,-0.06442660093307495
1733231807920434200,4.19243408203125,0.14423561096191406,0.4053957462310791,0.02760624885559082
1733231807930444000,4.202444091796875,0.07115554809570312,0.4213700294494629,0.0984576940536499
1733231807940454000,4.212453857421875,-0.005427360534667969,0.5142266750335693,0.133661687374115
1733231807950433000,4.22243310546875,-0.0581207275390625,0.5597348213195801,0.22030562162399292
1733231807960443000,4.23244287109375,-0.03026866912841797,0.5754923820495605,0.2734689712524414
1733231807970452700,4.24245263671875,0.10733222961425781,0.6547482013702393,0.29767394065856934
1733231807980432000,4.252431884765625,0.18416500091552734,0.7271013259887695,0.32873237133026123
1733231807990441700,4.262441650390625,0.20030593872070312,0.7829549312591553,0.3430456519126892
1733231808000451300,4.272451416015625,0.2265939712524414,0.7531414031982422,0.4341006278991699
1733231808010430500,4.282430419921875,0.32964134216308594,0.7564530372619629,0.47151196002960205
1733231808020440300,4.2924404296875,0.6283578872680664,0.7353651523590088,0.5282284617424011
1733231808030450200,4.3024501953125,0.9190673828125,0.7287685871124268,0.5499892830848694
1733231808040429600,4.3124296875,1.1733379364013672,0.678307056427002,0.5722931623458862
1733231808050439200,4.322439208984375,1.2435646057128906,0.6345970630645752,0.5666388273239136
1733231808060449000,4.332448974609375,1.2741594314575195,0.5909860134124756,0.49971210956573486
1733231808070428200,4.34242822265625,1.1218910217285156,0.5010008811950684,0.472248911857605
1733231808080438000,4.35243798828125,0.8691864013671875,0.44793057441711426,0.4199472963809967
1733231808090447600,4.362447509765625,0.5819282531738281,0.5114073753356934,0.33350998163223267
1733231808100426800,4.3724267578125,0.20668792724609375,0.6579685211181641,0.34738343954086304
1733231808110436600,4.3824365234375,-0.29552268981933594,0.7836778163909912,0.4795711040496826
1733231808120446500,4.392446533203125,-0.5192289352416992,0.5676906108856201,0.6269779205322266
1733231808130425900,4.40242578125,-0.5089035034179688,0.15039873123168945,0.9684603214263916
1733231808140435500,4.412435546875,0.4016695022583008,-0.2962982654571533,1.1243482828140259
1733231808150445300,4.4224453125,2.4176464080810547,-0.7519617080688477,0.8861132860183716
1733231808160424700,4.4324248046875,4.820513725280762,-1.3192641735076904,0.9699158668518066
1733231808170434300,4.442434326171875,6.987361907958984,-1.7927868366241455,1.1918988227844238
1733231808180444200,4.452444091796875,8.454032897949219,-1.9665170907974243,1.1457456350326538
1733231808190453800,4.462453857421875,8.333260536193848,-1.9108184576034546,1.2609970569610596
1733231808200433000,4.472432861328125,6.922521591186523,-1.861765742301941,1.5364515781402588
1733231808210442800,4.48244287109375,4.885490417480469,-1.7131414413452148,1.3761080503463745
1733231808220452600,4.49245263671875,2.15889835357666,-1.579685926437378,0.878352165222168
1733231808230431700,4.502431640625,-0.17418956756591797,-1.4557769298553467,0.7058932781219482
1733231808240441600,4.512441650390625,-2.5615758895874023,-1.600771188735962,0.6709157228469849
1733231808250451500,4.522451416015625,-4.06521463394165,-1.7601609230041504,0.5873149037361145
1733231808260430600,4.5324306640625,-5.047452926635742,-1.8110687732696533,0.5425469279289246
1733231808270440400,4.5424404296875,-4.979933738708496,-1.8014271259307861,0.3441421091556549
1733231808280450000,4.552449951171875,-4.206753730773926,-2.0319430828094482,1.1506659984588623
1733231808290429400,4.562429443359375,-3.1056747436523438,-1.9824354648590088,1.0047876834869385
1733231808300439000,4.57243896484375,-1.8869853019714355,-1.9794948101043701,1.4875658750534058
1733231808310449000,4.582448974609375,-0.7622737884521484,-2.0800862312316895,1.599954605102539
1733231808320428000,4.592427978515625,-0.2869424819946289,-2.236854076385498,1.481335163116455
1733231808330438000,4.60243798828125,0.11751937866210938,-2.3046014308929443,1.2944369316101074
1733231808340447700,4.61244775390625,0.3747873306274414,-2.221691608428955,1.1198354959487915
1733231808350427100,4.62242724609375,0.3897418975830078,-2.152377128601074,1.054465413093567
1733231808360436700,4.632436767578125,0.26114940643310547,-2.160290241241455,0.7120113968849182
1733231808370446600,4.642446533203125,0.1459808349609375,-2.154621124267578,0.41807180643081665
1733231808380425700,4.65242578125,0.10543251037597656,-2.00886869430542,0.155079647898674
1733231808390435600,4.662435546875,0.11847686767578125,-1.788325548171997,-0.05403217673301697
1733231808400445400,4.672445556640625,0.12939453125,-1.644648551940918,0.014651045203208923
1733231808410424600,4.682424560546875,0.028776168823242188,-1.5337038040161133,-0.019517185166478157
1733231808420434200,4.69243408203125,-0.10850238800048828,-1.4040157794952393,-0.0777360051870346
1733231808430444000,4.702444091796875,-0.3153104782104492,-1.323887586593628,-0.18195363879203796
1733231808440454000,4.712453857421875,-0.5266609191894531,-1.3012354373931885,-0.18589037656784058
1733231808450433000,4.72243310546875,-0.6779689788818359,-1.2906887531280518,-0.03625175356864929
1733231808460443000,4.73244287109375,-0.8123235702514648,-1.2301173210144043,0.1276267021894455
1733231808470452700,4.74245263671875,-0.8006362915039062,-1.195784568786621,0.20569105446338654
1733231808480431900,4.752431884765625,-0.7701778411865234,-1.1628937721252441,0.3312431573867798
1733231808490441700,4.762441650390625,-0.8022365570068359,-1.1388697624206543,0.4692106246948242
1733231808500451300,4.772451416015625,-0.8105058670043945,-1.1383752822875977,0.6052882075309753
1733231808510430500,4.782430419921875,-0.7806520462036133,-1.0991344451904297,0.7294739484786987
1733231808520440300,4.7924404296875,-0.6797771453857422,-1.0556044578552246,0.7490323781967163
1733231808530450200,4.8024501953125,-0.4790334701538086,-1.0079419612884521,0.7730022668838501
1733231808540429300,4.81242919921875,-0.2270669937133789,-0.935847282409668,0.7742084264755249
1733231808550439200,4.822439208984375,-0.039661407470703125,-0.8330950736999512,0.8187698125839233
1733231808560449000,4.832448974609375,0.10285377502441406,-0.6694135665893555,0.7988422513008118
1733231808570428400,4.842428466796875,0.22964191436767578,-0.450425386428833,0.710792064666748
1733231808580438000,4.85243798828125,0.2696809768676758,-0.24133682250976562,0.5776404738426208
1733231808590447600,4.862447509765625,0.2459573745727539,-0.04467439651489258,0.476085901260376
1733231808600427000,4.872427001953125,0.2074565887451172,0.12394976615905762,0.37338414788246155
1733231808610436600,4.8824365234375,0.12225627899169922,0.2546675205230713,0.2820371687412262
1733231808620446500,4.892446533203125,-0.05071830749511719,0.36536097526550293,0.3701638877391815
1733231808630425600,4.902425537109375,-0.16904544830322266,0.4725618362426758,0.37738990783691406
1733231808640435500,4.912435546875,-0.28517627716064453,0.5468931198120117,0.34898999333381653
1733231808650445300,4.9224453125,-0.3183774948120117,0.6093943119049072,0.32206010818481445
1733231808660424700,4.9324248046875,-0.3454875946044922,0.6729204654693604,0.2855067253112793
1733231808670434300,4.942434326171875,-0.1942586898803711,0.7212619781494141,0.20481079816818237
1733231808680444200,4.952444091796875,-0.03482341766357422,0.7476487159729004,0.13792583346366882
1733231808690453800,4.962453857421875,0.06310653686523438,0.7361695766448975,0.07780367136001587
1733231808700433000,4.972432861328125,0.27129173278808594,0.7293434143066406,0.06756561994552612
1733231808710442800,4.98244287109375,0.5126476287841797,0.6616215705871582,0.1390489935874939
1733231808720452600,4.99245263671875,0.7198324203491211,0.5817134380340576,0.11035597324371338
1733231808730431700,5.002431640625,0.8356208801269531,0.5200009346008301,0.09897124767303467
1733231808740441600,5.012441650390625,0.9540224075317383,0.4724259376525879,0.15601545572280884
1733231808750451500,5.022451416015625,0.8664894104003906,0.41792726516723633,0.12124049663543701
1733231808760430600,5.0324306640625,0.7866992950439453,0.5151791572570801,0.07709842920303345
1733231808770440400,5.0424404296875,0.6332426071166992,0.6538972854614258,0.018667876720428467
1733231808780450000,5.052449951171875,0.34394264221191406,0.7163209915161133,-0.0674288272857666
1733231808790429400,5.062429443359375,-0.011844635009765625,0.7194106578826904,-0.27818286418914795
1733231808800439000,5.07243896484375,-0.2547798156738281,0.6231622695922852,-0.4287298619747162
1733231808810449000,5.082448974609375,-0.12075996398925781,0.3486638069152832,-0.6174556016921997
1733231808820428300,5.09242822265625,1.3005399703979492,0.101226806640625,-0.7636731863021851
1733231808830438000,5.10243798828125,3.5403003692626953,-0.1296079158782959,-0.9292367100715637
1733231808840447700,5.11244775390625,5.578792572021484,-0.5035521984100342,-0.7185333371162415
1733231808850427000,5.122427001953125,6.954988479614258,-0.7567100524902344,-0.743309497833252
1733231808860436700,5.132436767578125,7.245704650878906,-0.9885303974151611,-0.6290675401687622
1733231808870446600,5.142446533203125,6.784082412719727,-1.068835973739624,-0.37193813920021057
1733231808880426000,5.152426025390625,5.803041458129883,-1.0442063808441162,-0.5617117881774902
1733231808890435600,5.162435546875,4.567239761352539,-1.0766470432281494,-0.9652202129364014
1733231808900445200,5.172445068359375,3.2339019775390625,-1.0965337753295898,-1.4799041748046875
1733231808910424600,5.182424560546875,2.051264762878418,-1.1222059726715088,-1.483211636543274
1733231808920434200,5.19243408203125,0.6269798278808594,-1.1551108360290527,-1.1932424306869507
1733231808930444000,5.202444091796875,-0.6795425415039062,-1.3047435283660889,-1.1177393198013306
1733231808940454000,5.212453857421875,-1.8590574264526367,-1.4326720237731934,-1.0784038305282593
1733231808950433000,5.22243310546875,-2.4698586463928223,-1.55891752243042,-1.0580471754074097
1733231808960443000,5.23244287109375,-2.8731141090393066,-1.6400808095932007,-0.9896232485771179
1733231808970452700,5.24245263671875,-2.8822855949401855,-1.6550966501235962,-1.0701531171798706
1733231808980432000,5.252431884765625,-2.7476110458374023,-1.7166117429733276,-0.8001049757003784
1733231808990441700,5.262441650390625,-2.598421573638916,-1.7047137022018433,-0.7061678171157837
1733231809000451300,5.272451416015625,-2.4664602279663086,-1.629969835281372,-0.7609208226203918
1733231809010430500,5.282430419921875,-2.3900065422058105,-1.564100980758667,-0.9378983974456787
1733231809020440300,5.2924404296875,-2.185140609741211,-1.5440783500671387,-0.9814520478248596
1733231809030450200,5.3024501953125,-1.5967888832092285,-1.6531953811645508,-1.0055487155914307
1733231809040429600,5.3124296875,-0.9290618896484375,-1.7106068134307861,-1.0421297550201416
1733231809050439200,5.322439208984375,-0.2280588150024414,-1.670457124710083,-0.9559072256088257
1733231809060449000,5.332448974609375,0.2244129180908203,-1.6111278533935547,-0.8713608384132385
1733231809070428200,5.34242822265625,0.5631341934204102,-1.5678372383117676,-0.9456416368484497
1733231809080438000,5.35243798828125,0.9863224029541016,-1.536916732788086,-1.0555145740509033
1733231809090447600,5.362447509765625,1.2304153442382812,-1.4891011714935303,-1.1050286293029785
1733231809100426800,5.3724267578125,1.2532157897949219,-1.4457287788391113,-1.156428337097168
1733231809110436600,5.3824365234375,1.028428077697754,-1.3887665271759033,-1.1119855642318726
1733231809120446500,5.392446533203125,0.6619062423706055,-1.2716448307037354,-1.1025348901748657
1733231809130425900,5.40242578125,0.20217132568359375,-1.1773722171783447,-1.1351287364959717
1733231809140435500,5.412435546875,-0.20013427734375,-1.1175801753997803,-1.0705188512802124
1733231809150445300,5.4224453125,-0.5814104080200195,-1.0935888290405273,-1.0527793169021606
1733231809160424700,5.4324248046875,-1.0471973419189453,-0.9997067451477051,-0.9860054850578308
1733231809170434300,5.442434326171875,-1.3110771179199219,-0.9248812198638916,-0.9158756732940674
1733231809180444200,5.452444091796875,-1.4989657402038574,-0.7423000335693359,-0.7467135190963745
1733231809190453800,5.462453857421875,-1.4329428672790527,-0.7003908157348633,-0.6674529314041138
1733231809200433000,5.472432861328125,-1.179886817932129,-0.6415650844573975,-0.6395759582519531
1733231809210442800,5.48244287109375,-0.8810958862304688,-0.6301214694976807,-0.6103466749191284
1733231809220452600,5.49245263671875,-0.7348098754882812,-0.573772668838501,-0.5956768989562988
1733231809230431700,5.502431640625,-0.3935222625732422,-0.5043084621429443,-0.6480849981307983
1733231809240441600,5.512441650390625,-0.1564197540283203,-0.5032272338867188,-0.7243013978004456
1733231809250451500,5.522451416015625,0.1417713165283203,-0.4653592109680176,-0.7518085241317749
1733231809260430600,5.5324306640625,0.42436695098876953,-0.40962743759155273,-0.7926945686340332
1733231809270440400,5.5424404296875,0.553685188293457,-0.35349202156066895,-0.7315857410430908
1733231809280450000,5.552449951171875,0.49623870849609375,-0.13092923164367676,-0.4421141743659973
1733231809290429400,5.562429443359375,0.3897228240966797,0.01931309700012207,-0.2643052339553833
1733231809300439000,5.57243896484375,0.21250057220458984,0.15659880638122559,-0.11009645462036133
1733231809310449000,5.582448974609375,-0.051677703857421875,0.24990129470825195,-0.1104767918586731
1733231809320428000,5.592427978515625,-0.4295034408569336,0.3284626007080078,-0.09188193082809448
1733231809330438000,5.60243798828125,-0.6556730270385742,0.37097787857055664,-0.11502552032470703
1733231809340447700,5.61244775390625,-0.5859918594360352,0.3901498317718506,-0.14813798666000366
1733231809350427100,5.62242724609375,-0.47159671783447266,0.3711831569671631,-0.10928130149841309
1733231809360436700,5.632436767578125,-0.5290403366088867,0.3566751480102539,-0.02208101749420166
1733231809370446600,5.642446533203125,-0.5787534713745117,0.39273929595947266,0.05181914567947388
1733231809380425700,5.65242578125,-0.634129524230957,0.4581449031829834,0.03172492980957031
1733231809390435600,5.662435546875,-0.6787853240966797,0.49654412269592285,0.051977336406707764
1733231809400445400,5.672445556640625,-0.682246208190918,0.5480611324310303,0.052950918674468994
1733231809410424600,5.682424560546875,-0.5585136413574219,0.5894858837127686,0.04987841844558716
1733231809420434200,5.69243408203125,-0.41544437408447266,0.6112480163574219,0.07495671510696411
1733231809430444000,5.702444091796875,-0.2552604675292969,0.6010112762451172,0.123715341091156
1733231809440454000,5.712453857421875,-0.15207958221435547,0.577772855758667,0.10803651809692383
1733231809450433000,5.72243310546875,0.023550987243652344,0.6009979248046875,0.07351315021514893
1733231809460443000,5.73244287109375,0.25014305114746094,0.6155738830566406,0.05885112285614014
1733231809470452700,5.74245263671875,0.4402179718017578,0.6055543422698975,0.03481179475784302
1733231809480431900,5.752431884765625,0.49346065521240234,0.5940036773681641,0.06965255737304688
1733231809490441700,5.762441650390625,0.56085205078125,0.573345422744751,0.09144967794418335
1733231809500451300,5.772451416015625,0.6423454284667969,0.5605432987213135,0.055143892765045166
1733231809510430500,5.782430419921875,0.7640457153320312,0.5515131950378418,-0.009875774383544922
1733231809520440300,5.7924404296875,0.9641447067260742,0.4963243007659912,-0.04331010580062866
1733231809530450200,5.8024501953125,0.9200124740600586,0.46987152099609375,-0.04409515857696533
1733231809540429300,5.81242919921875,0.6516027450561523,0.4579474925994873,-0.035274386405944824
1733231809550439200,5.822439208984375,0.32989025115966797,0.5757460594177246,0.013424813747406006
1733231809560449000,5.832448974609375,-0.000247955322265625,0.6433205604553223,0.1477145552635193
1733231809570428400,5.842428466796875,-0.2816486358642578,0.6084318161010742,0.4206530749797821
1733231809580438000,5.85243798828125,-0.4626779556274414,0.35795021057128906,0.6499122381210327
1733231809590447600,5.862447509765625,-0.20139312744140625,-0.020633459091186523,1.1266238689422607
1733231809600427000,5.872427001953125,0.7333450317382812,-0.5072288513183594,1.2078635692596436
1733231809610436600,5.8824365234375,1.7509565353393555,-0.8219337463378906,0.9302417039871216
1733231809620446500,5.892446533203125,3.228518486022949,-1.0646014213562012,0.8640766143798828
1733231809630425600,5.902425537109375,4.698742866516113,-1.2876660823822021,0.903982400894165
1733231809640435500,5.912435546875,5.8073015213012695,-1.2586357593536377,0.8186084628105164
1733231809650445300,5.9224453125,5.607137680053711,-1.0721147060394287,0.5696083903312683
1733231809660424700,5.9324248046875,4.679648399353027,-1.0166404247283936,0.5518587827682495
1733231809670434300,5.942434326171875,2.901120185852051,-1.047555923461914,0.34549233317375183
1733231809680444200,5.952444091796875,1.2031059265136719,-0.9840896129608154,0.08414236456155777
1733231809690453800,5.962453857421875,-0.4492607116699219,-0.9208524227142334,0.052912238985300064
1733231809700433000,5.972432861328125,-1.6074676513671875,-1.0663557052612305,0.03572554141283035
1733231809710442800,5.98244287109375,-2.5574779510498047,-1.2514152526855469,0.03384031355381012
1733231809720452600,5.99245263671875,-2.8532629013061523,-1.3067741394042969,0.10639102011919022
1733231809730431700,6.002431640625,-2.4342799186706543,-1.333958625793457,0.31924203038215637
1733231809740441600,6.012441650390625,-1.618490219116211,-1.3695499897003174,0.608197808265686
1733231809750451500,6.022451416015625,-0.5802202224731445,-1.451941728591919,0.8231569528579712
1733231809760430600,6.0324306640625,0.15616703033447266,-1.626960277557373,0.9276158809661865
1733231809770440400,6.0424404296875,0.5277976989746094,-1.7777116298675537,1.0355684757232666
1733231809780450000,6.052449951171875,0.6752462387084961,-1.8381279706954956,1.2355215549468994
1733231809790429400,6.062429443359375,0.6912145614624023,-1.7981562614440918,1.3728023767471313
1733231809800439300,6.072439208984375,0.5956611633300781,-1.7222671508789062,1.2972952127456665
1733231809810449000,6.082448974609375,0.4149141311645508,-1.7058591842651367,1.2519450187683105
1733231809820428300,6.09242822265625,0.29474639892578125,-1.6379139423370361,1.130656123161316
1733231809830438000,6.10243798828125,0.15578556060791016,-1.6444065570831299,1.05403733253479
1733231809840447700,6.11244775390625,0.0336456298828125,-1.5811421871185303,0.8900703191757202
1733231809850427000,6.122427001953125,0.021148681640625,-1.4924931526184082,0.7373281717300415
1733231809860436700,6.132436767578125,-0.08980751037597656,-1.46531343460083,0.6281793713569641
1733231809870446600,6.142446533203125,-0.07668209075927734,-1.4035749435424805,0.551349401473999
1733231809880426000,6.152426025390625,0.03388404846191406,-1.3088874816894531,0.4935816824436188
1733231809890435600,6.162435546875,0.12247467041015625,-1.2417821884155273,0.3489527106285095
1733231809900445200,6.172445068359375,0.19653606414794922,-1.1693785190582275,0.24472732841968536
1733231809910424600,6.182424560546875,0.2825927734375,-1.0993542671203613,0.2843317687511444
1733231809920434200,6.19243408203125,0.28047657012939453,-1.0566575527191162,0.32908084988594055
1733231809930444000,6.202444091796875,0.09253978729248047,-1.0066914558410645,0.23278453946113586
1733231809940454000,6.212453857421875,-0.39841461181640625,-0.6035134792327881,0.10809914022684097
1733231809950433000,6.22243310546875,-0.897028923034668,-0.43751001358032227,0.07697494328022003
1733231809960443000,6.23244287109375,-0.8452568054199219,-0.4262514114379883,0.10170416533946991
1733231809970452700,6.24245263671875,-0.11553955078125,-0.15260529518127441,-0.1736273467540741
1733231809980432000,6.252431884765625,-0.37235450744628906,0.04528498649597168,-0.8976661562919617
1733231809990441700,6.262441650390625,-0.4946575164794922,0.17405915260314941,-0.2436908334493637
1733231810000451300,6.272451416015625,0.322540283203125,0.17165470123291016,-0.07169797271490097
1733231810010430500,6.282430419921875,0.2021198272705078,0.07147049903869629,-0.2929956316947937
1733231810020440300,6.2924404296875,0.127166748046875,0.03847765922546387,-0.28541824221611023
1733231810030450200,6.3024501953125,0.2912015914916992,0.09997248649597168,-0.1986316442489624
1733231810040429600,6.3124296875,0.3828849792480469,0.1817479133605957,-0.24880117177963257
1733231810050439200,6.322439208984375,0.2927703857421875,0.0638272762298584,-0.3493606448173523
1733231810060449000,6.332448974609375,0.1558380126953125,0.18389225006103516,-0.7389066815376282
1733231810070428200,6.34242822265625,-0.08665752410888672,0.40921878814697266,-0.7531558275222778
1733231810080438000,6.35243798828125,0.1640186309814453,0.4529533386230469,-0.8935860991477966
