time,seconds_elapsed,z,y,x
1733231803950597400,0.222597412109375,0.009162978269159794,-0.13561208546161652,0.3787364661693573
1733231803960585700,0.232585693359375,-0.006108652334660292,-0.1765400618314743,0.3445279896259308
1733231803970616600,0.242616455078125,-0.021991148591041565,-0.20952677726745605,0.2993239760398865
1733231803980574700,0.25257470703125,-0.0354301854968071,-0.23640485107898712,0.24495697021484375
1733231803990605800,0.262605712890625,-0.05009094998240471,-0.23884831368923187,0.17470745742321014
1733231804000594400,0.272594482421875,-0.06475171446800232,-0.21624629199504852,0.10384709388017654
1733231804010594800,0.2825947265625,-0.0806342139840126,-0.17959438264369965,0.036651913076639175
1733231804020583400,0.29258349609375,-0.09712757170200348,-0.1508837193250656,-0.02382374368607998
1733231804030614800,0.30261474609375,-0.10690141469240189,-0.1362229436635971,-0.08429940044879913
1733231804040572400,0.312572509765625,-0.10567969083786011,-0.1411098688840866,-0.09407325088977814
1733231804050603500,0.322603515625,-0.09896016865968704,-0.14049901068210602,-0.07819075137376785
1733231804060592000,0.332592041015625,-0.08796459436416626,-0.12034045159816742,-0.030543262138962746
1733231804070592500,0.342592529296875,-0.07208210229873657,-0.07208210229873657,0.03848451003432274
1733231804080581000,0.3525810546875,-0.051312681287527084,-0.00733038317412138,0.10751228034496307
1733231804090612000,0.362612060546875,-0.030543262138962746,0.048258353024721146,0.16004669666290283
1733231804100569900,0.37256982421875,-0.001832595793530345,0.11362093687057495,0.1973094791173935
1733231804110599200,0.38259912109375,0.013439035043120384,0.13316862285137177,0.19120082259178162
1733231804120588500,0.392588623046875,0.018936822190880775,0.1264491081237793,0.16554448008537292
1733231804130589000,0.4025888671875,0.012828170321881771,0.10445795953273773,0.12828169763088226
1733231804140577500,0.41257763671875,-0.0006108652451075613,0.07696902006864548,0.07757988572120667
1733231804150608400,0.4226083984375,-0.021991148591041565,0.04886921867728233,0.02626720629632473
1733231804160566500,0.43256640625,-0.05253441259264946,0.019547687843441963,-0.014049900695681572
1733231804170597600,0.44259765625,-0.08857546001672745,-0.01160643994808197,-0.05009094998240471
1733231804180586000,0.4525859375,-0.14477506279945374,-0.030543262138962746,-0.09346238523721695
1733231804190617300,0.462617431640625,-0.17348572611808777,-0.036041051149368286,-0.11789698898792267
1733231804200575000,0.472574951171875,-0.2015855312347412,-0.06475171446800232,-0.13377949595451355
1733231804210607000,0.482607177734375,-0.22357667982578278,-0.0959058403968811,-0.14416420459747314
1733231804220595500,0.492595458984375,-0.24068090319633484,-0.10445795953273773,-0.15454891324043274
1733231804230596000,0.50259619140625,-0.2528982162475586,-0.09162978827953339,-0.16310101747512817
1733231804240584400,0.51258447265625,-0.25961771607398987,-0.05864306539297104,-0.1618792861700058
1733231804250615800,0.52261572265625,-0.2528982162475586,0.014049900695681572,-0.1514945775270462
1733231804260573400,0.532573486328125,-0.24068090319633484,0.06658431142568588,-0.13072516024112701
1733231804270604800,0.542604736328125,-0.22479841113090515,0.12522737681865692,-0.10445795953273773
1733231804280593200,0.55259326171875,-0.2021963894367218,0.1820378452539444,-0.07513642311096191
1733231804290593800,0.56259375,-0.17959438264369965,0.21930062770843506,-0.048258353024721146
1733231804300582100,0.57258203125,-0.15760323405265808,0.24678955972194672,-0.025656340643763542
1733231804310613200,0.58261328125,-0.1362229436635971,0.2528982162475586,-0.009773843921720982
1733231804320571100,0.592571044921875,-0.1160643994808197,0.20097467303276062,-0.012828170321881771
1733231804330602200,0.602602294921875,-0.10934487730264664,0.1569923609495163,-0.0354301854968071
1733231804340590600,0.612590576171875,-0.10934487730264664,0.09651670604944229,-0.06536258012056351
1733231804350591500,0.622591552734375,-0.10995574295520782,0.036041051149368286,-0.08918632566928864
1733231804360579600,0.63257958984375,-0.1111774742603302,-0.016493361443281174,-0.10323622822761536
1733231804370610700,0.642610595703125,-0.11545353382825851,-0.05864306539297104,-0.09957103431224823
1733231804380568600,0.652568603515625,-0.1215621829032898,-0.09224065393209457,-0.08735372871160507
1733231804390600000,0.662599853515625,-0.12828169763088226,-0.11728613078594208,-0.06963863968849182
1733231804400588300,0.67258837890625,-0.14294247329235077,-0.1569923609495163,-0.04153883829712868
1733231804410588700,0.682588623046875,-0.15577064454555511,-0.18631389737129211,-0.030543262138962746
1733231804420577300,0.692577392578125,-0.16920967400074005,-0.21991148591041565,-0.029932396486401558
1733231804430608100,0.702608154296875,-0.18875735998153687,-0.2480112910270691,-0.02871066704392433
1733231804440596700,0.7125966796875,-0.2070833146572113,-0.251676470041275,-0.028099801391363144
1733231804450597000,0.72259716796875,-0.22540926933288574,-0.23335053026676178,-0.02687807008624077
1733231804460585700,0.732585693359375,-0.24495697021484375,-0.2076941877603531,-0.02871066704392433
1733231804470617000,0.7426171875,-0.2724458873271942,-0.1667662113904953,-0.02076941914856434
1733231804480574700,0.75257470703125,-0.2871066629886627,-0.11728613078594208,0.00427605677396059
1733231804490605800,0.762605712890625,-0.2919935882091522,-0.04153883829712868,0.042760565876960754
1733231804500594200,0.77259423828125,-0.2932153046131134,0.039706241339445114,0.0659734457731247
1733231804510594800,0.7825947265625,-0.2926044464111328,0.09407325088977814,0.05314527451992035
1733231804520583400,0.79258349609375,-0.2877175211906433,0.12217304855585098,0.00366519158706069
1733231804530614500,0.802614501953125,-0.2779437005519867,0.14049901068210602,-0.07330382615327835
1733231804540572400,0.812572509765625,-0.25534167885780334,0.15027284622192383,-0.26083946228027344
1733231804550603300,0.822603271484375,-0.24068090319633484,0.0757472887635231,-0.4178318381309509
1733231804560592100,0.832592041015625,-0.22052235901355743,-0.07696902006864548,-0.5540547966957092
1733231804570592000,0.842592041015625,-0.2015855312347412,-0.2174680233001709,-0.5998696684837341
1733231804580580900,0.852580810546875,-0.17776179313659668,-0.2926044464111328,-0.5308418869972229
1733231804590612200,0.8626123046875,-0.15577064454555511,-0.29626965522766113,-0.3854559659957886
1733231804600569900,0.87256982421875,-0.13255776464939117,-0.2321287989616394,-0.2119702398777008
1733231804610601200,0.882601318359375,-0.10262536257505417,-0.13072516024112701,-0.054367005825042725
1733231804620589300,0.89258935546875,-0.060475658625364304,0.04703662544488907,0.1160643994808197
1733231804630590000,0.90258984375,-0.022602014243602753,0.1508837193250656,0.1820378452539444
1733231804640578600,0.91257861328125,0.012828170321881771,0.21930062770843506,0.2223549485206604
1733231804650609700,0.922609619140625,0.04092797264456749,0.24678955972194672,0.24129177629947662
1733231804660567300,0.9325673828125,0.06719517707824707,0.2565633952617645,0.2370157092809677
1733231804670598400,0.942598388671875,0.08429940044879913,0.2571742534637451,0.21930062770843506
1733231804680586800,0.952586669921875,0.09407325088977814,0.22418753802776337,0.19792033731937408
1733231804690617900,0.962617919921875,0.09224065393209457,0.12889257073402405,0.18997909128665924
1733231804700576000,0.972575927734375,0.08185594528913498,0.0708603709936142,0.20952677726745605
1733231804710606800,0.98260693359375,0.06414084881544113,0.02321287989616394,0.2321287989616394
1733231804720595500,0.992595458984375,0.039095375686883926,-0.02321287989616394,0.24129177629947662
1733231804730595800,1.002595947265625,0.018936822190880775,-0.039706241339445114,0.22418753802776337
1733231804740584400,1.01258447265625,0.0024434609804302454,-0.03481931984424591,0.1716531366109848
1733231804750615600,1.022615478515625,-0.012217304669320583,-0.022602014243602753,0.09468411654233932
1733231804760573400,1.032573486328125,-0.02076941914856434,-0.014049900695681572,-0.02932153269648552
1733231804770604300,1.042604248046875,-0.018325956538319588,-0.025656340643763542,-0.10751228034496307
1733231804780593000,1.052593017578125,-0.015882495790719986,-0.06719517707824707,-0.1771509200334549
1733231804790593500,1.062593505859375,-0.013439035043120384,-0.13744467496871948,-0.23335053026676178
1733231804800582100,1.07258203125,-0.004886921960860491,-0.22113321721553802,-0.26572638750076294
1733231804810613000,1.082613037109375,0,-0.2993239760398865,-0.2675589919090271
1733231804820571100,1.092571044921875,0.004886921960860491,-0.3274237811565399,-0.22418753802776337
1733231804830601700,1.102601806640625,0,-0.3066543638706207,-0.14966198801994324
1733231804840590800,1.1125908203125,0.004886921960860491,-0.21991148591041565,0.0006108652451075613
1733231804850590700,1.1225908203125,0.00427605677396059,-0.14538592100143433,0.10201449692249298
1733231804860579600,1.13257958984375,-0.0006108652451075613,-0.07208210229873657,0.18020524084568024
1733231804870610400,1.1426103515625,-0.006108652334660292,-0.004886921960860491,0.21319197118282318
1733231804880568600,1.152568603515625,-0.009162978269159794,0.06475171446800232,0.20341812074184418
1733231804890599700,1.162599609375,-0.013439035043120384,0.11728613078594208,0.16982053220272064
1733231804900588000,1.172588134765625,-0.021380282938480377,0.14844025671482086,0.12950342893600464
1733231804910589000,1.1825888671875,-0.025656340643763542,0.1661553531885147,0.06780604273080826
1733231804920577300,1.192577392578125,-0.02321287989616394,0.16432274878025055,0.028099801391363144
1733231804930608400,1.2026083984375,-0.02015855349600315,0.15027284622192383,-0.003054326167330146
1733231804940596700,1.2125966796875,-0.01771509274840355,0.1459967941045761,-0.018325956538319588
1733231804950597000,1.22259716796875,-0.012217304669320583,0.14416420459747314,-0.018325956538319588
1733231804960585700,1.232585693359375,-0.01160643994808197,0.1411098688840866,-0.00366519158706069
1733231804970616600,1.242616455078125,-0.00855211354792118,0.14233160018920898,0.00427605677396059
1733231804980574700,1.25257470703125,-0.0024434609804302454,0.16249015927314758,-0.006108652334660292
1733231804990604800,1.262604736328125,0.001832595793530345,0.15577064454555511,-0.029932396486401558
1733231805000594400,1.272594482421875,0.006108652334660292,0.13316862285137177,-0.07269296050071716
1733231805010594000,1.282593994140625,0.012828170321881771,0.10506882518529892,-0.11667526513338089
1733231805020583400,1.29258349609375,0.021380282938480377,0.07024950534105301,-0.14966198801994324
1733231805030613800,1.30261376953125,0.03176499158143997,0.016493361443281174,-0.1722639948129654
1733231805040572700,1.31257275390625,0.04214970022439957,-0.042760565876960754,-0.1820378452539444
1733231805050603300,1.322603271484375,0.05253441259264946,-0.10445795953273773,-0.16982053220272064
1733231805060592000,1.332592041015625,0.06291911751031876,-0.19608774781227112,-0.1215621829032898
1733231805070592500,1.342592529296875,0.0708603709936142,-0.22357667982578278,-0.07147123664617538
1733231805080581000,1.3525810546875,0.07757988572120667,-0.22357667982578278,-0.016493361443281174
1733231805090612000,1.362612060546875,0.08002334833145142,-0.20952677726745605,0.031154127791523933
1733231805100569900,1.37256982421875,0.07757988572120667,-0.18875735998153687,0.06108652427792549
1733231805110599200,1.38259912109375,0.07880161702632904,-0.17348572611808777,0.06536258012056351
1733231805120588300,1.39258837890625,0.08246681094169617,-0.18509216606616974,0.04764748737215996
1733231805130589000,1.4025888671875,0.0861319974064827,-0.21441370248794556,-0.006719517521560192
1733231805140577500,1.41257763671875,0.09040805697441101,-0.24434609711170197,-0.045204028487205505
1733231805150608400,1.4226083984375,0.09529497474431992,-0.26022860407829285,-0.0806342139840126
1733231805160566500,1.43256640625,0.09896016865968704,-0.25595253705978394,-0.10384709388017654
1733231805170597600,1.44259765625,0.09896016865968704,-0.24129177629947662,-0.11423180252313614
1733231805180586000,1.4525859375,0.10445795953273773,-0.21868975460529327,-0.11972958594560623
1733231805190617000,1.4626171875,0.11362093687057495,-0.1869247704744339,-0.11239920556545258
1733231805200575000,1.472574951171875,0.12034045159816742,-0.13927727937698364,-0.06475171446800232
1733231805210606800,1.48260693359375,0.12278391420841217,-0.1258382350206375,-0.025656340643763542
1733231805220595500,1.492595458984375,0.12828169763088226,-0.11850785464048386,-0.0012217304902151227
1733231805230596000,1.50259619140625,0.13439035415649414,-0.10567969083786011,0.013439035043120384
1733231805240584400,1.51258447265625,0.1411098688840866,-0.10445795953273773,0.022602014243602753
1733231805250615800,1.52261572265625,0.14782938361167908,-0.1258382350206375,0.03298672288656235
1733231805260573700,1.53257373046875,0.15332718193531036,-0.15393804013729095,0.045204028487205505
1733231805270604500,1.5426044921875,0.1563815027475357,-0.182648703455925,0.060475658625364304
1733231805280593200,1.55259326171875,0.16065755486488342,-0.2125810980796814,0.09529497474431992
1733231805290593500,1.562593505859375,0.16432274878025055,-0.2174680233001709,0.1319468915462494
1733231805300582100,1.57258203125,0.17104226350784302,-0.21441370248794556,0.17348572611808777
1733231805310613000,1.582613037109375,0.1765400618314743,-0.2217440903186798,0.2015855312347412
1733231805320571100,1.592571044921875,0.1771509200334549,-0.26145032048225403,0.19547687470912933
1733231805330602200,1.602602294921875,0.1722639948129654,-0.34574973583221436,0.14782938361167908
1733231805340590800,1.6125908203125,0.16920967400074005,-0.4612032473087311,0.07024950534105301
1733231805350591200,1.62259130859375,0.13072516024112701,-0.6914994716644287,-0.07941248267889023
1733231805360579600,1.63257958984375,0.08979719132184982,-0.8161159753799438,-0.18325957655906677
1733231805370610700,1.642610595703125,0.06414084881544113,-0.8723155856132507,-0.27122417092323303
1733231805380568600,1.652568603515625,0.03848451003432274,-0.8197811841964722,-0.32009339332580566
1733231805390600200,1.66260009765625,0.015882495790719986,-0.6670648455619812,-0.2968805134296417
1733231805400588300,1.67258837890625,0.004886921960860491,-0.403781920671463,-0.20036379992961884
1733231805410589000,1.6825888671875,0.001832595793530345,-0.08246681094169617,-0.0555887371301651
1733231805420577300,1.692577392578125,0.009162978269159794,0.2278527319431305,0.10384709388017654
1733231805430608100,1.702608154296875,0.03420845419168472,0.5296201705932617,0.31520646810531616
1733231805440597000,1.712596923828125,0.06536258012056351,0.6444628238677979,0.4153883755207062
1733231805450597000,1.72259716796875,0.10262536257505417,0.7092145681381226,0.46853363513946533
1733231805460585700,1.732585693359375,0.1362229436635971,0.7373143434524536,0.4605923891067505
1733231805470616600,1.742616455078125,0.1612684279680252,0.7299839854240417,0.4031710624694824
1733231805480574700,1.75257470703125,0.1771509200334549,0.665232241153717,0.31642818450927734
1733231805490605800,1.762605712890625,0.18509216606616974,0.5528330206871033,0.23029619455337524
1733231805500594200,1.77259423828125,0.18020524084568024,0.3335324227809906,0.14782938361167908
1733231805510594800,1.7825947265625,0.15821409225463867,0.14477506279945374,0.13500121235847473
1733231805520583200,1.792583251953125,0.12522737681865692,-0.042760565876960754,0.15027284622192383
1733231805530614500,1.802614501953125,0.07880161702632904,-0.21807889640331268,0.17409659922122955
1733231805540572400,1.812572509765625,0.01771509274840355,-0.36713001132011414,0.1820378452539444
1733231805550603300,1.822603271484375,-0.048258353024721146,-0.4893030524253845,0.152105450630188
1733231805560592000,1.832591796875,-0.11728613078594208,-0.607810914516449,0.08674286305904388
1733231805570592500,1.842592529296875,-0.20891591906547546,-0.7519751191139221,-0.05253441259264946
1733231805580580900,1.852580810546875,-0.2669481039047241,-0.8008443117141724,-0.15271630883216858
1733231805590611700,1.86261181640625,-0.3182607889175415,-0.7959573864936829,-0.23640485107898712
1733231805600569900,1.87256982421875,-0.3488040566444397,-0.7354817390441895,-0.2730567753314972
1733231805610600700,1.8826005859375,-0.36102136969566345,-0.5992587804794312,-0.24556782841682434
1733231805620589600,1.892589599609375,-0.35735616087913513,-0.3891211748123169,-0.1618792861700058
1733231805630590000,1.90258984375,-0.3433062732219696,-0.16004669666290283,-0.05619960278272629
1733231805640578600,1.91257861328125,-0.3170390725135803,0.033597588539123535,0.05009094998240471
1733231805650609700,1.922609619140625,-0.26450464129447937,0.20525072515010834,0.15882496535778046
1733231805660567300,1.9325673828125,-0.21930062770843506,0.2736676335334778,0.17470745742321014
1733231805670598400,1.942598388671875,-0.17592918872833252,0.33047810196876526,0.15454891324043274
1733231805680586800,1.952586669921875,-0.1459967941045761,0.3689626157283783,0.10384709388017654
1733231805690617900,1.962617919921875,-0.12522737681865692,0.39156460762023926,0.03176499158143997
1733231805700576000,1.972575927734375,-0.1111774742603302,0.39584067463874817,-0.0507018156349659
1733231805710606800,1.98260693359375,-0.10751228034496307,0.3744603991508484,-0.1313360333442688
1733231805720595500,1.992595458984375,-0.12522737681865692,0.30115658044815063,-0.20830504596233368
1733231805730595800,2.002595947265625,-0.1362229436635971,0.2590068578720093,-0.2278527319431305
1733231805740584400,2.01258447265625,-0.15332718193531036,0.21502456068992615,-0.22968533635139465
1733231805750615600,2.022615478515625,-0.1722639948129654,0.17898350954055786,-0.21441370248794556
1733231805760573400,2.032573486328125,-0.19120082259178162,0.15271630883216858,-0.18448130786418915
1733231805770604800,2.042604736328125,-0.2064724564552307,0.12889257073402405,-0.15271630883216858
1733231805780593000,2.052593017578125,-0.21807889640331268,0.1007927656173706,-0.12950342893600464
1733231805790593500,2.062593505859375,-0.22479841113090515,0.051312681287527084,-0.09773843735456467
1733231805800582000,2.072581787109375,-0.23029619455337524,0.019547687843441963,-0.09162978827953339
1733231805810613200,2.08261328125,-0.2321287989616394,0.01038470957428217,-0.10018189996480942
1733231805820571100,2.092571044921875,-0.23029619455337524,0.012828170321881771,-0.11972958594560623
1733231805830632200,2.102632080078125,-0.2278527319431305,0.018936822190880775,-0.1362229436635971
1733231805840590600,2.112590576171875,-0.22296582162380219,0.03176499158143997,-0.13927727937698364
1733231805850591500,2.122591552734375,-0.21380282938480377,0.04703662544488907,-0.12461651116609573
1733231805860579600,2.13257958984375,-0.2028072625398636,0.0659734457731247,-0.08979719132184982
1733231805870610700,2.142610595703125,-0.182648703455925,0.10384709388017654,-0.013439035043120384
1733231805880568600,2.152568603515625,-0.1661553531885147,0.12889257073402405,0.03787364438176155
1733231805890599700,2.162599609375,-0.1472185254096985,0.1563815027475357,0.08491026610136032
1733231805900588300,2.17258837890625,-0.1270599663257599,0.1820378452539444,0.12522737681865692
1733231805910588700,2.182588623046875,-0.11056660860776901,0.18509216606616974,0.14844025671482086
1733231805920577300,2.192577392578125,-0.09529497474431992,0.16371189057826996,0.15760323405265808
1733231805930608400,2.2026083984375,-0.08185594528913498,0.12767083942890167,0.16249015927314758
1733231805940596700,2.2125966796875,-0.06841690838336945,0.04642575979232788,0.16249015927314758
1733231805950597000,2.22259716796875,-0.05925392732024193,-0.001832595793530345,0.16004669666290283
1733231805960585700,2.232585693359375,-0.0555887371301651,-0.05314527451992035,0.16004669666290283
1733231805970616800,2.242616943359375,-0.054367005825042725,-0.10934487730264664,0.16859880089759827
1733231805980574700,2.25257470703125,-0.05619960278272629,-0.14782938361167908,0.18875735998153687
1733231805990605800,2.262605712890625,-0.059864792972803116,-0.1569923609495163,0.22052235901355743
1733231806000594200,2.27259423828125,-0.06902777403593063,-0.13500121235847473,0.25045475363731384
1733231806010594800,2.2825947265625,-0.08918632566928864,-0.056810468435287476,0.2565633952617645
1733231806020583400,2.29258349609375,-0.10995574295520782,-0.006719517521560192,0.21563543379306793
1733231806030614500,2.302614501953125,-0.13866640627384186,-0.018936822190880775,0.11484266817569733
1733231806040572400,2.312572509765625,-0.16371189057826996,-0.1160643994808197,-0.06902777403593063
1733231806050603800,2.322603759765625,-0.18448130786418915,-0.28955012559890747,-0.2926044464111328
1733231806060592000,2.332592041015625,-0.1966986060142517,-0.5143485069274902,-0.45753806829452515
1733231806070593000,2.342593017578125,-0.19486601650714874,-0.6969972252845764,-0.4960225820541382
1733231806080581000,2.3525810546875,-0.18387043476104736,-0.7531968355178833,-0.4184426963329315
1733231806090612700,2.36261279296875,-0.15760323405265808,-0.5241223573684692,-0.18081611394882202
1733231806100569900,2.37256982421875,-0.14538592100143433,-0.23518311977386475,-0.012217304669320583
1733231806110599700,2.382599609375,-0.13561208546161652,0.05497787147760391,0.12828169763088226
1733231806120588300,2.39258837890625,-0.12095131725072861,0.30482175946235657,0.23640485107898712
1733231806130588700,2.402588623046875,-0.09468411654233932,0.4807509481906891,0.3219259977340698
1733231806140577300,2.412577392578125,-0.05253441259264946,0.588263213634491,0.39584067463874817
1733231806150608600,2.422608642578125,-0.01771509274840355,0.6401867866516113,0.44654250144958496
1733231806160566500,2.43256640625,0.03420845419168472,0.5925393104553223,0.46181413531303406
1733231806170596600,2.4425966796875,0.07147123664617538,0.4954117238521576,0.4239404797554016
1733231806180586000,2.4525859375,0.09346238523721695,0.3628539443016052,0.3689626157283783
1733231806190617000,2.4626171875,0.09896016865968704,0.2064724564552307,0.3127630054950714
1733231806200575200,2.4725751953125,0.08735372871160507,0.04459316283464432,0.2724458873271942
1733231806210606800,2.48260693359375,0.07024950534105301,-0.09651670604944229,0.2474004179239273
1733231806220595500,2.492595458984375,0.05009094998240471,-0.19608774781227112,0.23273965716362
1733231806230596000,2.50259619140625,0.02687807008624077,-0.24495697021484375,0.22357667982578278
1733231806240584400,2.51258447265625,0.006108652334660292,-0.22846360504627228,0.20525072515010834
1733231806250614800,2.52261474609375,-0.00855211354792118,-0.21319197118282318,0.16859880089759827
1733231806260573400,2.532573486328125,-0.015271631069481373,-0.19120082259178162,0.11667526513338089
1733231806270604300,2.542604248046875,-0.018325956538319588,-0.16493362188339233,0.06169738993048668
1733231806280593200,2.55259326171875,-0.010995574295520782,-0.14233160018920898,0.014049900695681572
1733231806290593500,2.562593505859375,0.0024434609804302454,-0.12217304855585098,-0.022602014243602753
1733231806300582000,2.572581787109375,0.021991148591041565,-0.11301007121801376,-0.039095375686883926
1733231806310613000,2.582613037109375,0.04764748737215996,-0.10018189996480942,-0.01710422709584236
1733231806320571100,2.592571044921875,0.06230825558304787,-0.09224065393209457,0.019547687843441963
1733231806330601700,2.602601806640625,0.07941248267889023,-0.07880161702632904,0.05619960278272629
1733231806340590600,2.612590576171875,0.08735372871160507,-0.06536258012056351,0.08674286305904388
1733231806350591200,2.62259130859375,0.08918632566928864,-0.06475171446800232,0.09834930300712585
1733231806360579600,2.63257958984375,0.08979719132184982,-0.07757988572120667,0.08918632566928864
1733231806370610700,2.642610595703125,0.08246681094169617,-0.1062905490398407,0.06108652427792549
1733231806380568600,2.652568603515625,0.06169738993048668,-0.16310101747512817,0.009773843921720982
1733231806390599400,2.662599365234375,0.04642575979232788,-0.19120082259178162,-0.01710422709584236
1733231806400588300,2.67258837890625,0.03176499158143997,-0.19975294172763824,-0.039095375686883926
1733231806410588700,2.682588623046875,0.01710422709584236,-0.18387043476104736,-0.0507018156349659
1733231806420577300,2.692577392578125,0.00366519158706069,-0.1563815027475357,-0.05925392732024193
1733231806430608100,2.702608154296875,-0.006108652334660292,-0.1313360333442688,-0.07330382615327835
1733231806440596700,2.7125966796875,-0.009162978269159794,-0.11728613078594208,-0.09896016865968704
1733231806450597000,2.72259716796875,-0.001832595793530345,-0.12217304855585098,-0.13866640627384186
1733231806460585700,2.732585693359375,0.009162978269159794,-0.13072516024112701,-0.15821409225463867
1733231806470616600,2.742616455078125,0.015271631069481373,-0.13439035415649414,-0.1661553531885147
1733231806480574700,2.75257470703125,0.02382374368607998,-0.13072516024112701,-0.16310101747512817
1733231806490605800,2.762605712890625,0.031154127791523933,-0.11667526513338089,-0.15577064454555511
1733231806500594400,2.772594482421875,0.03726277872920036,-0.09285151958465576,-0.14416420459747314
1733231806510594800,2.7825947265625,0.04398229718208313,-0.06169738993048668,-0.12889257073402405
1733231806520583200,2.792583251953125,0.04337143152952194,-0.02321287989616394,-0.1160643994808197
1733231806530614300,2.8026142578125,0.0403171069920063,0.031154127791523933,-0.11545353382825851
1733231806540572400,2.812572509765625,0.039095375686883926,0.048258353024721146,-0.12461651116609573
1733231806550603300,2.822603271484375,0.03787364438176155,0.045204028487205505,-0.14049901068210602
1733231806560592000,2.832591796875,0.04092797264456749,0.02871066704392433,-0.1514945775270462
1733231806570592500,2.842592529296875,0.04214970022439957,-0.004886921960860491,-0.152105450630188
1733231806580580900,2.852580810546875,0.04642575979232788,-0.0403171069920063,-0.13439035415649414
1733231806590612000,2.862612060546875,0.048258353024721146,-0.07452555745840073,-0.10384709388017654
1733231806600569900,2.87256982421875,0.05253441259264946,-0.11239920556545258,-0.05864306539297104
1733231806610601000,2.88260107421875,0.05742133408784866,-0.1319468915462494,-0.02871066704392433
1733231806620589300,2.89258935546875,0.06291911751031876,-0.1459967941045761,0.0006108652451075613
1733231806630590000,2.90258984375,0.06719517707824707,-0.14782938361167908,0.027488935738801956
1733231806640578600,2.91257861328125,0.06658431142568588,-0.15393804013729095,0.04581489413976669
1733231806650609700,2.922609619140625,0.06963863968849182,-0.16004669666290283,0.04886921867728233
1733231806660567600,2.932567626953125,0.07635815441608429,-0.1667662113904953,0.04886921867728233
1733231806670598700,2.9425986328125,0.08429940044879913,-0.17409659922122955,0.05497787147760391
1733231806680587000,2.9525869140625,0.09407325088977814,-0.19608774781227112,0.07330382615327835
1733231806690617900,2.962617919921875,0.09712757170200348,-0.22907446324825287,0.10690141469240189
1733231806700576000,2.972575927734375,0.1007927656173706,-0.251676470041275,0.13927727937698364
1733231806710607000,2.982607177734375,0.10445795953273773,-0.2632829248905182,0.1716531366109848
1733231806720595500,2.992595458984375,0.1111774742603302,-0.26572638750076294,0.2021963894367218
1733231806730596000,3.00259619140625,0.12400564551353455,-0.23457226157188416,0.21807889640331268
1733231806740584400,3.01258447265625,0.13866640627384186,-0.19120082259178162,0.22052235901355743
1733231806750615800,3.02261572265625,0.15393804013729095,-0.17043140530586243,0.18631389737129211
1733231806760573700,3.03257373046875,0.1563815027475357,-0.1973094791173935,0.11545353382825851
1733231806770604300,3.042604248046875,0.1466076523065567,-0.2736676335334778,0.00855211354792118
1733231806780593200,3.05259326171875,0.11911872029304504,-0.39584067463874817,-0.11667526513338089
1733231806790593500,3.062593505859375,0.09162978827953339,-0.5363397002220154,-0.21868975460529327
1733231806800582100,3.07258203125,0.06963863968849182,-0.6591235995292664,-0.2767219543457031
1733231806810613500,3.082613525390625,0.0403171069920063,-0.7165449261665344,-0.2669481039047241
1733231806820571100,3.092571044921875,0.0006108652451075613,-0.6762278079986572,-0.1508837193250656
1733231806830602500,3.1026025390625,-0.014049900695681572,-0.5510004758834839,-0.016493361443281174
1733231806840590600,3.112590576171875,-0.03481931984424591,-0.33597588539123535,0.1508837193250656
1733231806850591200,3.12259130859375,-0.05497787147760391,-0.051312681287527084,0.3090978264808655
1733231806860579600,3.13257958984375,-0.048258353024721146,0.19914206862449646,0.41233405470848083
1733231806870610400,3.1426103515625,-0.02932153269648552,0.38728857040405273,0.4642575979232788
1733231806880568600,3.152568603515625,-0.01038470957428217,0.4996877610683441,0.455705463886261
1733231806890599200,3.16259912109375,0.00733038317412138,0.5577199459075928,0.3927863538265228
1733231806900588000,3.172588134765625,0.03726277872920036,0.5424483418464661,0.23518311977386475
1733231806910588200,3.182588134765625,0.029932396486401558,0.43615779280662537,0.11239920556545258
1733231806920577300,3.192577392578125,0.025656340643763542,0.2877175211906433,0.0012217304902151227
1733231806930607400,3.202607421875,-0.012217304669320583,0.10262536257505417,-0.0959058403968811
1733231806940597000,3.212596923828125,-0.06108652427792549,-0.05742133408784866,-0.1569923609495163
1733231806950597000,3.22259716796875,-0.11362093687057495,-0.18814650177955627,-0.18570303916931152
1733231806960585700,3.232585693359375,-0.16920967400074005,-0.28466320037841797,-0.18997909128665924
1733231806970616800,3.242616943359375,-0.2638937830924988,-0.4043927788734436,-0.14049901068210602
1733231806980574700,3.25257470703125,-0.32070425152778625,-0.47830748558044434,-0.11301007121801376
1733231806990605800,3.262605712890625,-0.3646865487098694,-0.49785518646240234,-0.10567969083786011
1733231807000594400,3.272594482421875,-0.40256020426750183,-0.44287729263305664,-0.11484266817569733
1733231807010594800,3.2825947265625,-0.42577308416366577,-0.3335324227809906,-0.1258382350206375
1733231807020583400,3.29258349609375,-0.44104471802711487,-0.19792033731937408,-0.13072516024112701
1733231807030614500,3.302614501953125,-0.4386012554168701,-0.05314527451992035,-0.12828169763088226
1733231807040572400,3.312572509765625,-0.4147774875164032,0.16310101747512817,-0.1215621829032898
1733231807050603800,3.322603759765625,-0.3830125033855438,0.2785545587539673,-0.1258382350206375
1733231807060592000,3.332592041015625,-0.34208452701568604,0.33719760179519653,-0.13561208546161652
1733231807070592500,3.342592529296875,-0.2968805134296417,0.3530801236629486,-0.1472185254096985
1733231807080581000,3.3525810546875,-0.2480112910270691,0.35124751925468445,-0.16554448008537292
1733231807090612000,3.362612060546875,-0.2064724564552307,0.3439171314239502,-0.1722639948129654
1733231807100570000,3.372570068359375,-0.1716531366109848,0.34025195240974426,-0.16493362188339233
1733231807110599200,3.38259912109375,-0.14782938361167908,0.323147714138031,-0.1514945775270462
1733231807120588500,3.392588623046875,-0.13072516024112701,0.29993483424186707,-0.12889257073402405
1733231807130589000,3.4025888671875,-0.1270599663257599,0.2822197377681732,-0.11911872029304504
1733231807140577500,3.41257763671875,-0.13377949595451355,0.24678955972194672,-0.12339477986097336
1733231807150608600,3.422608642578125,-0.1466076523065567,0.2064724564552307,-0.1362229436635971
1733231807160566500,3.43256640625,-0.1667662113904953,0.16493362188339233,-0.1459967941045761
1733231807170597600,3.44259765625,-0.18387043476104736,0.11911872029304504,-0.15332718193531036
1733231807180586000,3.4525859375,-0.20341812074184418,0.06414084881544113,-0.16310101747512817
1733231807190617300,3.462617431640625,-0.22357667982578278,-0.006719517521560192,-0.16859880089759827
1733231807200575200,3.4725751953125,-0.23579397797584534,-0.03237585723400116,-0.16004669666290283
1733231807210607000,3.482607177734375,-0.24556782841682434,-0.0403171069920063,-0.14477506279945374
1733231807220595500,3.492595458984375,-0.2535090744495392,-0.03420845419168472,-0.12767083942890167
1733231807230596000,3.50259619140625,-0.2535090744495392,-0.0006108652451075613,-0.10751228034496307
1733231807240584400,3.51258447265625,-0.24495697021484375,0.05253441259264946,-0.07513642311096191
1733231807250615800,3.52261572265625,-0.2321287989616394,0.1062905490398407,-0.029932396486401558
1733231807260573400,3.532573486328125,-0.20586158335208893,0.16432274878025055,0.05009094998240471
1733231807270604800,3.542604736328125,-0.18631389737129211,0.18814650177955627,0.10323622822761536
1733231807280593000,3.552593017578125,-0.1661553531885147,0.19608774781227112,0.1472185254096985
1733231807290593500,3.562593505859375,-0.1472185254096985,0.18631389737129211,0.17470745742321014
1733231807300582100,3.57258203125,-0.12889257073402405,0.15393804013729095,0.1918116807937622
1733231807310613000,3.582613037109375,-0.11178833991289139,0.11178833991289139,0.1869247704744339
1733231807320571100,3.592571044921875,-0.09896016865968704,0.06475171446800232,0.17898350954055786
1733231807330602200,3.602602294921875,-0.08796459436416626,0.021991148591041565,0.1765400618314743
1733231807340590600,3.612590576171875,-0.07757988572120667,-0.039706241339445114,0.18509216606616974
1733231807350591200,3.62259130859375,-0.07513642311096191,-0.06841690838336945,0.2028072625398636
1733231807360579600,3.63257958984375,-0.07452555745840073,-0.07819075137376785,0.2376265823841095
1733231807370610400,3.6426103515625,-0.08002334833145142,-0.06963863968849182,0.2791654169559479
1733231807380568600,3.652568603515625,-0.08979719132184982,-0.048258353024721146,0.31459560990333557
1733231807390599700,3.662599609375,-0.09712757170200348,-0.009162978269159794,0.3335324227809906
1733231807400588300,3.67258837890625,-0.10384709388017654,0.03787364438176155,0.32986724376678467
1733231807410588700,3.682588623046875,-0.11362093687057495,0.07880161702632904,0.2730567753314972
1733231807420577300,3.692577392578125,-0.1215621829032898,0.02932153269648552,0.16859880089759827
1733231807430608400,3.7026083984375,-0.13561208546161652,-0.10445795953273773,-0.01160643994808197
1733231807440596700,3.7125966796875,-0.14355333149433136,-0.29993483424186707,-0.22907446324825287
1733231807450597000,3.72259716796875,-0.13866640627384186,-0.513126790523529,-0.384845107793808
1733231807460586000,3.7325859375,-0.13255776464939117,-0.6499606370925903,-0.42760565876960754
1733231807470617300,3.742617431640625,-0.12889257073402405,-0.6670648455619812,-0.38117989897727966
1733231807480574700,3.75257470703125,-0.11545353382825851,-0.40744712948799133,-0.1973094791173935
1733231807490606300,3.7626064453125,-0.11056660860776901,-0.12339477986097336,-0.05497787147760391
1733231807500594200,3.77259423828125,-0.12034045159816742,0.17348572611808777,0.07819075137376785
1733231807510595000,3.782594970703125,-0.11301007121801376,0.4398229718208313,0.19303341209888458
1733231807520583400,3.79258349609375,-0.07391469180583954,0.6047565937042236,0.29626965522766113
1733231807530614500,3.802614501953125,-0.01710422709584236,0.6921103000640869,0.38728857040405273
1733231807540572400,3.812572509765625,0.022602014243602753,0.7409795522689819,0.45265114307403564
1733231807550602800,3.822602783203125,0.06108652427792549,0.7312057018280029,0.46792277693748474
1733231807560592100,3.832592041015625,0.11239920556545258,0.5998696684837341,0.4147774875164032
1733231807570591700,3.842591796875,0.1270599663257599,0.4392121136188507,0.3530801236629486
1733231807580580900,3.852580810546875,0.12522737681865692,0.23518311977386475,0.2883284091949463
1733231807590611700,3.86261181640625,0.10934487730264664,0.00366519158706069,0.23579397797584534
1733231807600569900,3.87256982421875,0.08368854224681854,-0.21135938167572021,0.19792033731937408
1733231807610601000,3.88260107421875,0.054367005825042725,-0.35185837745666504,0.15821409225463867
1733231807620589300,3.89258935546875,0.02871066704392433,-0.4092797040939331,0.11301007121801376
1733231807630590000,3.90258984375,-0.010995574295520782,-0.3927863538265228,0.03848451003432274
1733231807640578600,3.91257861328125,-0.03420845419168472,-0.3634648323059082,-0.01771509274840355
1733231807650609400,3.922609375,-0.04948008432984352,-0.34025195240974426,-0.07024950534105301
1733231807660567300,3.9325673828125,-0.05619960278272629,-0.33536502718925476,-0.12522737681865692
1733231807670598400,3.942598388671875,-0.059864792972803116,-0.3646865487098694,-0.16920967400074005
1733231807680586800,3.952586669921875,-0.05742133408784866,-0.4190535545349121,-0.19608774781227112
1733231807690617900,3.962617919921875,-0.042760565876960754,-0.45875978469848633,-0.18936823308467865
1733231807700576000,3.972575927734375,-0.022602014243602753,-0.44226643443107605,-0.11301007121801376
1733231807710607000,3.982607177734375,-0.00733038317412138,-0.38117989897727966,-0.03237585723400116
1733231807720595500,3.992595458984375,0.00733038317412138,-0.2816088795661926,0.04703662544488907
1733231807730596000,4.00259619140625,0.02076941914856434,-0.16310101747512817,0.10567969083786011
1733231807740584700,4.012584716796875,0.02871066704392433,-0.05253441259264946,0.12461651116609573
1733231807750615800,4.02261572265625,0.03420845419168472,0.02932153269648552,0.0861319974064827
1733231807760573400,4.032573486328125,0.04214970022439957,0.08124507963657379,0.009162978269159794
1733231807770604800,4.042604736328125,0.05009094998240471,0.10934487730264664,-0.07819075137376785
1733231807780593000,4.052593017578125,0.04581489413976669,0.09834930300712585,-0.192422553896904
1733231807790593500,4.062593505859375,0.04398229718208313,0.05009094998240471,-0.23579397797584534
1733231807800582100,4.07258203125,0.04337143152952194,-0.009162978269159794,-0.25106561183929443
1733231807810613000,4.082613037109375,0.04459316283464432,-0.05925392732024193,-0.24190263450145721
1733231807820571100,4.092571044921875,0.04581489413976669,-0.1007927656173706,-0.2125810980796814
1733231807830632400,4.102632568359375,0.045204028487205505,-0.13988813757896423,-0.1716531366109848
1733231807840590800,4.1125908203125,0.0507018156349659,-0.1722639948129654,-0.14049901068210602
1733231807850591000,4.122591064453125,0.05864306539297104,-0.1875356286764145,-0.1215621829032898
1733231807860579600,4.13257958984375,0.06658431142568588,-0.1716531366109848,-0.13377949595451355
1733231807870610400,4.1426103515625,0.07635815441608429,-0.14355333149433136,-0.15943582355976105
1733231807880568600,4.152568603515625,0.0861319974064827,-0.11362093687057495,-0.17959438264369965
1733231807890599700,4.162599609375,0.09346238523721695,-0.08735372871160507,-0.19364428520202637
1733231807900588300,4.17258837890625,0.10018189996480942,-0.07391469180583954,-0.19303341209888458
1733231807910589000,4.1825888671875,0.10873401165008545,-0.06719517707824707,-0.17409659922122955
1733231807920577300,4.192577392578125,0.11911872029304504,-0.06475171446800232,-0.13927727937698364
1733231807930608400,4.2026083984375,0.13011430203914642,-0.07941248267889023,-0.0757472887635231
1733231807940597000,4.212596923828125,0.1362229436635971,-0.08979719132184982,-0.04092797264456749
1733231807950597600,4.22259765625,0.1417207419872284,-0.09468411654233932,-0.014049900695681572
1733231807960586000,4.2325859375,0.1472185254096985,-0.10201449692249298,0.0012217304902151227
1733231807970616800,4.242616943359375,0.1472185254096985,-0.11178833991289139,0.01466076634824276
1733231807980575000,4.252574951171875,0.1459967941045761,-0.1215621829032898,0.033597588539123535
1733231807990605800,4.262605712890625,0.14355333149433136,-0.13377949595451355,0.05009094998240471
1733231808000594400,4.272594482421875,0.13500121235847473,-0.13927727937698364,0.059864792972803116
1733231808010594800,4.2825947265625,0.12278391420841217,-0.13744467496871948,0.05925392732024193
1733231808020583400,4.29258349609375,0.10995574295520782,-0.1368338167667389,0.06230825558304787
1733231808030614500,4.302614501953125,0.09346238523721695,-0.15027284622192383,0.07880161702632904
1733231808040572400,4.312572509765625,0.07513642311096191,-0.16737708449363708,0.11178833991289139
1733231808050603500,4.322603515625,0.05314527451992035,-0.18325957655906677,0.1569923609495163
1733231808060592000,4.332592041015625,0.03298672288656235,-0.19120082259178162,0.20525072515010834
1733231808070592500,4.342592529296875,0.012828170321881771,-0.21135938167572021,0.2779437005519867
1733231808080581000,4.3525810546875,0.004886921960860491,-0.2168571650981903,0.3127630054950714
1733231808090611700,4.36261181640625,0.0024434609804302454,-0.20952677726745605,0.32498031854629517
1733231808100569900,4.37256982421875,0.010995574295520782,-0.19120082259178162,0.31459560990333557
1733231808110599200,4.38259912109375,0.021991148591041565,-0.16371189057826996,0.2681698501110077
1733231808120588300,4.39258837890625,0.03298672288656235,-0.13561208546161652,0.1814269721508026
1733231808130589000,4.4025888671875,0.03848451003432274,-0.1820378452539444,0.048258353024721146
1733231808140577500,4.41257763671875,0.02687807008624077,-0.375071257352829,-0.13316862285137177
1733231808150608600,4.422608642578125,-0.03298672288656235,-0.8912523984909058,-0.43249258399009705
1733231808160566500,4.43256640625,-0.05619960278272629,-1.207069754600525,-0.5455026626586914
1733231808170598100,4.44259814453125,-0.09040805697441101,-1.3952162265777588,-0.5455026626586914
1733231808180586200,4.452586181640625,-0.1362229436635971,-1.4062118530273438,-0.4105014503002167
1733231808190617600,4.46261767578125,-0.16493362188339233,-1.254717230796814,-0.17837265133857727
1733231808200575200,4.4725751953125,-0.19425514340400696,-0.9572258591651917,0.09468411654233932
1733231808210607400,4.482607421875,-0.23273965716362,-0.5705481171607971,0.3646865487098694
1733231808220595500,4.492595458984375,-0.2278527319431305,0.00855211354792118,0.685390830039978
1733231808230595800,4.502595947265625,-0.17776179313659668,0.27977627515792847,0.7770205736160278
1733231808240584400,4.51258447265625,-0.11789698898792267,0.4856378734111786,0.7831292152404785
1733231808250615600,4.522615478515625,-0.05742133408784866,0.6243042945861816,0.6957755088806152
1733231808260573700,4.53257373046875,-0.0006108652451075613,0.6792821288108826,0.5338962078094482
1733231808270606600,4.542606689453125,0.04642575979232788,0.636521577835083,0.32498031854629517
1733231808280593000,4.552593017578125,0.08491026610136032,0.5558874011039734,0.13866640627384186
1733231808290593500,4.562593505859375,0.07269296050071716,0.2687807083129883,-0.09224065393209457
1733231808300582100,4.57258203125,0.05253441259264946,0.07880161702632904,-0.1667662113904953
1733231808310612500,4.582612548828125,-0.006108652334660292,-0.0959058403968811,-0.18020524084568024
1733231808320571100,4.592571044921875,-0.07513642311096191,-0.22296582162380219,-0.15943582355976105
1733231808330602200,4.602602294921875,-0.14416420459747314,-0.3029891550540924,-0.12950342893600464
1733231808340590800,4.6125908203125,-0.2064724564552307,-0.34208452701568604,-0.08552113175392151
1733231808350591500,4.622591552734375,-0.26511552929878235,-0.36102136969566345,-0.025656340643763542
1733231808360579600,4.63257958984375,-0.3243694305419922,-0.3481931984424591,0.018936822190880775
1733231808370610400,4.6426103515625,-0.3683517575263977,-0.20402899384498596,0.042760565876960754
1733231808380568600,4.652568603515625,-0.3732386529445648,-0.05497787147760391,0.02076941914856434
1733231808390600000,4.662599853515625,-0.3549126982688904,0.08918632566928864,-0.018936822190880775
1733231808400588300,4.67258837890625,-0.3188716471195221,0.21563543379306793,-0.048258353024721146
1733231808410589000,4.6825888671875,-0.27977627515792847,0.31093040108680725,-0.06841690838336945
1733231808420577300,4.692577392578125,-0.23151792585849762,0.3781255781650543,-0.0806342139840126
1733231808430608100,4.702608154296875,-0.17898350954055786,0.3927863538265228,-0.08857546001672745
1733231808440597000,4.712596923828125,-0.0959058403968811,0.35246923565864563,-0.09834930300712585
1733231808450597000,4.72259716796875,-0.045204028487205505,0.3170390725135803,-0.1062905490398407
1733231808460585700,4.732585693359375,-0.01038470957428217,0.2816088795661926,-0.11545353382825851
1733231808470616600,4.742616455078125,0.016493361443281174,0.25961771607398987,-0.13072516024112701
1733231808480575000,4.752574951171875,0.03176499158143997,0.24556782841682434,-0.14233160018920898
1733231808490605800,4.762605712890625,0.03726277872920036,0.22479841113090515,-0.1459967941045761
1733231808500594200,4.77259423828125,0.03176499158143997,0.1973094791173935,-0.1514945775270462
1733231808510594800,4.7825947265625,0.009773843921720982,0.16859880089759827,-0.1716531366109848
1733231808520583400,4.79258349609375,-0.00733038317412138,0.1569923609495163,-0.19058994948863983
1733231808530614300,4.8026142578125,-0.021380282938480377,0.1362229436635971,-0.20891591906547546
1733231808540572400,4.812572509765625,-0.0354301854968071,0.10751228034496307,-0.22418753802776337
1733231808550603500,4.822603515625,-0.04642575979232788,0.07330382615327835,-0.2272418737411499
1733231808560592000,4.832591796875,-0.05864306539297104,0.05009094998240471,-0.22357667982578278
1733231808570592500,4.842592529296875,-0.06780604273080826,0.0354301854968071,-0.21135938167572021
1733231808580580600,4.85258056640625,-0.07452555745840073,0.02871066704392433,-0.192422553896904
1733231808590611700,4.86261181640625,-0.08002334833145142,0.05192354694008827,-0.1472185254096985
1733231808600569900,4.87256982421875,-0.08307767659425735,0.07513642311096191,-0.10995574295520782
1733231808610601000,4.88260107421875,-0.08429940044879913,0.10384709388017654,-0.07391469180583954
1733231808620589600,4.892589599609375,-0.08429940044879913,0.14477506279945374,-0.04337143152952194
1733231808630590000,4.90258984375,-0.08796459436416626,0.182648703455925,-0.018936822190880775
1733231808640578600,4.91257861328125,-0.08796459436416626,0.20891591906547546,-0.003054326167330146
1733231808650609700,4.922609619140625,-0.08735372871160507,0.2125810980796814,0.005497787147760391
1733231808660567600,4.932567626953125,-0.08674286305904388,0.20525072515010834,0.00855211354792118
1733231808670598400,4.942598388671875,-0.08368854224681854,0.1966986060142517,0.009773843921720982
1733231808680586800,4.952586669921875,-0.0806342139840126,0.17837265133857727,0.022602014243602753
1733231808690617900,4.962617919921875,-0.07635815441608429,0.15027284622192383,0.04214970022439957
1733231808700576000,4.972575927734375,-0.06841690838336945,0.11362093687057495,0.059864792972803116
1733231808710607000,4.982607177734375,-0.06230825558304787,0.07269296050071716,0.07513642311096191
1733231808720595500,4.992595458984375,-0.06230825558304787,0.0354301854968071,0.0959058403968811
1733231808730596000,5.00259619140625,-0.060475658625364304,-0.01466076634824276,0.1313360333442688
1733231808740584700,5.012584716796875,-0.06352998316287994,-0.039095375686883926,0.15577064454555511
1733231808750615300,5.022615234375,-0.0708603709936142,-0.048258353024721146,0.18325957655906677
1733231808760573700,5.03257373046875,-0.07880161702632904,-0.02871066704392433,0.20402899384498596
1733231808770604500,5.0426044921875,-0.08307767659425735,0.031154127791523933,0.21807889640331268
1733231808780593000,5.052593017578125,-0.08796459436416626,0.10201449692249298,0.21991148591041565
1733231808790593500,5.062593505859375,-0.09773843735456467,0.16920967400074005,0.2015855312347412
1733231808800582100,5.07258203125,-0.10506882518529892,0.17104226350784302,0.1514945775270462
1733231808810613000,5.082613037109375,-0.11423180252313614,0.02076941914856434,-0.036651913076639175
1733231808820571100,5.092571044921875,-0.1111774742603302,-0.15332718193531036,-0.23090706765651703
1733231808830602200,5.102602294921875,-0.10506882518529892,-0.3536909818649292,-0.3903428912162781
1733231808840590600,5.112590576171875,-0.09346238523721695,-0.4893030524253845,-0.4550946056842804
1733231808850591700,5.122591796875,-0.09529497474431992,-0.5387831330299377,-0.42577308416366577
1733231808860579600,5.13257958984375,-0.09468411654233932,-0.4948008358478546,-0.303600013256073
1733231808870611200,5.142611083984375,-0.09896016865968704,-0.35613444447517395,-0.14294247329235077
1733231808880568800,5.15256884765625,-0.11728613078594208,-0.033597588539123535,0.08491026610136032
1733231808890600400,5.162600341796875,-0.11056660860776901,0.24129177629947662,0.2076941877603531
1733231808900588000,5.172588134765625,-0.07941248267889023,0.5027421116828918,0.2987131178379059
1733231808910588700,5.182588623046875,-0.027488935738801956,0.6896668672561646,0.3787364661693573
1733231808920577300,5.192577392578125,0.018936822190880775,0.8234463334083557,0.45204028487205505
1733231808930608400,5.2026083984375,0.05253441259264946,0.9089674949645996,0.5009095072746277
1733231808940597000,5.212596923828125,0.08674286305904388,0.9297369122505188,0.5106833577156067
1733231808950597400,5.222597412109375,0.12278391420841217,0.8161159753799438,0.46181413531303406
1733231808960586000,5.2325859375,0.13439035415649414,0.6609562039375305,0.4190535545349121
1733231808970616300,5.2426162109375,0.13011430203914642,0.4660901725292206,0.38179078698158264
1733231808980575000,5.252574951171875,0.11850785464048386,0.26145032048225403,0.36102136969566345
1733231808990605800,5.262605712890625,0.08124507963657379,0.059864792972803116,0.3530801236629486
1733231809000594200,5.27259423828125,0.039095375686883926,-0.08918632566928864,0.3481931984424591
1733231809010594800,5.2825947265625,-0.0024434609804302454,-0.1918116807937622,0.32681289315223694
1733231809020583400,5.29258349609375,-0.027488935738801956,-0.251676470041275,0.2736676335334778
1733231809030614500,5.302614501953125,-0.0708603709936142,-0.2742784917354584,0.15271630883216858
1733231809040572400,5.312572509765625,-0.09896016865968704,-0.27977627515792847,0.08124507963657379
1733231809050603500,5.322603515625,-0.12034045159816742,-0.2791654169559479,0.028099801391363144
1733231809060592000,5.332592041015625,-0.1459967941045761,-0.2730567753314972,-0.006108652334660292
1733231809070592500,5.342592529296875,-0.16859880089759827,-0.2431243658065796,-0.03237585723400116
1733231809080581000,5.3525810546875,-0.182648703455925,-0.19547687470912933,-0.045204028487205505
1733231809090612000,5.362612060546875,-0.18936823308467865,-0.13988813757896423,-0.03848451003432274
1733231809100569900,5.37256982421875,-0.18325957655906677,-0.04886921867728233,0.021991148591041565
1733231809110599200,5.38259912109375,-0.17470745742321014,0.00855211354792118,0.08185594528913498
1733231809120588300,5.39258837890625,-0.16737708449363708,0.05009094998240471,0.14477506279945374
1733231809130589200,5.402589111328125,-0.1563815027475357,0.0507018156349659,0.19425514340400696
1733231809140577300,5.412577392578125,-0.13988813757896423,0.028099801391363144,0.22540926933288574
1733231809150608600,5.422608642578125,-0.12889257073402405,-0.015882495790719986,0.24495697021484375
1733231809160566500,5.43256640625,-0.1215621829032898,-0.08796459436416626,0.24617868661880493
1733231809170597600,5.44259765625,-0.11423180252313614,-0.1973094791173935,0.2015855312347412
1733231809180586000,5.4525859375,-0.11301007121801376,-0.2638937830924988,0.14905111491680145
1733231809190617000,5.4626171875,-0.11423180252313614,-0.32131510972976685,0.08857546001672745
1733231809200575000,5.472574951171875,-0.12278391420841217,-0.3634648323059082,0.029932396486401558
1733231809210607000,5.482607177734375,-0.12950342893600464,-0.394008070230484,-0.015271631069481373
1733231809220595500,5.492595458984375,-0.13561208546161652,-0.4050036668777466,-0.0507018156349659
1733231809230596000,5.50259619140625,-0.14294247329235077,-0.3891211748123169,-0.08368854224681854
1733231809240584700,5.512584716796875,-0.14477506279945374,-0.36713001132011414,-0.11362093687057495
1733231809250615600,5.522615478515625,-0.13988813757896423,-0.31520646810531616,-0.14416420459747314
1733231809260573400,5.532573486328125,-0.1313360333442688,-0.28466320037841797,-0.14294247329235077
1733231809270604500,5.5426044921875,-0.12278391420841217,-0.27488934993743896,-0.12461651116609573
1733231809280593000,5.552593017578125,-0.11545353382825851,-0.26511552929878235,-0.09834930300712585
1733231809290593500,5.562593505859375,-0.10506882518529892,-0.23884831368923187,-0.07513642311096191
1733231809300582100,5.57258203125,-0.09285151958465576,-0.20341812074184418,-0.0507018156349659
1733231809310613000,5.582613037109375,-0.08002334833145142,-0.17043140530586243,-0.024434609338641167
1733231809320571100,5.592571044921875,-0.06536258012056351,-0.14233160018920898,-0.0012217304902151227
1733231809330602000,5.60260205078125,-0.054367005825042725,-0.13805554807186127,-0.00427605677396059
1733231809340590600,5.612590576171875,-0.04153883829712868,-0.14294247329235077,-0.01160643994808197
1733231809350591200,5.62259130859375,-0.029932396486401558,-0.16920967400074005,-0.006719517521560192
1733231809360579600,5.63257958984375,-0.02687807008624077,-0.192422553896904,0.00733038317412138
1733231809370610700,5.642610595703125,-0.02687807008624077,-0.20341812074184418,0.01771509274840355
1733231809380568600,5.652568603515625,-0.03420845419168472,-0.2125810980796814,0.02321287989616394
1733231809390599700,5.662599609375,-0.045204028487205505,-0.21563543379306793,0.021380282938480377
1733231809400588000,5.672588134765625,-0.0708603709936142,-0.2168571650981903,0.012217304669320583
1733231809410588700,5.682588623046875,-0.08796459436416626,-0.2272418737411499,0
1733231809420577300,5.692577392578125,-0.10751228034496307,-0.2321287989616394,-0.006719517521560192
1733231809430608100,5.702608154296875,-0.1270599663257599,-0.2321287989616394,-0.00855211354792118
1733231809440596700,5.7125966796875,-0.1472185254096985,-0.23457226157188416,-0.006719517521560192
1733231809450597000,5.72259716796875,-0.16859880089759827,-0.2321287989616394,-0.004886921960860491
1733231809460585700,5.732585693359375,-0.18509216606616974,-0.23457226157188416,0.001832595793530345
1733231809470616800,5.742616943359375,-0.2076941877603531,-0.24984388053417206,0.03176499158143997
1733231809480574700,5.75257470703125,-0.21930062770843506,-0.2638937830924988,0.059864792972803116
1733231809490605600,5.76260546875,-0.22968533635139465,-0.2742784917354584,0.08246681094169617
1733231809500594200,5.77259423828125,-0.23884831368923187,-0.2822197377681732,0.10201449692249298
1733231809510594800,5.7825947265625,-0.242513507604599,-0.2816088795661926,0.11911872029304504
1733231809520583400,5.79258349609375,-0.24129177629947662,-0.2926044464111328,0.13927727937698364
1733231809530614300,5.8026142578125,-0.2370157092809677,-0.3176499307155609,0.16982053220272064
1733231809540572400,5.812572509765625,-0.21930062770843506,-0.3225368559360504,0.21319197118282318
1733231809550603500,5.822603515625,-0.1966986060142517,-0.29138273000717163,0.21991148591041565
1733231809560592000,5.832591796875,-0.17470745742321014,-0.2736676335334778,0.21013765037059784
1733231809570592300,5.84259228515625,-0.15943582355976105,-0.29626965522766113,0.1765400618314743
1733231809580580600,5.85258056640625,-0.15577064454555511,-0.35735616087913513,0.11301007121801376
1733231809590612000,5.862612060546875,-0.14905111491680145,-0.4764748811721802,0.02015855349600315
1733231809600569900,5.87256982421875,-0.1771509200334549,-0.6841690540313721,-0.09346238523721695
1733231809610601000,5.88260107421875,-0.22296582162380219,-0.9266825914382935,-0.19914206862449646
1733231809620589600,5.892589599609375,-0.25961771607398987,-1.1465940475463867,-0.33719760179519653
1733231809630590500,5.902590576171875,-0.2968805134296417,-1.1398745775222778,-0.37140607833862305
1733231809640578600,5.91257861328125,-0.3323107063770294,-1.0036516189575195,-0.31459560990333557
1733231809650610000,5.92260986328125,-0.35552358627319336,-0.7562511563301086,-0.19058994948863983
1733231809660567300,5.9325673828125,-0.3549126982688904,-0.43737950921058655,-0.03298672288656235
1733231809670598100,5.94259814453125,-0.3390302062034607,-0.11423180252313614,0.13927727937698364
1733231809680587000,5.9525869140625,-0.2974913716316223,0.1417207419872284,0.2742784917354584
1733231809690618000,5.9626181640625,-0.19853121042251587,0.3597996234893799,0.35735616087913513
1733231809700576000,5.972575927734375,-0.13072516024112701,0.42760565876960754,0.34758231043815613
1733231809710607000,5.982607177734375,-0.06108652427792549,0.4550946056842804,0.2877175211906433
1733231809720595500,5.992595458984375,0.006108652334660292,0.44837507605552673,0.18814650177955627
1733231809730596000,6.00259619140625,0.06352998316287994,0.40133845806121826,0.07269296050071716
1733231809740584700,6.012584716796875,0.10201449692249298,0.29993483424186707,-0.025045474991202354
1733231809750615800,6.02261572265625,0.12339477986097336,0.1716531366109848,-0.08674286305904388
1733231809760573700,6.03257373046875,0.1215621829032898,-0.08124507963657379,-0.0910189226269722
1733231809770604500,6.0426044921875,0.1111774742603302,-0.23151792585849762,-0.05619960278272629
1733231809780593200,6.05259326171875,0.09346238523721695,-0.34574973583221436,-0.013439035043120384
1733231809790593500,6.062593505859375,0.06108652427792549,-0.4239404797554016,0.029932396486401558
1733231809800582100,6.07258203125,0.02015855349600315,-0.47219884395599365,0.06230825558304787
1733231809810613200,6.08261328125,-0.00855211354792118,-0.47280970215797424,0.07880161702632904
1733231809820571100,6.092571044921875,-0.033597588539123535,-0.41661009192466736,0.08185594528913498
1733231809830630400,6.10263037109375,-0.04459316283464432,-0.3292563557624817,0.07330382615327835
1733231809840590600,6.112590576171875,-0.048258353024721146,-0.1612684279680252,0.05253441259264946
1733231809850591200,6.12259130859375,-0.039095375686883926,-0.05192354694008827,0.036651913076639175
1733231809860579600,6.13257958984375,-0.02382374368607998,0.04153883829712868,0.018936822190880775
1733231809870610700,6.142610595703125,-0.0024434609804302454,0.12461651116609573,-0.00427605677396059
1733231809880568600,6.152568603515625,0.018936822190880775,0.1771509200334549,-0.01771509274840355
1733231809890599700,6.162599609375,0.04092797264456749,0.17837265133857727,-0.022602014243602753
1733231809900588300,6.17258837890625,0.06536258012056351,0.16310101747512817,-0.021380282938480377
1733231809910588700,6.182588623046875,0.10873401165008545,0.1569923609495163,-0.009162978269159794
1733231809920577300,6.192577392578125,0.1258382350206375,0.16249015927314758,0.012217304669320583
1733231809930608400,6.2026083984375,0.14294247329235077,0.14905111491680145,0.029932396486401558
1733231809940597000,6.212596923828125,0.15943582355976105,0.17104226350784302,0.033597588539123535
1733231809950597400,6.222597412109375,0.17776179313659668,0.24617868661880493,0.009162978269159794
1733231809960586000,6.2325859375,0.19425514340400696,0.37079519033432007,-0.028099801391363144
1733231809970616800,6.242616943359375,0.1918116807937622,0.4447098970413208,0.0403171069920063
1733231809980575000,6.252574951171875,0.17776179313659668,0.07391469180583954,0.10995574295520782
1733231809990605800,6.262605712890625,0.22968533635139465,0.004886921960860491,0.05375614017248154
1733231810000594400,6.272594482421875,0.2480112910270691,-0.02382374368607998,-0.0006108652451075613
1733231810010594800,6.2825947265625,0.2535090744495392,-0.03481931984424591,-0.001832595793530345
1733231810020583400,6.29258349609375,0.27488934993743896,0.02321287989616394,-0.013439035043120384
1733231810030614800,6.30261474609375,0.294437050819397,0.12400564551353455,-0.025656340643763542
1733231810040572700,6.31257275390625,0.303600013256073,0.20097467303276062,-0.015882495790719986
1733231810050603800,6.322603759765625,0.3176499307155609,0.2535090744495392,0.02321287989616394
1733231810060592000,6.332592041015625,0.34208452701568604,0.27000242471694946,0.09468411654233932
1733231810070592800,6.3425927734375,0.37690386176109314,0.25473082065582275,0.0861319974064827
1733231810080581000,6.3525810546875,0.4190535545349121,0.2871066629886627,0.04092797264456749
