time,seconds_elapsed,z,y,x
1733231803930724600,0.202724609375,0.09957103431224823,0.0354301854968071,0.3683517575263977
1733231803940469200,0.21246923828125,0.08491026610136032,-0.021991148591041565,0.3744603991508484
1733231803950526500,0.2225263671875,0.059864792972803116,-0.08735372871160507,0.35735616087913513
1733231803960515000,0.23251513671875,0.04459316283464432,-0.12828169763088226,0.323147714138031
1733231803970546000,0.2425458984375,0.02871066704392433,-0.1612684279680252,0.2779437005519867
1733231803980504000,0.252504150390625,0.015271631069481373,-0.18814650177955627,0.22357667982578278
1733231803990535200,0.26253515625,0.0006108652451075613,-0.19058994948863983,0.15332718193531036
1733231804000523800,0.272523681640625,-0.014049900695681572,-0.16798794269561768,0.08246681094169617
1733231804010524200,0.282524169921875,-0.029932396486401558,-0.1313360333442688,0.015271631069481373
1733231804020512800,0.2925126953125,-0.04642575979232788,-0.10262536257505417,-0.045204028487205505
1733231804030544000,0.3025439453125,-0.05619960278272629,-0.08796459436416626,-0.10567969083786011
1733231804040501500,0.31250146484375,-0.05497787147760391,-0.09285151958465576,-0.11545353382825851
1733231804050532600,0.32253271484375,-0.048258353024721146,-0.09224065393209457,-0.09957103431224823
1733231804060521200,0.332521240234375,-0.03726277872920036,-0.07208210229873657,-0.05192354694008827
1733231804070521600,0.342521484375,-0.021380282938480377,-0.02382374368607998,0.01710422709584236
1733231804080510200,0.35251025390625,-0.0006108652451075613,0.04092797264456749,0.0861319974064827
1733231804090541300,0.362541259765625,0.02015855349600315,0.09651670604944229,0.13866640627384186
1733231804100499200,0.372499267578125,0.04886921867728233,0.1618792861700058,0.17592918872833252
1733231804110529300,0.382529296875,0.06414084881544113,0.1814269721508026,0.16982053220272064
1733231804120518100,0.39251806640625,0.06963863968849182,0.17470745742321014,0.14416420459747314
1733231804130518800,0.402518798828125,0.06352998316287994,0.15271630883216858,0.10690141469240189
1733231804140507100,0.412507080078125,0.05009094998240471,0.12522737681865692,0.05619960278272629
1733231804150538200,0.422538330078125,0.02871066704392433,0.09712757170200348,0.004886921960860491
1733231804160496000,0.43249609375,-0.001832595793530345,0.06780604273080826,-0.0354301854968071
1733231804170527200,0.44252734375,-0.03787364438176155,0.036651913076639175,-0.07147123664617538
1733231804180515800,0.452515869140625,-0.09407325088977814,0.01771509274840355,-0.11484266817569733
1733231804190547200,0.462547119140625,-0.12278391420841217,0.012217304669320583,-0.13927727937698364
1733231804200504800,0.4725048828125,-0.1508837193250656,-0.016493361443281174,-0.15515977144241333
1733231804210536400,0.482536376953125,-0.17287486791610718,-0.04764748737215996,-0.16554448008537292
1733231804220524800,0.49252490234375,-0.18997909128665924,-0.05619960278272629,-0.17592918872833252
1733231804230525200,0.502525146484375,-0.2021963894367218,-0.04337143152952194,-0.18448130786418915
1733231804240513800,0.512513671875,-0.20891591906547546,-0.01038470957428217,-0.18325957655906677
1733231804250545000,0.522544921875,-0.2021963894367218,0.06230825558304787,-0.17287486791610718
1733231804260502800,0.532502685546875,-0.18997909128665924,0.11484266817569733,-0.152105450630188
1733231804270534000,0.542533935546875,-0.17409659922122955,0.17348572611808777,-0.1258382350206375
1733231804280522500,0.5525224609375,-0.1514945775270462,0.23029619455337524,-0.09651670604944229
1733231804290523100,0.562523193359375,-0.12889257073402405,0.2675589919090271,-0.06963863968849182
1733231804300511500,0.572511474609375,-0.10690141469240189,0.29504790902137756,-0.04703662544488907
1733231804310542300,0.582542236328125,-0.08552113175392151,0.30115658044815063,-0.031154127791523933
1733231804320500500,0.59250048828125,-0.06536258012056351,0.24923302233219147,-0.03420845419168472
1733231804330531300,0.60253125,-0.05864306539297104,0.20525072515010834,-0.056810468435287476
1733231804340519700,0.612519775390625,-0.05864306539297104,0.14477506279945374,-0.08674286305904388
1733231804350520600,0.6225205078125,-0.05925392732024193,0.08429940044879913,-0.11056660860776901
1733231804360509000,0.632509033203125,-0.060475658625364304,0.03176499158143997,-0.12461651116609573
1733231804370540000,0.6425400390625,-0.06475171446800232,-0.01038470957428217,-0.12095131725072861
1733231804380498000,0.652497802734375,-0.0708603709936142,-0.04398229718208313,-0.10873401165008545
1733231804390529300,0.662529296875,-0.07757988572120667,-0.06902777403593063,-0.0910189226269722
1733231804400517600,0.672517578125,-0.09224065393209457,-0.10873401165008545,-0.06291911751031876
1733231804410518000,0.68251806640625,-0.10506882518529892,-0.13805554807186127,-0.05192354694008827
1733231804420506400,0.69250634765625,-0.11850785464048386,-0.1716531366109848,-0.051312681287527084
1733231804430537500,0.702537353515625,-0.13805554807186127,-0.19975294172763824,-0.05009094998240471
1733231804440525800,0.71252587890625,-0.1563815027475357,-0.20341812074184418,-0.04948008432984352
1733231804450526500,0.7225263671875,-0.17470745742321014,-0.18509216606616974,-0.048258353024721146
1733231804460515000,0.73251513671875,-0.19425514340400696,-0.15943582355976105,-0.05009094998240471
1733231804470546200,0.742546142578125,-0.2217440903186798,-0.11850785464048386,-0.04214970022439957
1733231804480504000,0.752504150390625,-0.23640485107898712,-0.06902777403593063,-0.01710422709584236
1733231804490535200,0.76253515625,-0.24129177629947662,0.006719517521560192,0.021380282938480377
1733231804500523800,0.772523681640625,-0.242513507604599,0.08796459436416626,0.04459316283464432
1733231804510524200,0.782524169921875,-0.24190263450145721,0.14233160018920898,0.03176499158143997
1733231804520512500,0.792512451171875,-0.2370157092809677,0.17043140530586243,-0.01771509274840355
1733231804530543900,0.8025439453125,-0.2272418737411499,0.18875735998153687,-0.09468411654233932
1733231804540501500,0.81250146484375,-0.20463985204696655,0.19853121042251587,-0.2822197377681732
1733231804550532600,0.82253271484375,-0.18997909128665924,0.12400564551353455,-0.4392121136188507
1733231804560521200,0.832521240234375,-0.16982053220272064,-0.02871066704392433,-0.5754350423812866
1733231804570521300,0.842521240234375,-0.1508837193250656,-0.16920967400074005,-0.6212499737739563
1733231804580510200,0.85251025390625,-0.1270599663257599,-0.24434609711170197,-0.5522221922874451
1733231804590541600,0.86254150390625,-0.10506882518529892,-0.2480112910270691,-0.40683624148368835
1733231804600499200,0.872499267578125,-0.08185594528913498,-0.18387043476104736,-0.23335053026676178
1733231804610530800,0.88253076171875,-0.05192354694008827,-0.08246681094169617,-0.0757472887635231
1733231804620518700,0.8925185546875,-0.009773843921720982,0.09529497474431992,0.09468411654233932
1733231804630519000,0.90251904296875,0.028099801391363144,0.19914206862449646,0.16065755486488342
1733231804640507600,0.912507568359375,0.06352998316287994,0.2675589919090271,0.20097467303276062
1733231804650538800,0.922538818359375,0.09162978827953339,0.29504790902137756,0.21991148591041565
1733231804660496600,0.93249658203125,0.11789698898792267,0.30482175946235657,0.21563543379306793
1733231804670527700,0.94252783203125,0.13500121235847473,0.30543261766433716,0.19792033731937408
1733231804680516400,0.952516357421875,0.14477506279945374,0.2724458873271942,0.1765400618314743
1733231804690547500,0.96254736328125,0.14294247329235077,0.1771509200334549,0.16859880089759827
1733231804700505300,0.97250537109375,0.13255776464939117,0.11911872029304504,0.18814650177955627
1733231804710536200,0.9825361328125,0.11484266817569733,0.07147123664617538,0.21074850857257843
1733231804720524800,0.99252490234375,0.08979719132184982,0.025045474991202354,0.21991148591041565
1733231804730525000,1.00252490234375,0.06963863968849182,0.00855211354792118,0.2028072625398636
1733231804740513800,1.012513671875,0.05314527451992035,0.013439035043120384,0.15027284622192383
1733231804750545000,1.022544921875,0.03848451003432274,0.025656340643763542,0.07330382615327835
1733231804760502800,1.032502685546875,0.029932396486401558,0.03420845419168472,-0.0507018156349659
1733231804770534000,1.042533935546875,0.03237585723400116,0.022602014243602753,-0.12889257073402405
1733231804780522500,1.0525224609375,0.03481931984424591,-0.018936822190880775,-0.19853121042251587
1733231804790523000,1.06252294921875,0.03726277872920036,-0.08918632566928864,-0.25473082065582275
1733231804800511500,1.072511474609375,0.04581489413976669,-0.17287486791610718,-0.2871066629886627
1733231804810542000,1.0825419921875,0.0507018156349659,-0.25106561183929443,-0.2889392673969269
1733231804820500500,1.09250048828125,0.0555887371301651,-0.2791654169559479,-0.24556782841682434
1733231804830530800,1.10253076171875,0.0507018156349659,-0.2583959996700287,-0.17104226350784302
1733231804840519700,1.112519775390625,0.0555887371301651,-0.1716531366109848,-0.02076941914856434
1733231804850520000,1.12252001953125,0.05497787147760391,-0.09712757170200348,0.0806342139840126
1733231804860509000,1.132509033203125,0.05009094998240471,-0.02382374368607998,0.15882496535778046
1733231804870539800,1.142539794921875,0.04459316283464432,0.04337143152952194,0.1918116807937622
1733231804880498000,1.152497802734375,0.04153883829712868,0.11301007121801376,0.1820378452539444
1733231804890529000,1.162529052734375,0.03726277872920036,0.16554448008537292,0.14844025671482086
1733231804900517600,1.172517578125,0.02932153269648552,0.1966986060142517,0.10812314599752426
1733231804910518300,1.182518310546875,0.025045474991202354,0.21441370248794556,0.04642575979232788
1733231804920506600,1.192506591796875,0.027488935738801956,0.2125810980796814,0.006719517521560192
1733231804930537700,1.202537841796875,0.030543262138962746,0.19853121042251587,-0.024434609338641167
1733231804940525800,1.21252587890625,0.03298672288656235,0.19425514340400696,-0.039706241339445114
1733231804950526500,1.2225263671875,0.03848451003432274,0.192422553896904,-0.039706241339445114
1733231804960515000,1.23251513671875,0.039095375686883926,0.18936823308467865,-0.025045474991202354
1733231804970546000,1.2425458984375,0.04214970022439957,0.19058994948863983,-0.01710422709584236
1733231804980504000,1.252504150390625,0.048258353024721146,0.21074850857257843,-0.027488935738801956
1733231804990534100,1.2625341796875,0.05253441259264946,0.20402899384498596,-0.051312681287527084
1733231805000523800,1.272523681640625,0.056810468435287476,0.1814269721508026,-0.09407325088977814
1733231805010523400,1.2825234375,0.06352998316287994,0.15332718193531036,-0.13805554807186127
1733231805020512500,1.292512451171875,0.07208210229873657,0.11850785464048386,-0.17104226350784302
1733231805030543000,1.302543212890625,0.08246681094169617,0.06475171446800232,-0.19364428520202637
1733231805040501500,1.31250146484375,0.09285151958465576,0.005497787147760391,-0.20341812074184418
1733231805050532600,1.32253271484375,0.10323622822761536,-0.05619960278272629,-0.19120082259178162
1733231805060521200,1.332521240234375,0.11362093687057495,-0.14782938361167908,-0.14294247329235077
1733231805070521600,1.342521484375,0.1215621829032898,-0.17531833052635193,-0.09285151958465576
1733231805080510200,1.35251025390625,0.12828169763088226,-0.17531833052635193,-0.03787364438176155
1733231805090541300,1.362541259765625,0.13072516024112701,-0.1612684279680252,0.009773843921720982
1733231805100499200,1.372499267578125,0.12828169763088226,-0.14049901068210602,0.039706241339445114
1733231805110529300,1.382529296875,0.12950342893600464,-0.12522737681865692,0.04398229718208313
1733231805120518100,1.39251806640625,0.13316862285137177,-0.1368338167667389,0.02626720629632473
1733231805130518800,1.402518798828125,0.1368338167667389,-0.1661553531885147,-0.028099801391363144
1733231805140507100,1.412507080078125,0.1411098688840866,-0.19608774781227112,-0.06658431142568588
1733231805150538200,1.422538330078125,0.1459967941045761,-0.2119702398777008,-0.10201449692249298
1733231805160496000,1.43249609375,0.14966198801994324,-0.2076941877603531,-0.12522737681865692
1733231805170527200,1.44252734375,0.14966198801994324,-0.19303341209888458,-0.13561208546161652
1733231805180515800,1.452515869140625,0.15515977144241333,-0.17043140530586243,-0.1411098688840866
1733231805190547000,1.462546875,0.16432274878025055,-0.13866640627384186,-0.13377949595451355
1733231805200504800,1.4725048828125,0.17104226350784302,-0.0910189226269722,-0.0861319974064827
1733231805210536200,1.4825361328125,0.17348572611808777,-0.07757988572120667,-0.04703662544488907
1733231805220524800,1.49252490234375,0.17898350954055786,-0.07024950534105301,-0.022602014243602753
1733231805230525400,1.502525390625,0.18509216606616974,-0.05742133408784866,-0.007941247895359993
1733231805240513800,1.512513671875,0.1918116807937622,-0.05619960278272629,0.0012217304902151227
1733231805250545200,1.522545166015625,0.19853121042251587,-0.07757988572120667,0.01160643994808197
1733231805260502800,1.532502685546875,0.20402899384498596,-0.10567969083786011,0.02382374368607998
1733231805270534000,1.542533935546875,0.2070833146572113,-0.13439035415649414,0.039095375686883926
1733231805280522500,1.5525224609375,0.21135938167572021,-0.16432274878025055,0.07391469180583954
1733231805290523000,1.56252294921875,0.21502456068992615,-0.16920967400074005,0.11056660860776901
1733231805300511500,1.572511474609375,0.2217440903186798,-0.1661553531885147,0.152105450630188
1733231805310542600,1.58254248046875,0.2272418737411499,-0.17348572611808777,0.18020524084568024
1733231805320500500,1.59250048828125,0.2278527319431305,-0.21319197118282318,0.17409659922122955
1733231805330531300,1.60253125,0.22296582162380219,-0.2974913716316223,0.1264491081237793
1733231805340519700,1.612519775390625,0.21991148591041565,-0.4129449129104614,0.04886921867728233
1733231805350520300,1.622520263671875,0.1814269721508026,-0.6432411074638367,-0.1007927656173706
1733231805360509000,1.632509033203125,0.14049901068210602,-0.7678576111793518,-0.20463985204696655
1733231805370540000,1.6425400390625,0.11484266817569733,-0.8240572214126587,-0.2926044464111328
1733231805380498000,1.652497802734375,0.08918632566928864,-0.7715228199958801,-0.34147366881370544
1733231805390529500,1.662529541015625,0.06658431142568588,-0.6188064813613892,-0.3182607889175415
1733231805400517600,1.672517578125,0.0555887371301651,-0.35552358627319336,-0.2217440903186798
1733231805410518500,1.6825185546875,0.05253441259264946,-0.03420845419168472,-0.07696902006864548
1733231805420506400,1.69250634765625,0.059864792972803116,0.27611109614372253,0.08246681094169617
1733231805430537500,1.702537353515625,0.08491026610136032,0.5778785347938538,0.2938261926174164
1733231805440526000,1.712526123046875,0.1160643994808197,0.6927211880683899,0.394008070230484
1733231805450526500,1.7225263671875,0.15332718193531036,0.7574729323387146,0.44715335965156555
1733231805460515000,1.73251513671875,0.1869247704744339,0.7855727076530457,0.4392121136188507
1733231805470546000,1.7425458984375,0.2119702398777008,0.7782423496246338,0.38179078698158264
1733231805480504000,1.752504150390625,0.2278527319431305,0.7134906053543091,0.29504790902137756
1733231805490535200,1.76253515625,0.23579397797584534,0.6010913848876953,0.20891591906547546
1733231805500523800,1.772523681640625,0.23090706765651703,0.38179078698158264,0.1264491081237793
1733231805510524200,1.782524169921875,0.20891591906547546,0.19303341209888458,0.11362093687057495
1733231805520512500,1.792512451171875,0.17592918872833252,0.005497787147760391,0.12889257073402405
1733231805530543600,1.802543701171875,0.12950342893600464,-0.16982053220272064,0.15271630883216858
1733231805540501500,1.81250146484375,0.06841690838336945,-0.3188716471195221,0.16065755486488342
1733231805550532600,1.82253271484375,0.0024434609804302454,-0.44104471802711487,0.13072516024112701
1733231805560521200,1.832521240234375,-0.06658431142568588,-0.5595525503158569,0.06536258012056351
1733231805570521600,1.842521484375,-0.15821409225463867,-0.7037167549133301,-0.07391469180583954
1733231805580510200,1.85251025390625,-0.21624629199504852,-0.7525860071182251,-0.17409659922122955
1733231805590541000,1.862541015625,-0.2675589919090271,-0.7476990818977356,-0.2577851414680481
1733231805600499200,1.872499267578125,-0.2981022298336029,-0.6872233748435974,-0.294437050819397
1733231805610530000,1.882530029296875,-0.31031954288482666,-0.5510004758834839,-0.2669481039047241
1733231805620518700,1.8925185546875,-0.3066543638706207,-0.34086281061172485,-0.18325957655906677
1733231805630519000,1.90251904296875,-0.2926044464111328,-0.11178833991289139,-0.07757988572120667
1733231805640507600,1.912507568359375,-0.26633724570274353,0.08185594528913498,0.02871066704392433
1733231805650538800,1.922538818359375,-0.21380282938480377,0.2535090744495392,0.13744467496871948
1733231805660496600,1.93249658203125,-0.16859880089759827,0.3219259977340698,0.15332718193531036
1733231805670527700,1.94252783203125,-0.12522737681865692,0.3787364661693573,0.13316862285137177
1733231805680516400,1.952516357421875,-0.09529497474431992,0.41722095012664795,0.08246681094169617
1733231805690547200,1.962547119140625,-0.07452555745840073,0.4398229718208313,0.01038470957428217
1733231805700505300,1.97250537109375,-0.060475658625364304,0.4440990388393402,-0.07208210229873657
1733231805710536200,1.9825361328125,-0.056810468435287476,0.42271876335144043,-0.15271630883216858
1733231805720524800,1.99252490234375,-0.07452555745840073,0.3494149148464203,-0.22968533635139465
1733231805730525200,2.002525146484375,-0.08552113175392151,0.3072652220726013,-0.24923302233219147
1733231805740513800,2.012513671875,-0.10262536257505417,0.2632829248905182,-0.25106561183929443
1733231805750545000,2.022544921875,-0.1215621829032898,0.2272418737411499,-0.23579397797584534
1733231805760502800,2.032502685546875,-0.14049901068210602,0.20097467303276062,-0.20586158335208893
1733231805770534100,2.0425341796875,-0.15577064454555511,0.1771509200334549,-0.17409659922122955
1733231805780522500,2.0525224609375,-0.16737708449363708,0.14905111491680145,-0.1508837193250656
1733231805790523000,2.06252294921875,-0.17409659922122955,0.09957103431224823,-0.11911872029304504
1733231805800511500,2.072511474609375,-0.17959438264369965,0.06780604273080826,-0.11301007121801376
1733231805810542600,2.08254248046875,-0.1814269721508026,0.05864306539297104,-0.1215621829032898
1733231805820500500,2.09250048828125,-0.17959438264369965,0.06108652427792549,-0.1411098688840866
1733231805830561500,2.1025615234375,-0.1771509200334549,0.06719517707824707,-0.15760323405265808
1733231805840519700,2.112519775390625,-0.1722639948129654,0.08002334833145142,-0.16065755486488342
1733231805850520600,2.1225205078125,-0.16310101747512817,0.09529497474431992,-0.1459967941045761
1733231805860509000,2.132509033203125,-0.152105450630188,0.11423180252313614,-0.1111774742603302
1733231805870540000,2.1425400390625,-0.1319468915462494,0.152105450630188,-0.03481931984424591
1733231805880498000,2.152497802734375,-0.11545353382825851,0.1771509200334549,0.016493361443281174
1733231805890529000,2.162529052734375,-0.09651670604944229,0.20463985204696655,0.06352998316287994
1733231805900517600,2.172517578125,-0.07635815441608429,0.23029619455337524,0.10384709388017654
1733231805910518000,2.18251806640625,-0.059864792972803116,0.23335053026676178,0.1270599663257599
1733231805920506600,2.192506591796875,-0.04459316283464432,0.2119702398777008,0.1362229436635971
1733231805930537500,2.202537353515625,-0.031154127791523933,0.17592918872833252,0.1411098688840866
1733231805940526000,2.212526123046875,-0.01771509274840355,0.09468411654233932,0.1411098688840866
1733231805950526500,2.2225263671875,-0.00855211354792118,0.04642575979232788,0.13866640627384186
1733231805960515000,2.23251513671875,-0.004886921960860491,-0.004886921960860491,0.13866640627384186
1733231805970546200,2.242546142578125,-0.00366519158706069,-0.06108652427792549,0.1472185254096985
1733231805980504000,2.252504150390625,-0.005497787147760391,-0.09957103431224823,0.16737708449363708
1733231805990535200,2.26253515625,-0.009162978269159794,-0.10873401165008545,0.19914206862449646
1733231806000523800,2.272523681640625,-0.018325956538319588,-0.08674286305904388,0.22907446324825287
1733231806010524200,2.282524169921875,-0.03848451003432274,-0.00855211354792118,0.23518311977386475
1733231806020512500,2.292512451171875,-0.05925392732024193,0.04153883829712868,0.19425514340400696
1733231806030543600,2.302543701171875,-0.08796459436416626,0.02932153269648552,0.09346238523721695
1733231806040501500,2.31250146484375,-0.11301007121801376,-0.06780604273080826,-0.09040805697441101
1733231806050532900,2.322532958984375,-0.13377949595451355,-0.24129177629947662,-0.3139847218990326
1733231806060521200,2.332521240234375,-0.1459967941045761,-0.4660901725292206,-0.4789183437824249
1733231806070522000,2.342522216796875,-0.14416420459747314,-0.6487388610839844,-0.5174028873443604
1733231806080510200,2.35251025390625,-0.13316862285137177,-0.7049384713172913,-0.4398229718208313
1733231806090541800,2.362541748046875,-0.10690141469240189,-0.4758640229701996,-0.2021963894367218
1733231806100499200,2.372499267578125,-0.09468411654233932,-0.1869247704744339,-0.033597588539123535
1733231806110529800,2.38252978515625,-0.08491026610136032,0.10323622822761536,0.10690141469240189
1733231806120518100,2.39251806640625,-0.07024950534105301,0.3530801236629486,0.21502456068992615
1733231806130518500,2.4025185546875,-0.04398229718208313,0.5290092825889587,0.30054569244384766
1733231806140507100,2.412507080078125,-0.001832595793530345,0.636521577835083,0.3744603991508484
1733231806150538500,2.42253857421875,0.03298672288656235,0.6884451508522034,0.4251621961593628
1733231806160496400,2.432496337890625,0.08491026610136032,0.6407976150512695,0.4404338300228119
1733231806170526500,2.4425263671875,0.12217304855585098,0.5436700582504272,0.40256020426750183
1733231806180515800,2.452515869140625,0.14416420459747314,0.41111230850219727,0.34758231043815613
1733231806190546700,2.462546630859375,0.14966198801994324,0.25473082065582275,0.29138273000717163
1733231806200504800,2.4725048828125,0.13805554807186127,0.09285151958465576,0.25106561183929443
1733231806210536200,2.4825361328125,0.12095131725072861,-0.048258353024721146,0.22602014243602753
1733231806220524800,2.49252490234375,0.1007927656173706,-0.14782938361167908,0.21135938167572021
1733231806230525200,2.502525146484375,0.07757988572120667,-0.1966986060142517,0.2021963894367218
1733231806240513800,2.512513671875,0.056810468435287476,-0.18020524084568024,0.18387043476104736
1733231806250544000,2.522544189453125,0.04214970022439957,-0.16493362188339233,0.1472185254096985
1733231806260502800,2.532502685546875,0.0354301854968071,-0.14294247329235077,0.09529497474431992
1733231806270534000,2.542533935546875,0.03237585723400116,-0.11667526513338089,0.0403171069920063
1733231806280522500,2.5525224609375,0.039706241339445114,-0.09407325088977814,-0.00733038317412138
1733231806290523000,2.56252294921875,0.05314527451992035,-0.07391469180583954,-0.04398229718208313
1733231806300511500,2.572511474609375,0.07269296050071716,-0.06475171446800232,-0.060475658625364304
1733231806310542300,2.582542236328125,0.09834930300712585,-0.05192354694008827,-0.03848451003432274
1733231806320500500,2.59250048828125,0.11301007121801376,-0.04398229718208313,-0.001832595793530345
1733231806330531000,2.602531005859375,0.13011430203914642,-0.030543262138962746,0.03481931984424591
1733231806340519700,2.612519775390625,0.13805554807186127,-0.01710422709584236,0.06536258012056351
1733231806350520600,2.6225205078125,0.13988813757896423,-0.016493361443281174,0.07696902006864548
1733231806360509000,2.632509033203125,0.14049901068210602,-0.02932153269648552,0.06780604273080826
1733231806370540000,2.6425400390625,0.13316862285137177,-0.05803219974040985,0.039706241339445114
1733231806380498000,2.652497802734375,0.11239920556545258,-0.11484266817569733,-0.01160643994808197
1733231806390528800,2.66252880859375,0.09712757170200348,-0.14294247329235077,-0.03848451003432274
1733231806400517600,2.672517578125,0.08246681094169617,-0.1514945775270462,-0.060475658625364304
1733231806410518000,2.68251806640625,0.06780604273080826,-0.13561208546161652,-0.07208210229873657
1733231806420506600,2.692506591796875,0.054367005825042725,-0.10812314599752426,-0.0806342139840126
1733231806430537200,2.702537109375,0.04459316283464432,-0.08307767659425735,-0.09468411654233932
1733231806440526000,2.712526123046875,0.04153883829712868,-0.06902777403593063,-0.12034045159816742
1733231806450526500,2.7225263671875,0.04886921867728233,-0.07391469180583954,-0.16004669666290283
1733231806460515000,2.73251513671875,0.059864792972803116,-0.08246681094169617,-0.17959438264369965
1733231806470546000,2.7425458984375,0.0659734457731247,-0.0861319974064827,-0.1875356286764145
1733231806480504000,2.752504150390625,0.07452555745840073,-0.08246681094169617,-0.18448130786418915
1733231806490535200,2.76253515625,0.08185594528913498,-0.06841690838336945,-0.1771509200334549
1733231806500523800,2.772523681640625,0.08796459436416626,-0.04459316283464432,-0.16554448008537292
1733231806510524200,2.782524169921875,0.09468411654233932,-0.013439035043120384,-0.15027284622192383
1733231806520512500,2.792512451171875,0.09407325088977814,0.025045474991202354,-0.13744467496871948
1733231806530543400,2.80254345703125,0.0910189226269722,0.07941248267889023,-0.1368338167667389
1733231806540501500,2.81250146484375,0.08979719132184982,0.09651670604944229,-0.1459967941045761
1733231806550532400,2.822532470703125,0.08857546001672745,0.09346238523721695,-0.1618792861700058
1733231806560521200,2.832521240234375,0.09162978827953339,0.07696902006864548,-0.17287486791610718
1733231806570521600,2.842521484375,0.09285151958465576,0.04337143152952194,-0.17348572611808777
1733231806580510200,2.85251025390625,0.09712757170200348,0.007941247895359993,-0.15577064454555511
1733231806590541300,2.862541259765625,0.09896016865968704,-0.02626720629632473,-0.12522737681865692
1733231806600499200,2.872499267578125,0.10323622822761536,-0.06414084881544113,-0.08002334833145142
1733231806610530000,2.882530029296875,0.10812314599752426,-0.08368854224681854,-0.05009094998240471
1733231806620518700,2.8925185546875,0.11362093687057495,-0.09773843735456467,-0.02076941914856434
1733231806630519000,2.90251904296875,0.11789698898792267,-0.09957103431224823,0.006108652334660292
1733231806640507600,2.912507568359375,0.11728613078594208,-0.10567969083786011,0.024434609338641167
1733231806650538800,2.922538818359375,0.12034045159816742,-0.11178833991289139,0.027488935738801956
1733231806660496600,2.93249658203125,0.1270599663257599,-0.11850785464048386,0.027488935738801956
1733231806670527700,2.94252783203125,0.13500121235847473,-0.1258382350206375,0.033597588539123535
1733231806680516400,2.952516357421875,0.14477506279945374,-0.14782938361167908,0.05192354694008827
1733231806690547200,2.962547119140625,0.14782938361167908,-0.18081611394882202,0.08552113175392151
1733231806700505300,2.97250537109375,0.1514945775270462,-0.20341812074184418,0.11789698898792267
1733231806710536200,2.9825361328125,0.15515977144241333,-0.21502456068992615,0.15027284622192383
1733231806720524800,2.99252490234375,0.1618792861700058,-0.2174680233001709,0.18081611394882202
1733231806730525400,3.002525390625,0.17470745742321014,-0.18631389737129211,0.1966986060142517
1733231806740513800,3.012513671875,0.18936823308467865,-0.14294247329235077,0.19914206862449646
1733231806750545000,3.022544921875,0.20463985204696655,-0.12217304855585098,0.16493362188339233
1733231806760502800,3.032502685546875,0.2070833146572113,-0.14905111491680145,0.09407325088977814
1733231806770534000,3.042533935546875,0.1973094791173935,-0.22540926933288574,-0.012828170321881771
1733231806780522500,3.0525224609375,0.16982053220272064,-0.34758231043815613,-0.13805554807186127
1733231806790523000,3.06252294921875,0.14233160018920898,-0.48808133602142334,-0.24007004499435425
1733231806800511500,3.072511474609375,0.12034045159816742,-0.6108652353286743,-0.2981022298336029
1733231806810542800,3.08254296875,0.0910189226269722,-0.6682865619659424,-0.2883284091949463
1733231806820500500,3.09250048828125,0.051312681287527084,-0.6279694437980652,-0.1722639948129654
1733231806830531800,3.10253173828125,0.036651913076639175,-0.5027421116828918,-0.03787364438176155
1733231806840519700,3.112519775390625,0.015882495790719986,-0.2877175211906433,0.12950342893600464
1733231806850520300,3.122520263671875,-0.00427605677396059,-0.003054326167330146,0.2877175211906433
1733231806860509000,3.132509033203125,0.0024434609804302454,0.2474004179239273,0.39095374941825867
1733231806870540000,3.1425400390625,0.021380282938480377,0.4355469346046448,0.44287729263305664
1733231806880498000,3.152497802734375,0.0403171069920063,0.5479460954666138,0.4343251883983612
1733231806890528300,3.1625283203125,0.05803219974040985,0.6059783101081848,0.37140607833862305
1733231806900517600,3.172517578125,0.08796459436416626,0.5907067060470581,0.21380282938480377
1733231806910517200,3.182517333984375,0.0806342139840126,0.484416127204895,0.0910189226269722
1733231806920506600,3.192506591796875,0.07635815441608429,0.33597588539123535,-0.02015855349600315
1733231806930536700,3.20253662109375,0.03848451003432274,0.1508837193250656,-0.11728613078594208
1733231806940526000,3.212526123046875,-0.01038470957428217,-0.009162978269159794,-0.17837265133857727
1733231806950526500,3.2225263671875,-0.06291911751031876,-0.13988813757896423,-0.2070833146572113
1733231806960515000,3.23251513671875,-0.11850785464048386,-0.23640485107898712,-0.21135938167572021
1733231806970546200,3.242546142578125,-0.21319197118282318,-0.35613444447517395,-0.1618792861700058
1733231806980504000,3.252504150390625,-0.27000242471694946,-0.4300491213798523,-0.13439035415649414
1733231806990535200,3.26253515625,-0.3139847218990326,-0.4495968222618103,-0.1270599663257599
1733231807000523800,3.272523681640625,-0.35185837745666504,-0.394618958234787,-0.1362229436635971
1733231807010524000,3.28252392578125,-0.375071257352829,-0.28527405858039856,-0.1472185254096985
1733231807020512800,3.2925126953125,-0.3903428912162781,-0.14966198801994324,-0.152105450630188
1733231807030544000,3.3025439453125,-0.3878994286060333,-0.004886921960860491,-0.14966198801994324
1733231807040501500,3.31250146484375,-0.3640756905078888,0.21135938167572021,-0.14294247329235077
1733231807050532900,3.322532958984375,-0.3323107063770294,0.32681289315223694,-0.1472185254096985
1733231807060521200,3.332521240234375,-0.29138273000717163,0.3854559659957886,-0.1569923609495163
1733231807070521600,3.342521484375,-0.24617868661880493,0.40133845806121826,-0.16859880089759827
1733231807080510200,3.35251025390625,-0.1973094791173935,0.3995058834552765,-0.1869247704744339
1733231807090541300,3.362541259765625,-0.15577064454555511,0.39217549562454224,-0.19364428520202637
1733231807100499200,3.372499267578125,-0.12095131725072861,0.3885102868080139,-0.18631389737129211
1733231807110529300,3.382529296875,-0.09712757170200348,0.37140607833862305,-0.17287486791610718
1733231807120518100,3.39251806640625,-0.08002334833145142,0.3481931984424591,-0.15027284622192383
1733231807130518800,3.402518798828125,-0.07635815441608429,0.33047810196876526,-0.14049901068210602
1733231807140507100,3.412507080078125,-0.08307767659425735,0.29504790902137756,-0.14477506279945374
1733231807150538200,3.422538330078125,-0.0959058403968811,0.25473082065582275,-0.15760323405265808
1733231807160496400,3.432496337890625,-0.1160643994808197,0.21319197118282318,-0.16737708449363708
1733231807170527500,3.442527587890625,-0.13316862285137177,0.16737708449363708,-0.17470745742321014
1733231807180515800,3.452515869140625,-0.15271630883216858,0.11239920556545258,-0.18448130786418915
1733231807190547000,3.462546875,-0.17287486791610718,0.04153883829712868,-0.18997909128665924
1733231807200504800,3.4725048828125,-0.18509216606616974,0.015882495790719986,-0.1814269721508026
1733231807210536200,3.4825361328125,-0.19486601650714874,0.007941247895359993,-0.1661553531885147
1733231807220524800,3.49252490234375,-0.2028072625398636,0.014049900695681572,-0.14905111491680145
1733231807230525400,3.502525390625,-0.2028072625398636,0.04764748737215996,-0.12889257073402405
1733231807240513800,3.512513671875,-0.19425514340400696,0.1007927656173706,-0.09651670604944229
1733231807250545000,3.522544921875,-0.1814269721508026,0.15454891324043274,-0.051312681287527084
1733231807260502800,3.532502685546875,-0.15515977144241333,0.2125810980796814,0.02871066704392433
1733231807270534000,3.542533935546875,-0.13561208546161652,0.23640485107898712,0.08185594528913498
1733231807280522500,3.5525224609375,-0.11545353382825851,0.24434609711170197,0.1258382350206375
1733231807290523000,3.56252294921875,-0.09651670604944229,0.23457226157188416,0.15332718193531036
1733231807300511500,3.572511474609375,-0.07819075137376785,0.2021963894367218,0.17043140530586243
1733231807310542600,3.58254248046875,-0.06108652427792549,0.16004669666290283,0.16554448008537292
1733231807320500500,3.59250048828125,-0.048258353024721146,0.11301007121801376,0.15760323405265808
1733231807330531300,3.60253125,-0.03726277872920036,0.07024950534105301,0.15515977144241333
1733231807340519700,3.612519775390625,-0.02687807008624077,0.00855211354792118,0.16371189057826996
1733231807350520300,3.622520263671875,-0.024434609338641167,-0.02015855349600315,0.1814269721508026
1733231807360509000,3.632509033203125,-0.02382374368607998,-0.029932396486401558,0.21624629199504852
1733231807370539800,3.642539794921875,-0.02932153269648552,-0.021380282938480377,0.2577851414680481
1733231807380498000,3.652497802734375,-0.039095375686883926,0,0.2932153046131134
1733231807390529000,3.662529052734375,-0.04642575979232788,0.039095375686883926,0.3121521472930908
1733231807400517600,3.672517578125,-0.05314527451992035,0.0861319974064827,0.3084869384765625
1733231807410518000,3.68251806640625,-0.06291911751031876,0.1270599663257599,0.251676470041275
1733231807420506400,3.69250634765625,-0.0708603709936142,0.07757988572120667,0.1472185254096985
1733231807430537500,3.702537353515625,-0.08491026610136032,-0.05619960278272629,-0.03298672288656235
1733231807440525800,3.71252587890625,-0.09285151958465576,-0.251676470041275,-0.25045475363731384
1733231807450526500,3.7225263671875,-0.08796459436416626,-0.4648684561252594,-0.40622538328170776
1733231807460515000,3.73251513671875,-0.08185594528913498,-0.6017022728919983,-0.4489859640598297
1733231807470546700,3.742546630859375,-0.07819075137376785,-0.6188064813613892,-0.40256020426750183
1733231807480504000,3.752504150390625,-0.06475171446800232,-0.3591887652873993,-0.21868975460529327
1733231807490535400,3.762535400390625,-0.059864792972803116,-0.07513642311096191,-0.07635815441608429
1733231807500523800,3.772523681640625,-0.06963863968849182,0.2217440903186798,0.056810468435287476
1733231807510524400,3.7825244140625,-0.06230825558304787,0.48808133602142334,0.1716531366109848
1733231807520512500,3.792512451171875,-0.02321287989616394,0.6530149579048157,0.27488934993743896
1733231807530543600,3.802543701171875,0.033597588539123535,0.740368664264679,0.36590829491615295
1733231807540501500,3.81250146484375,0.07330382615327835,0.789237916469574,0.43127086758613586
1733231807550532000,3.822531982421875,0.11178833991289139,0.779464066028595,0.44654250144958496
1733231807560521200,3.832521240234375,0.16310101747512817,0.6481280326843262,0.3933972120285034
1733231807570520800,3.842520751953125,0.17776179313659668,0.48747047781944275,0.33169981837272644
1733231807580510200,3.85251025390625,0.17592918872833252,0.2834414839744568,0.2669481039047241
1733231807590541300,3.862541259765625,0.16004669666290283,0.05192354694008827,0.21441370248794556
1733231807600499200,3.872499267578125,0.13439035415649414,-0.16310101747512817,0.1765400618314743
1733231807610530000,3.882530029296875,0.10506882518529892,-0.303600013256073,0.1368338167667389
1733231807620518700,3.8925185546875,0.07941248267889023,-0.36102136969566345,0.09162978827953339
1733231807630519000,3.90251904296875,0.039706241339445114,-0.3445279896259308,0.01710422709584236
1733231807640507600,3.912507568359375,0.016493361443281174,-0.31520646810531616,-0.039095375686883926
1733231807650538800,3.922538818359375,0.0012217304902151227,-0.2919935882091522,-0.09162978827953339
1733231807660496600,3.93249658203125,-0.005497787147760391,-0.2871066629886627,-0.1466076523065567
1733231807670527700,3.94252783203125,-0.009162978269159794,-0.31642818450927734,-0.19058994948863983
1733231807680516400,3.952516357421875,-0.006719517521560192,-0.37079519033432007,-0.2174680233001709
1733231807690547500,3.96254736328125,0.007941247895359993,-0.4105014503002167,-0.21074850857257843
1733231807700505300,3.97250537109375,0.028099801391363144,-0.394008070230484,-0.13439035415649414
1733231807710536200,3.9825361328125,0.04337143152952194,-0.33292156457901,-0.05375614017248154
1733231807720524800,3.99252490234375,0.05803219974040985,-0.23335053026676178,0.025656340643763542
1733231807730525400,4.002525390625,0.07147123664617538,-0.11484266817569733,0.08429940044879913
1733231807740513800,4.012513671875,0.07941248267889023,-0.00427605677396059,0.10323622822761536
1733231807750545000,4.022544921875,0.08491026610136032,0.07757988572120667,0.06475171446800232
1733231807760502800,4.032502685546875,0.09285151958465576,0.12950342893600464,-0.012217304669320583
1733231807770534000,4.042533935546875,0.1007927656173706,0.15760323405265808,-0.09957103431224823
1733231807780522500,4.0525224609375,0.09651670604944229,0.1466076523065567,-0.21380282938480377
1733231807790523000,4.06252294921875,0.09468411654233932,0.09834930300712585,-0.2571742534637451
1733231807800511500,4.072511474609375,0.09407325088977814,0.039095375686883926,-0.2724458873271942
1733231807810542600,4.08254248046875,0.09529497474431992,-0.010995574295520782,-0.2632829248905182
1733231807820500500,4.09250048828125,0.09651670604944229,-0.05253441259264946,-0.23396138846874237
1733231807830561800,4.102561767578125,0.0959058403968811,-0.09162978827953339,-0.19303341209888458
1733231807840519700,4.112519775390625,0.1014036312699318,-0.12400564551353455,-0.1618792861700058
1733231807850520300,4.122520263671875,0.10934487730264664,-0.13927727937698364,-0.14294247329235077
1733231807860509000,4.132509033203125,0.11728613078594208,-0.12339477986097336,-0.15515977144241333
1733231807870539800,4.142539794921875,0.1270599663257599,-0.09529497474431992,-0.18081611394882202
1733231807880498000,4.152497802734375,0.1368338167667389,-0.06536258012056351,-0.20097467303276062
1733231807890529000,4.162529052734375,0.14416420459747314,-0.039095375686883926,-0.21502456068992615
1733231807900517600,4.172517578125,0.1508837193250656,-0.025656340643763542,-0.21441370248794556
1733231807910518000,4.18251806640625,0.15943582355976105,-0.018936822190880775,-0.19547687470912933
1733231807920506600,4.192506591796875,0.16982053220272064,-0.016493361443281174,-0.16065755486488342
1733231807930537500,4.202537353515625,0.18081611394882202,-0.031154127791523933,-0.09712757170200348
1733231807940526000,4.212526123046875,0.1869247704744339,-0.04153883829712868,-0.06230825558304787
1733231807950526700,4.222526611328125,0.192422553896904,-0.04642575979232788,-0.0354301854968071
1733231807960515000,4.23251513671875,0.19792033731937408,-0.05375614017248154,-0.02015855349600315
1733231807970546200,4.242546142578125,0.19792033731937408,-0.06352998316287994,-0.006719517521560192
1733231807980504000,4.252504150390625,0.1966986060142517,-0.07330382615327835,0.012217304669320583
1733231807990535200,4.26253515625,0.19425514340400696,-0.08552113175392151,0.02871066704392433
1733231808000523800,4.272523681640625,0.18570303916931152,-0.0910189226269722,0.03848451003432274
1733231808010524400,4.2825244140625,0.17348572611808777,-0.08918632566928864,0.03787364438176155
1733231808020512500,4.292512451171875,0.16065755486488342,-0.08857546001672745,0.04092797264456749
1733231808030543600,4.302543701171875,0.14416420459747314,-0.10201449692249298,0.05742133408784866
1733231808040501500,4.31250146484375,0.1258382350206375,-0.11911872029304504,0.09040805697441101
1733231808050532600,4.32253271484375,0.10384709388017654,-0.13500121235847473,0.13561208546161652
1733231808060521200,4.332521240234375,0.08368854224681854,-0.14294247329235077,0.18387043476104736
1733231808070521600,4.342521484375,0.06352998316287994,-0.16310101747512817,0.2565633952617645
1733231808080510200,4.35251025390625,0.0555887371301651,-0.16859880089759827,0.29138273000717163
1733231808090541000,4.362541015625,0.05314527451992035,-0.1612684279680252,0.303600013256073
1733231808100499200,4.372499267578125,0.06169738993048668,-0.14294247329235077,0.2932153046131134
1733231808110529300,4.382529296875,0.07269296050071716,-0.11545353382825851,0.24678955972194672
1733231808120518100,4.39251806640625,0.08368854224681854,-0.08735372871160507,0.16004669666290283
1733231808130518500,4.4025185546875,0.08918632566928864,-0.13377949595451355,0.02687807008624077
1733231808140507100,4.412507080078125,0.07757988572120667,-0.32681289315223694,-0.15454891324043274
1733231808150538200,4.422538330078125,0.01771509274840355,-0.8429940342903137,-0.4538728892803192
1733231808160496400,4.432496337890625,-0.005497787147760391,-1.158811330795288,-0.5668829679489136
1733231808170527700,4.44252783203125,-0.039706241339445114,-1.3469579219818115,-0.5668829679489136
1733231808180515800,4.452515869140625,-0.08552113175392151,-1.357953429222107,-0.43188172578811646
1733231808190547200,4.462547119140625,-0.11423180252313614,-1.2064588069915771,-0.19975294172763824
1733231808200504800,4.4725048828125,-0.14355333149433136,-0.9089674949645996,0.07330382615327835
1733231808210536700,4.48253662109375,-0.1820378452539444,-0.5222898125648499,0.3433062732219696
1733231808220525000,4.492525146484375,-0.1771509200334549,0.056810468435287476,0.6640105247497559
1733231808230525200,4.502525146484375,-0.1270599663257599,0.3280346393585205,0.7556403279304504
1733231808240513800,4.512513671875,-0.06719517707824707,0.5338962078094482,0.7617489695549011
1733231808250544600,4.522544677734375,-0.006719517521560192,0.6725626587867737,0.6743952035903931
1733231808260502800,4.532502685546875,0.05009094998240471,0.7275404930114746,0.5125159621238708
1733231808270535700,4.54253564453125,0.09712757170200348,0.684779942035675,0.303600013256073
1733231808280522500,4.5525224609375,0.13561208546161652,0.6041457056999207,0.11728613078594208
1733231808290523000,4.56252294921875,0.12339477986097336,0.3170390725135803,-0.11362093687057495
1733231808300511500,4.572511474609375,0.10323622822761536,0.1270599663257599,-0.18814650177955627
1733231808310541600,4.58254150390625,0.04459316283464432,-0.04764748737215996,-0.2015855312347412
1733231808320500500,4.59250048828125,-0.024434609338641167,-0.17470745742321014,-0.18081611394882202
1733231808330531300,4.60253125,-0.09346238523721695,-0.25473082065582275,-0.1508837193250656
1733231808340520000,4.61252001953125,-0.15577064454555511,-0.2938261926174164,-0.10690141469240189
1733231808350520300,4.622520263671875,-0.21441370248794556,-0.3127630054950714,-0.04703662544488907
1733231808360509000,4.632509033203125,-0.2736676335334778,-0.29993483424186707,-0.0024434609804302454
1733231808370539800,4.642539794921875,-0.3176499307155609,-0.15577064454555511,0.021380282938480377
1733231808380498000,4.652497802734375,-0.3225368559360504,-0.006719517521560192,-0.0006108652451075613
1733231808390529300,4.662529296875,-0.304210901260376,0.13744467496871948,-0.0403171069920063
1733231808400517600,4.672517578125,-0.2681698501110077,0.2638937830924988,-0.06963863968849182
1733231808410518300,4.682518310546875,-0.22907446324825287,0.3591887652873993,-0.08979719132184982
1733231808420506600,4.692506591796875,-0.18081611394882202,0.42638394236564636,-0.10201449692249298
1733231808430537500,4.702537353515625,-0.12828169763088226,0.44104471802711487,-0.10995574295520782
1733231808440525800,4.71252587890625,-0.045204028487205505,0.40072759985923767,-0.11972958594560623
1733231808450526500,4.7225263671875,0.005497787147760391,0.36529740691185,-0.12767083942890167
1733231808460515000,4.73251513671875,0.0403171069920063,0.32986724376678467,-0.1368338167667389
1733231808470546200,4.742546142578125,0.06719517707824707,0.3078760802745819,-0.152105450630188
1733231808480504000,4.752504150390625,0.08246681094169617,0.2938261926174164,-0.16371189057826996
1733231808490535200,4.76253515625,0.08796459436416626,0.2730567753314972,-0.16737708449363708
1733231808500523500,4.7725234375,0.08246681094169617,0.24556782841682434,-0.17287486791610718
1733231808510524000,4.78252392578125,0.060475658625364304,0.2168571650981903,-0.19303341209888458
1733231808520512500,4.792512451171875,0.04337143152952194,0.20525072515010834,-0.2119702398777008
1733231808530543600,4.802543701171875,0.02932153269648552,0.18448130786418915,-0.23029619455337524
1733231808540501500,4.81250146484375,0.015271631069481373,0.15577064454555511,-0.24556782841682434
1733231808550532600,4.82253271484375,0.00427605677396059,0.1215621829032898,-0.24862214922904968
1733231808560521000,4.83252099609375,-0.007941247895359993,0.09834930300712585,-0.24495697021484375
1733231808570521600,4.842521484375,-0.01710422709584236,0.08368854224681854,-0.23273965716362
1733231808580510200,4.85251025390625,-0.02382374368607998,0.07696902006864548,-0.21380282938480377
1733231808590541000,4.862541015625,-0.02932153269648552,0.10018189996480942,-0.16859880089759827
1733231808600499200,4.872499267578125,-0.03237585723400116,0.12339477986097336,-0.1313360333442688
1733231808610530000,4.882530029296875,-0.033597588539123535,0.152105450630188,-0.09529497474431992
1733231808620519000,4.892518798828125,-0.033597588539123535,0.19303341209888458,-0.06475171446800232
1733231808630519000,4.90251904296875,-0.03726277872920036,0.23090706765651703,-0.0403171069920063
1733231808640508000,4.9125078125,-0.03726277872920036,0.2571742534637451,-0.024434609338641167
1733231808650538800,4.922538818359375,-0.036651913076639175,0.26083946228027344,-0.015882495790719986
1733231808660496600,4.93249658203125,-0.036041051149368286,0.2535090744495392,-0.012828170321881771
1733231808670527700,4.94252783203125,-0.03298672288656235,0.24495697021484375,-0.01160643994808197
1733231808680516400,4.952516357421875,-0.029932396486401558,0.22663100063800812,0.0012217304902151227
1733231808690547500,4.96254736328125,-0.025656340643763542,0.19853121042251587,0.02076941914856434
1733231808700505300,4.97250537109375,-0.01771509274840355,0.1618792861700058,0.03848451003432274
1733231808710536200,4.9825361328125,-0.01160643994808197,0.12095131725072861,0.05375614017248154
1733231808720525000,4.992525146484375,-0.01160643994808197,0.08368854224681854,0.07452555745840073
1733231808730525400,5.002525390625,-0.009773843921720982,0.033597588539123535,0.10995574295520782
1733231808740513800,5.012513671875,-0.012828170321881771,0.009162978269159794,0.13439035415649414
1733231808750544600,5.022544677734375,-0.02015855349600315,0,0.1618792861700058
1733231808760502800,5.032502685546875,-0.028099801391363144,0.019547687843441963,0.182648703455925
1733231808770534000,5.042533935546875,-0.03237585723400116,0.07941248267889023,0.1966986060142517
1733231808780522500,5.0525224609375,-0.03726277872920036,0.15027284622192383,0.19853121042251587
1733231808790523000,5.06252294921875,-0.04703662544488907,0.2174680233001709,0.18020524084568024
1733231808800511500,5.072511474609375,-0.054367005825042725,0.21930062770843506,0.13011430203914642
1733231808810542300,5.082542236328125,-0.06352998316287994,0.06902777403593063,-0.05803219974040985
1733231808820500500,5.09250048828125,-0.060475658625364304,-0.10506882518529892,-0.252287358045578
1733231808830531300,5.10253125,-0.054367005825042725,-0.30543261766433716,-0.41172316670417786
1733231808840519700,5.112519775390625,-0.042760565876960754,-0.44104471802711487,-0.4764748811721802
1733231808850520800,5.122520751953125,-0.04459316283464432,-0.4905247986316681,-0.44715335965156555
1733231808860509000,5.132509033203125,-0.04398229718208313,-0.44654250144958496,-0.32498031854629517
1733231808870540300,5.142540283203125,-0.048258353024721146,-0.3078760802745819,-0.16432274878025055
1733231808880498000,5.152497802734375,-0.06658431142568588,0.01466076634824276,0.06352998316287994
1733231808890529500,5.162529541015625,-0.059864792972803116,0.28955012559890747,0.18631389737129211
1733231808900517600,5.172517578125,-0.02871066704392433,0.5510004758834839,0.2773328125476837
1733231808910517800,5.182517822265625,0.02321287989616394,0.7379252314567566,0.35735616087913513
1733231808920506600,5.192506591796875,0.06963863968849182,0.8717046976089478,0.4306600093841553
1733231808930537500,5.202537353515625,0.10323622822761536,0.9572258591651917,0.4795292317867279
1733231808940526000,5.212526123046875,0.13744467496871948,0.9779952764511108,0.4893030524253845
1733231808950526500,5.2225263671875,0.17348572611808777,0.8643743395805359,0.4404338300228119
1733231808960515000,5.23251513671875,0.18509216606616974,0.7092145681381226,0.39767327904701233
1733231808970545700,5.242545654296875,0.18081611394882202,0.5143485069274902,0.3604104816913605
1733231808980504000,5.252504150390625,0.16920967400074005,0.30970868468284607,0.3396410644054413
1733231808990535200,5.26253515625,0.1319468915462494,0.10812314599752426,0.33169981837272644
1733231809000523500,5.2725234375,0.08979719132184982,-0.04092797264456749,0.32681289315223694
1733231809010524000,5.28252392578125,0.048258353024721146,-0.14355333149433136,0.30543261766433716
1733231809020512500,5.292512451171875,0.02321287989616394,-0.20341812074184418,0.252287358045578
1733231809030544000,5.3025439453125,-0.02015855349600315,-0.22602014243602753,0.1313360333442688
1733231809040501500,5.31250146484375,-0.048258353024721146,-0.23151792585849762,0.059864792972803116
1733231809050532600,5.32253271484375,-0.06963863968849182,-0.23090706765651703,0.006719517521560192
1733231809060521200,5.332521240234375,-0.09529497474431992,-0.22479841113090515,-0.027488935738801956
1733231809070521600,5.342521484375,-0.11789698898792267,-0.19486601650714874,-0.05375614017248154
1733231809080510200,5.35251025390625,-0.1319468915462494,-0.1472185254096985,-0.06658431142568588
1733231809090541300,5.362541259765625,-0.13866640627384186,-0.09162978827953339,-0.059864792972803116
1733231809100499200,5.372499267578125,-0.13255776464939117,-0.0006108652451075613,0.0006108652451075613
1733231809110529300,5.382529296875,-0.12400564551353455,0.056810468435287476,0.060475658625364304
1733231809120518100,5.39251806640625,-0.11667526513338089,0.09834930300712585,0.12339477986097336
1733231809130518800,5.402518798828125,-0.10567969083786011,0.09896016865968704,0.17287486791610718
1733231809140507100,5.412507080078125,-0.08918632566928864,0.07635815441608429,0.20402899384498596
1733231809150538500,5.42253857421875,-0.07819075137376785,0.03237585723400116,0.22357667982578278
1733231809160496400,5.432496337890625,-0.0708603709936142,-0.039706241339445114,0.22479841113090515
1733231809170527200,5.44252734375,-0.06352998316287994,-0.14905111491680145,0.18020524084568024
1733231809180515800,5.452515869140625,-0.06230825558304787,-0.21563543379306793,0.12767083942890167
1733231809190546700,5.462546630859375,-0.06352998316287994,-0.2730567753314972,0.06719517707824707
1733231809200504800,5.4725048828125,-0.07208210229873657,-0.31520646810531616,0.00855211354792118
1733231809210536400,5.482536376953125,-0.07880161702632904,-0.34574973583221436,-0.036651913076639175
1733231809220525000,5.492525146484375,-0.08491026610136032,-0.35674530267715454,-0.07208210229873657
1733231809230525400,5.502525390625,-0.09224065393209457,-0.34086281061172485,-0.10506882518529892
1733231809240513800,5.512513671875,-0.09407325088977814,-0.3188716471195221,-0.13500121235847473
1733231809250545000,5.522544921875,-0.08918632566928864,-0.2669481039047241,-0.16554448008537292
1733231809260502800,5.532502685546875,-0.0806342139840126,-0.23640485107898712,-0.16432274878025055
1733231809270534000,5.542533935546875,-0.07208210229873657,-0.22663100063800812,-0.1459967941045761
1733231809280522500,5.5525224609375,-0.06475171446800232,-0.2168571650981903,-0.11972958594560623
1733231809290523000,5.56252294921875,-0.054367005825042725,-0.19058994948863983,-0.09651670604944229
1733231809300511500,5.572511474609375,-0.04214970022439957,-0.15515977144241333,-0.07208210229873657
1733231809310542600,5.58254248046875,-0.02932153269648552,-0.12217304855585098,-0.04581489413976669
1733231809320500500,5.59250048828125,-0.01466076634824276,-0.09407325088977814,-0.022602014243602753
1733231809330531000,5.602531005859375,-0.00366519158706069,-0.08979719132184982,-0.025656340643763542
1733231809340519700,5.612519775390625,0.009162978269159794,-0.09468411654233932,-0.03298672288656235
1733231809350520300,5.622520263671875,0.02076941914856434,-0.12095131725072861,-0.028099801391363144
1733231809360509000,5.632509033203125,0.02382374368607998,-0.14416420459747314,-0.014049900695681572
1733231809370540000,5.6425400390625,0.02382374368607998,-0.15515977144241333,-0.00366519158706069
1733231809380498000,5.652497802734375,0.016493361443281174,-0.16432274878025055,0.001832595793530345
1733231809390529000,5.662529052734375,0.005497787147760391,-0.16737708449363708,0
1733231809400517600,5.672517578125,-0.02015855349600315,-0.16859880089759827,-0.009162978269159794
1733231809410518000,5.68251806640625,-0.03726277872920036,-0.17898350954055786,-0.021380282938480377
1733231809420506600,5.692506591796875,-0.056810468435287476,-0.18387043476104736,-0.028099801391363144
1733231809430537500,5.702537353515625,-0.07635815441608429,-0.18387043476104736,-0.029932396486401558
1733231809440525800,5.71252587890625,-0.09651670604944229,-0.18631389737129211,-0.028099801391363144
1733231809450526500,5.7225263671875,-0.11789698898792267,-0.18387043476104736,-0.02626720629632473
1733231809460515000,5.73251513671875,-0.13439035415649414,-0.18631389737129211,-0.019547687843441963
1733231809470546200,5.742546142578125,-0.1569923609495163,-0.2015855312347412,0.01038470957428217
1733231809480504000,5.752504150390625,-0.16859880089759827,-0.21563543379306793,0.03848451003432274
1733231809490535200,5.76253515625,-0.17898350954055786,-0.22602014243602753,0.06108652427792549
1733231809500523800,5.772523681640625,-0.18814650177955627,-0.23396138846874237,0.0806342139840126
1733231809510524000,5.78252392578125,-0.1918116807937622,-0.23335053026676178,0.09773843735456467
1733231809520512500,5.792512451171875,-0.19058994948863983,-0.24434609711170197,0.11789698898792267
1733231809530543400,5.80254345703125,-0.18631389737129211,-0.26939156651496887,0.14844025671482086
1733231809540501500,5.81250146484375,-0.16859880089759827,-0.2742784917354584,0.1918116807937622
1733231809550532600,5.82253271484375,-0.1459967941045761,-0.2431243658065796,0.19853121042251587
1733231809560521000,5.83252099609375,-0.12400564551353455,-0.22540926933288574,0.18875735998153687
1733231809570521600,5.842521484375,-0.10873401165008545,-0.2480112910270691,0.15515977144241333
1733231809580510200,5.85251025390625,-0.10506882518529892,-0.3090978264808655,0.09162978827953339
1733231809590541300,5.862541259765625,-0.09834930300712585,-0.4282165467739105,-0.0012217304902151227
1733231809600499200,5.872499267578125,-0.1264491081237793,-0.6359107494354248,-0.11484266817569733
1733231809610530000,5.882530029296875,-0.1722639948129654,-0.8784242272377014,-0.22052235901355743
1733231809620519000,5.892518798828125,-0.20891591906547546,-1.0983357429504395,-0.3585779070854187
1733231809630519800,5.902519775390625,-0.24617868661880493,-1.091616153717041,-0.3927863538265228
1733231809640508000,5.9125078125,-0.2816088795661926,-0.9553932547569275,-0.33597588539123535
1733231809650539300,5.922539306640625,-0.30482175946235657,-0.7079927921295166,-0.2119702398777008
1733231809660496600,5.93249658203125,-0.304210901260376,-0.3891211748123169,-0.054367005825042725
1733231809670527500,5.942527587890625,-0.2883284091949463,-0.0659734457731247,0.11789698898792267
1733231809680516400,5.952516357421875,-0.24678955972194672,0.18997909128665924,0.2528982162475586
1733231809690547500,5.96254736328125,-0.14782938361167908,0.4080579876899719,0.33597588539123535
1733231809700505300,5.97250537109375,-0.08002334833145142,0.4758640229701996,0.32620203495025635
1733231809710536400,5.982536376953125,-0.01038470957428217,0.50335294008255,0.26633724570274353
1733231809720524800,5.99252490234375,0.056810468435287476,0.4966334402561188,0.1667662113904953
1733231809730525200,6.002525146484375,0.11423180252313614,0.4495968222618103,0.051312681287527084
1733231809740513800,6.012513671875,0.15271630883216858,0.3481931984424591,-0.04642575979232788
1733231809750545000,6.022544921875,0.17409659922122955,0.21991148591041565,-0.10812314599752426
1733231809760502800,6.032502685546875,0.1722639948129654,-0.03298672288656235,-0.11239920556545258
1733231809770534000,6.042533935546875,0.1618792861700058,-0.18325957655906677,-0.07757988572120667
1733231809780522500,6.0525224609375,0.14416420459747314,-0.2974913716316223,-0.03481931984424591
1733231809790522600,6.062522705078125,0.11178833991289139,-0.37568211555480957,0.00855211354792118
1733231809800511500,6.072511474609375,0.0708603709936142,-0.4239404797554016,0.04092797264456749
1733231809810542600,6.08254248046875,0.04214970022439957,-0.4245513379573822,0.05742133408784866
1733231809820500500,6.09250048828125,0.01710422709584236,-0.3683517575263977,0.060475658625364304
1733231809830559500,6.1025595703125,0.006108652334660292,-0.28099802136421204,0.05192354694008827
1733231809840519700,6.112519775390625,0.0024434609804302454,-0.11301007121801376,0.031154127791523933
1733231809850520300,6.122520263671875,0.01160643994808197,-0.00366519158706069,0.015271631069481373
1733231809860509000,6.132509033203125,0.02687807008624077,0.08979719132184982,-0.0024434609804302454
1733231809870540000,6.1425400390625,0.048258353024721146,0.17287486791610718,-0.025656340643763542
1733231809880498000,6.152497802734375,0.06963863968849182,0.22540926933288574,-0.039095375686883926
1733231809890529000,6.162529052734375,0.09162978827953339,0.22663100063800812,-0.04398229718208313
1733231809900517600,6.172517578125,0.1160643994808197,0.21135938167572021,-0.042760565876960754
1733231809910518000,6.18251806640625,0.15943582355976105,0.20525072515010834,-0.030543262138962746
1733231809920506600,6.192506591796875,0.1765400618314743,0.21074850857257843,-0.009162978269159794
1733231809930537500,6.202537353515625,0.19364428520202637,0.1973094791173935,0.00855211354792118
1733231809940526000,6.212526123046875,0.21013765037059784,0.21930062770843506,0.012217304669320583
1733231809950526500,6.2225263671875,0.22846360504627228,0.294437050819397,-0.012217304669320583
1733231809960515000,6.23251513671875,0.24495697021484375,0.4190535545349121,-0.04948008432984352
1733231809970546200,6.242546142578125,0.242513507604599,0.49296826124191284,0.018936822190880775
1733231809980504000,6.252504150390625,0.22846360504627228,0.12217304855585098,0.08857546001672745
1733231809990535200,6.26253515625,0.28038713335990906,0.05314527451992035,0.03237585723400116
1733231810000523800,6.272523681640625,0.2987131178379059,0.024434609338641167,-0.021991148591041565
1733231810010524200,6.282524169921875,0.304210901260376,0.013439035043120384,-0.02321287989616394
1733231810020512500,6.292512451171875,0.32559117674827576,0.07147123664617538,-0.03481931984424591
1733231810030544100,6.302544189453125,0.34513887763023376,0.1722639948129654,-0.04703662544488907
1733231810040501500,6.31250146484375,0.3543018400669098,0.24923302233219147,-0.03726277872920036
1733231810050532600,6.32253271484375,0.3683517575263977,0.3017674386501312,0.001832595793530345
1733231810060521200,6.332521240234375,0.3927863538265228,0.3182607889175415,0.07330382615327835
1733231810070521900,6.34252197265625,0.42760565876960754,0.3029891550540924,0.06475171446800232
1733231810080510200,6.35251025390625,0.4697553813457489,0.33536502718925476,0.019547687843441963
