time,seconds_elapsed,z,y,x
1733231803950433000,0.22243310546875,7.783549785614014,3.071760892868042,0.33758243918418884
1733231803960443000,0.23244287109375,7.668628215789795,3.0765492916107178,0.4118026793003082
1733231803970452700,0.24245263671875,7.6351094245910645,3.1244332790374756,0.4429273009300232
1733231803980432000,0.252431884765625,7.630321025848389,3.0789434909820557,0.5267243981361389
1733231803990441700,0.262441650390625,7.814674377441406,2.978386878967285,0.5889736413955688
1733231804000451300,0.272451416015625,8.051700592041016,2.935291290283203,0.667982280254364
1733231804010430500,0.282430419921875,8.4108304977417,2.827552318572998,0.6631938815116882
1733231804020440300,0.2924404296875,8.851364135742188,2.8203697204589844,0.569819986820221
1733231804030450200,0.3024501953125,9.418789863586426,2.8443117141723633,0.49320554733276367
1733231804040429600,0.3124296875,9.859322547912598,2.8634653091430664,0.4572925269603729
1733231804050439200,0.322439208984375,10.290278434753418,2.913743495941162,0.38067805767059326
1733231804060449000,0.332448974609375,10.426748275756836,3.0119056701660156,0.363918662071228
1733231804070428400,0.342428466796875,10.177751541137695,3.1651346683502197,0.363918662071228
1733231804080438000,0.35243798828125,9.5624418258667,3.332728862762451,0.3495534360408783
1733231804090447600,0.362447509765625,8.937555313110352,3.44765043258667,0.33997663855552673
1733231804100426800,0.3724267578125,8.233659744262695,3.552995204925537,0.3495534360408783
1733231804110436600,0.3824365234375,7.778761386871338,3.6320040225982666,0.4165911078453064
1733231804120446500,0.392446533203125,7.374141216278076,3.7277719974517822,0.49559974670410156
1733231804130425900,0.40242578125,7.158663272857666,3.799597978591919,0.6057330369949341
1733231804140435500,0.412435546875,7.072471618652344,3.8762125968933105,0.6536170840263367
1733231804150445300,0.4224453125,7.127538681030273,3.9264907836914062,0.7326257228851318
1733231804160424700,0.4324248046875,7.249642848968506,3.9408559799194336,0.8212111592292786
1733231804170434300,0.442434326171875,7.364564418792725,3.955221176147461,0.8307880163192749
1733231804180444200,0.452444091796875,7.560888767242432,3.9839515686035156,0.7398083209991455
1733231804190453800,0.462453857421875,7.805097579956055,3.957615375518799,0.6512228846549988
1733231804200433000,0.472432861328125,8.078036308288574,3.9480385780334473,0.5793967843055725
1733231804210442800,0.48244287109375,8.307879447937012,3.8810009956359863,0.47165772318840027
1733231804220452600,0.49245263671875,8.544905662536621,3.847482204437256,0.42856210470199585
1733231804230431700,0.502431640625,8.820239067077637,3.8546648025512695,0.304063618183136
1733231804240441600,0.512441650390625,9.069235801696777,3.8522706031799316,0.15801730751991272
1733231804250451500,0.522451416015625,9.255983352661133,3.8546648025512695,0.035913024097681046
1733231804260430600,0.5324306640625,9.32302188873291,3.8786067962646484,-0.004788403399288654
1733231804270440400,0.5424404296875,9.301473617553711,3.998316764831543,-0.10295066982507706
1733231804280450000,0.552449951171875,9.138668060302734,4.07014274597168,-0.11013327538967133
1733231804290429400,0.562429443359375,8.911218643188477,4.2090067863464355,-0.17238251864910126
1733231804300439000,0.57243896484375,8.652645111083984,4.247313976287842,-0.20111294090747833
1733231804310449000,0.582448974609375,8.449137687683105,4.307168960571289,-0.17956513166427612
1733231804320428300,0.59242822265625,8.233659744262695,4.390965938568115,-0.1388636976480484
1733231804330438000,0.60243798828125,8.197746276855469,4.441244125366211,-0.07182604819536209
1733231804340447700,0.61244775390625,8.362946510314941,4.434061527252197,-0.05746084079146385
1733231804350427000,0.622427001953125,8.597578048706055,4.393360137939453,-0.002394201699644327
1733231804360436700,0.632436767578125,8.908824920654297,4.352658748626709,0.15322890877723694
1733231804370446300,0.6424462890625,9.107542991638184,4.299986362457275,0.24660277366638184
1733231804380425700,0.65242578125,9.27034854888916,4.261679172515869,0.37828385829925537
1733231804390435600,0.662435546875,9.351752281188965,4.285621166229248,0.42377370595932007
1733231804400445200,0.672445068359375,9.351752281188965,4.321534156799316,0.4884171485900879
1733231804410424600,0.682424560546875,9.301473617553711,4.290409564971924,0.5315127968788147
1733231804420434200,0.69243408203125,9.435548782348633,4.264073371887207,0.5410895943641663
1733231804430444000,0.702444091796875,9.576807022094727,4.235342979431152,0.524330198764801
1733231804440454000,0.712453857421875,9.66539192199707,4.175487995147705,0.4692635238170624
1733231804450433000,0.72243310546875,9.749189376831055,4.067748546600342,0.4596867263317108
1733231804460443000,0.73244287109375,9.90241813659668,3.97916316986084,0.40940847992897034
1733231804470452700,0.74245263671875,10.201693534851074,3.909731388092041,0.23942017555236816
1733231804480431900,0.752431884765625,10.333374977111816,3.955221176147461,0.023942016065120697
1733231804490441700,0.762441650390625,10.122684478759766,4.07014274597168,-0.12210428714752197
1733231804500451300,0.772451416015625,9.658209800720215,4.180276393890381,-0.1604115068912506
1733231804510430500,0.782430419921875,9.172186851501465,4.288015365600586,-0.4141969084739685
1733231804520440300,0.7924404296875,8.887276649475098,4.266467571258545,-0.6320692300796509
1733231804530450200,0.8024501953125,8.69095230102539,4.086902141571045,-0.8738836050033569
1733231804540429600,0.8124296875,9.069235801696777,3.706224203109741,-1.015141487121582
1733231804550439200,0.822439208984375,10.098742485046387,3.3207578659057617,-1.1779472827911377
1733231804560449000,0.832448974609375,11.956643104553223,2.942473888397217,-1.2425906658172607
1733231804570428400,0.842428466796875,13.759477615356445,2.58813214302063,-1.3024457693099976
1733231804580438000,0.85243798828125,14.925453186035156,2.3056161403656006,-1.2641384601593018
1733231804590447600,0.862447509765625,15.057134628295898,2.2002713680267334,-1.2234370708465576
1733231804600426800,0.8724267578125,14.334085464477539,2.1284453868865967,-1.2234370708465576
1733231804610436600,0.8824365234375,13.153743743896484,2.1356279850006104,-1.1420341730117798
1733231804620446500,0.892446533203125,11.73398208618164,2.1715409755706787,-1.1492167711257935
1733231804630425900,0.90242578125,10.630255699157715,2.2361843585968018,-1.1851298809051514
1733231804640435500,0.912435546875,9.579200744628906,2.2673089504241943,-1.1683704853057861
1733231804650445300,0.9224453125,8.583212852478027,2.2697031497955322,-1.1037269830703735
1733231804660424700,0.9324248046875,7.881711959838867,2.2146365642547607,-0.9911994934082031
1733231804670434300,0.942434326171875,7.4986395835876465,2.1811177730560303,-0.8954314589500427
1733231804680444200,0.952444091796875,7.354987621307373,2.1715409755706787,-0.8164227604866028
1733231804690453800,0.962453857421875,7.3693528175354,2.1332337856292725,-0.7637503147125244
1733231804700433000,0.972432861328125,7.3238630294799805,2.1811177730560303,-0.6943184733390808
1733231804710442800,0.98244287109375,7.275979042053223,2.2002713680267334,-0.7086837291717529
1733231804720452600,0.99245263671875,7.139509677886963,2.3127987384796143,-0.8571242094039917
1733231804730431700,1.002431640625,6.976703643798828,2.4205379486083984,-1.0438719987869263
1733231804740441600,1.012441650390625,7.017405033111572,2.497152328491211,-1.170764684677124
1733231804750451500,1.022451416015625,7.321468830108643,2.559401512145996,-1.3239935636520386
1733231804760430600,1.0324306640625,7.769184589385986,2.5689783096313477,-1.4772224426269531
1733231804770440400,1.0424404296875,8.2312650680542,2.5282769203186035,-1.4748282432556152
1733231804780450000,1.052449951171875,8.904036521911621,2.4636335372924805,-1.4197616577148438
1733231804790429400,1.062429443359375,9.62947940826416,2.4157495498657227,-1.4532804489135742
1733231804800439000,1.07243896484375,10.548852920532227,2.3367409706115723,-1.4389152526855469
1733231804810449000,1.082448974609375,11.305420875549316,2.360682964324951,-1.3551181554794312
1733231804820428300,1.09242822265625,11.899182319641113,2.3750481605529785,-1.1635819673538208
1733231804830438000,1.10243798828125,11.99255657196045,2.4229321479797363,-1.1276689767837524
1733231804840447700,1.11244775390625,11.717223167419434,2.43011474609375,-1.0869675874710083
1733231804850427000,1.122427001953125,11.176133155822754,2.470816135406494,-0.9457096457481384
1733231804860436700,1.132436767578125,10.20648193359375,2.559401512145996,-0.9169792532920837
1733231804870446600,1.142446533203125,9.296685218811035,2.6599581241607666,-0.9145850539207458
1733231804880425700,1.15242578125,8.688557624816895,2.7126305103302,-0.8571242094039917
1733231804890435600,1.162435546875,8.288725852966309,2.7964274883270264,-0.9217676520347595
1733231804900445200,1.172445068359375,8.056488990783691,2.849100112915039,-0.9696516990661621
1733231804910424600,1.182424560546875,7.884106159210205,2.889801502227783,-1.0462661981582642
1733231804920434200,1.19243408203125,7.872135162353516,2.9520506858825684,-1.113303780555725
1733231804930444000,1.202444091796875,7.9631147384643555,3.0334534645080566,-1.2066776752471924
1733231804940454000,1.212453857421875,7.999027729034424,3.028665065765381,-1.2665326595306396
1733231804950433000,1.22243310546875,8.212111473083496,3.0382418632507324,-1.292868971824646
1733231804960443000,1.23244287109375,8.188169479370117,3.069366693496704,-1.357512354850769
1733231804970452700,1.24245263671875,8.08282470703125,3.1435868740081787,-1.4676456451416016
1733231804980432000,1.252431884765625,7.977479934692383,3.1699230670928955,-1.501164436340332
1733231804990441700,1.262441650390625,7.886500358581543,3.2321722507476807,-1.5705963373184204
1733231805000451300,1.272451416015625,7.943961143493652,3.294421434402466,-1.6400281190872192
1733231805010430500,1.282430419921875,8.130708694458008,3.3423056602478027,-1.7549498081207275
1733231805020440300,1.2924404296875,8.370129585266113,3.3255462646484375,-1.7286136150360107
1733231805030450200,1.3024501953125,8.65982723236084,3.31118106842041,-1.7573440074920654
1733231805040429600,1.3124296875,9.016563415527344,3.2632968425750732,-1.6855180263519287
1733231805050439200,1.322439208984375,9.35893440246582,3.2321722507476807,-1.5945383310317993
1733231805060449000,1.332448974609375,9.557653427124023,3.2752678394317627,-1.5610195398330688
1733231805070428400,1.342428466796875,9.583989143371582,3.315969467163086,-1.479616641998291
1733231805080438000,1.35243798828125,9.428366661071777,3.3877954483032227,-1.3407529592514038
1733231805090447600,1.362447509765625,9.059659004211426,3.464409828186035,-1.216254472732544
1733231805100427000,1.372427001953125,8.671798706054688,3.5889084339141846,-1.2234370708465576
1733231805110436600,1.3824365234375,8.35336971282959,3.7038300037384033,-1.2330138683319092
1733231805120446500,1.392446533203125,8.202534675598145,3.8283286094665527,-1.2090718746185303
1733231805130425900,1.40242578125,8.221688270568848,3.950432777404785,-1.237802267074585
1733231805140435500,1.412435546875,8.401253700256348,4.010287761688232,-1.2856862545013428
1733231805150445300,1.4224453125,8.678980827331543,4.077325344085693,-1.237802267074585
1733231805160424700,1.4324248046875,8.971074104309082,4.0964789390563965,-1.2234370708465576
1733231805170434300,1.442434326171875,9.272743225097656,4.177882194519043,-1.338358759880066
1733231805180444200,1.452444091796875,9.569623947143555,4.247313976287842,-1.381454348564148
1733231805190453800,1.462453857421875,9.919178009033203,4.326322555541992,-1.3215993642807007
1733231805200433000,1.472432861328125,10.089165687561035,4.378994941711426,-1.3192051649093628
1733231805210442800,1.48244287109375,10.103530883789062,4.3861775398254395,-1.3694833517074585
1733231805220452600,1.49245263671875,10.043676376342773,4.443638324737549,-1.3239935636520386
1733231805230431700,1.502431640625,10.06043529510498,4.513070106506348,-1.2210428714752197
1733231805240441600,1.512441650390625,10.156203269958496,4.565742492675781,-1.091755986213684
1733231805250451500,1.522451416015625,10.235212326049805,4.546588897705078,-0.9744400978088379
1733231805260430600,1.5324306640625,10.345345497131348,4.508281707763672,-0.8068459630012512
1733231805270440400,1.5424404296875,10.520122528076172,4.460397720336914,-0.7374141216278076
1733231805280450000,1.552449951171875,10.644620895385742,4.417302131652832,-0.6631938815116882
1733231805290429400,1.562429443359375,10.642226219177246,4.477157115936279,-0.5650315880775452
1733231805300439000,1.57243896484375,10.369287490844727,4.529829502105713,-0.4644751250743866
1733231805310449000,1.582448974609375,9.96945571899414,4.496310710906982,-0.2585737705230713
1733231805320428300,1.59242822265625,9.555258750915527,4.4292731285095215,-0.10055647045373917
1733231805330438000,1.60243798828125,9.318233489990234,4.266467571258545,0.038307227194309235
1733231805340447700,1.61244775390625,9.41639518737793,3.93367338180542,0.4381389021873474
1733231805350427000,1.622427001953125,9.986215591430664,3.4380736351013184,0.6847416758537292
1733231805360436700,1.632436767578125,10.867281913757324,3.112462282180786,0.5793967843055725
1733231805370446600,1.642446533203125,12.097901344299316,2.779668092727661,0.5530605912208557
1733231805380425700,1.65242578125,13.352462768554688,2.5785553455352783,0.5027823448181152
1733231805390435600,1.662435546875,14.27662467956543,2.513911724090576,0.4668693244457245
1733231805400445200,1.672445068359375,14.30774974822998,2.4372973442077637,0.4836287498474121
1733231805410424600,1.682424560546875,13.441048622131348,2.3319525718688965,0.5171475410461426
1733231805420434200,1.69243408203125,12.169727325439453,2.3104045391082764,0.4644751250743866
1733231805430444000,1.702444091796875,10.515334129333496,2.408566951751709,0.2968810200691223
1733231805440454000,1.712453857421875,8.796297073364258,2.4205379486083984,0.20111294090747833
1733231805450433000,1.72243310546875,7.319074630737305,2.367865562438965,0.22026655077934265
1733231805460443000,1.73244287109375,6.0597243309021,2.449268341064453,0.26096799969673157
1733231805470452700,1.74245263671875,5.497087001800537,2.5522189140319824,0.3064578175544739
1733231805480431900,1.752431884765625,5.367800235748291,2.5498247146606445,0.33758243918418884
1733231805490441700,1.762441650390625,5.6455278396606445,2.5785553455352783,0.3998316824436188
1733231805500451300,1.772451416015625,6.1530985832214355,2.542642116546631,0.5722141861915588
1733231805510430500,1.782430419921875,6.619967937469482,2.5522189140319824,0.6512228846549988
1733231805520440300,1.7924404296875,6.967126846313477,2.4612393379211426,0.9002198576927185
1733231805530450200,1.8024501953125,7.067683219909668,2.3558945655822754,1.091755986213684
1733231805540429600,1.8124296875,6.955155849456787,2.315192937850952,1.1971008777618408
1733231805550439200,1.822439208984375,7.094019412994385,2.3032219409942627,1.2042834758758545
1733231805560449000,1.832448974609375,7.484274387359619,2.3080103397369385,1.1013327836990356
1733231805570428400,1.842428466796875,8.130708694458008,2.2194249629974365,1.0295066833496094
1733231805580438000,1.85243798828125,8.96389102935791,2.190694570541382,0.9241618514060974
1733231805590447600,1.862447509765625,10.278307914733887,2.2697031497955322,0.751779317855835
1733231805600426800,1.8724267578125,11.288661003112793,2.3535003662109375,0.6368576288223267
1733231805610436600,1.8824365234375,11.93509578704834,2.3774423599243164,0.6871358752250671
1733231805620446500,1.892446533203125,11.93509578704834,2.4636335372924805,0.7565677165985107
1733231805630425900,1.90242578125,11.319786071777344,2.6216509342193604,0.6512228846549988
1733231805640435500,1.912435546875,10.488997459411621,2.7509377002716064,0.5722141861915588
1733231805650445300,1.9224453125,9.378087997436523,2.911349296569824,0.42616790533065796
1733231805660424700,1.9324248046875,8.53293514251709,2.9735984802246094,0.3519476354122162
1733231805670434300,1.942434326171875,7.778761386871338,2.980781078338623,0.4429273009300232
1733231805680444200,1.952444091796875,7.261613845825195,3.0813376903533936,0.4429273009300232
1733231805690453800,1.962453857421875,6.998251438140869,3.1675288677215576,0.43335050344467163
1733231805700433000,1.972432861328125,7.0317702293396,3.184288263320923,0.49799394607543945
1733231805710442800,1.98244287109375,7.371747016906738,3.1699230670928955,0.5410895943641663
1733231805720452600,1.99245263671875,7.8314337730407715,3.177105665206909,0.4213795065879822
1733231805730431700,2.002431640625,8.219294548034668,3.1890766620635986,0.4381389021873474
1733231805740441600,2.012441650390625,8.614337921142578,3.1890766620635986,0.47165772318840027
1733231805750451500,2.022451416015625,8.927978515625,3.251325845718384,0.43335050344467163
1733231805760430600,2.0324306640625,9.064447402954102,3.315969467163086,0.4141969084739685
1733231805770440400,2.0424404296875,9.102754592895508,3.383007049560547,0.3495534360408783
1733231805780450000,2.052449951171875,9.131484985351562,3.5051112174987793,0.31603461503982544
1733231805790429400,2.062429443359375,9.066842079162598,3.581725835800171,0.37828385829925537
1733231805800439000,2.07243896484375,8.966285705566406,3.620033025741577,0.40940847992897034
1733231805810449000,2.082448974609375,8.880094528198242,3.7014358043670654,0.42377370595932007
1733231805820428300,2.09242822265625,8.944737434387207,3.7421371936798096,0.45010992884635925
1733231805830438000,2.10243798828125,9.157821655273438,3.797203779220581,0.42856210470199585
1733231805840447700,2.11244775390625,9.452308654785156,3.8355112075805664,0.3758896589279175
1733231805850427000,2.122427001953125,9.732429504394531,3.9169139862060547,0.36152446269989014
1733231805860436700,2.132436767578125,9.926360130310059,3.9264907836914062,0.33997663855552673
1733231805870446600,2.142446533203125,9.93354320526123,3.9863457679748535,0.23702596127986908
1733231805880425700,2.15242578125,9.859322547912598,4.065354347229004,0.11971008777618408
1733231805890435600,2.162435546875,9.691728591918945,4.146757125854492,0.009576806798577309
1733231805900445200,2.172445068359375,9.485827445983887,4.180276393890381,-0.0071826050989329815
1733231805910424600,2.182424560546875,9.339780807495117,4.2329487800598145,-0.043095629662275314
1733231805920434200,2.19243408203125,9.339780807495117,4.261679172515869,-0.090979665517807
1733231805930444000,2.202444091796875,9.385271072387695,4.266467571258545,-0.0933738648891449
1733231805940454000,2.212453857421875,9.399636268615723,4.268861770629883,-0.10534487664699554
1733231805950433000,2.22243310546875,9.454702377319336,4.199429988861084,-0.05746084079146385
1733231805960443000,2.23244287109375,9.610325813293457,4.1180267333984375,-0.05985504388809204
1733231805970452700,2.24245263671875,9.823410034179688,4.02465295791626,-0.047884032130241394
1733231805980432000,2.252431884765625,10.02691650390625,3.93367338180542,-0.014365210197865963
1733231805990441700,2.262441650390625,10.002974510192871,3.9240965843200684,0.016759412363171577
1733231806000451300,2.272451416015625,9.75397777557373,4.031835556030273,0.031124621629714966
1733231806010430500,2.282430419921875,9.282320022583008,4.144362926483154,0.08379705995321274
1733231806020440300,2.2924404296875,8.78432559967041,4.134786128997803,0.10773907601833344
1733231806030450200,2.3024501953125,8.391676902770996,4.02465295791626,-0.10295066982507706
1733231806040429600,2.3124296875,8.815450668334961,3.7924153804779053,-0.3232172429561615
1733231806050439200,2.322439208984375,10.821791648864746,3.469198226928711,-0.6440402865409851
1733231806060449000,2.332448974609375,13.129801750183105,3.1459810733795166,-0.9313444495201111
1733231806070428400,2.342428466796875,15.243882179260254,2.6839001178741455,-0.8619126081466675
1733231806080438000,2.35243798828125,16.10818862915039,2.2433669567108154,-0.6991068720817566
1733231806090447600,2.362447509765625,15.873557090759277,1.9321208000183105,-0.5386953949928284
1733231806100426800,2.3724267578125,15.030797958374023,1.8315643072128296,-0.47165772318840027
1733231806110436600,2.3824365234375,13.716381072998047,1.8483237028121948,-0.6344634294509888
1733231806120446500,2.392446533203125,12.370840072631836,1.9919757843017578,-0.9864110946655273
1733231806130425900,2.40242578125,11.255142211914062,2.1475989818573,-1.1635819673538208
1733231806140435500,2.412435546875,9.931148529052734,2.1787235736846924,-1.094150185585022
1733231806150445300,2.4224453125,8.829815864562988,2.183511972427368,-1.192312479019165
1733231806160424700,2.4324248046875,7.7213006019592285,2.2194249629974365,-1.3431471586227417
1733231806170434300,2.442434326171875,6.988674640655518,2.169146776199341,-1.3407529592514038
1733231806180444200,2.452444091796875,6.660669326782227,2.1068975925445557,-1.2330138683319092
1733231806190453800,2.462453857421875,6.72531270980835,2.051830768585205,-1.1276689767837524
1733231806200433000,2.472432861328125,6.936002254486084,2.118868589401245,-1.1348515748977661
1733231806210442800,2.48244287109375,7.141903877258301,2.1475989818573,-1.1444283723831177
1733231806220452600,2.49245263671875,7.438784599304199,2.2218191623687744,-1.1683704853057861
1733231806230431700,2.502431640625,7.572859764099121,2.298433542251587,-1.1851298809051514
1733231806240441600,2.512441650390625,7.649474620819092,2.3798365592956543,-1.3479355573654175
1733231806250451500,2.522451416015625,7.795520782470703,2.4468741416931152,-1.4891934394836426
1733231806260430600,2.5324306640625,8.061277389526367,2.4875755310058594,-1.5418659448623657
1733231806270440400,2.5424404296875,8.396465301513672,2.540247917175293,-1.5131354331970215
1733231806280450000,2.552449951171875,8.705317497253418,2.5689783096313477,-1.455674648284912
1733231806290429400,2.562429443359375,9.062053680419922,2.561795711517334,-1.3646949529647827
1733231806300439000,2.57243896484375,9.30386734008789,2.5067291259765625,-1.2856862545013428
1733231806310449000,2.582448974609375,9.430760383605957,2.4827871322631836,-1.170764684677124
1733231806320428300,2.59242822265625,9.366117477416992,2.5091233253479004,-1.1348515748977661
1733231806330438000,2.60243798828125,9.114726066589355,2.564189910888672,-1.0079588890075684
1733231806340447700,2.61244775390625,8.69334602355957,2.5450363159179688,-0.9193734526634216
1733231806350427000,2.622427001953125,8.35336971282959,2.585737943649292,-0.9241618514060974
1733231806360436700,2.632436767578125,8.121131896972656,2.6168625354766846,-0.8930372595787048
1733231806370446600,2.642446533203125,8.04691219329834,2.6216509342193604,-0.8212111592292786
1733231806380425700,2.65242578125,8.121131896972656,2.6408045291900635,-0.7876923680305481
1733231806390435600,2.662435546875,8.243236541748047,2.6791117191314697,-0.811634361743927
1733231806400445200,2.672445068359375,8.379706382751465,2.7126305103302,-0.8020575642585754
1733231806410424600,2.682424560546875,8.487444877624512,2.765302896499634,-0.7996633648872375
1733231806420434200,2.69243408203125,8.453926086425781,2.8874073028564453,-0.8571242094039917
1733231806430444000,2.702444091796875,8.382100105285645,2.9759926795959473,-0.9145850539207458
1733231806440454000,2.712453857421875,8.370129585266113,3.1076738834381104,-1.0079588890075684
1733231806450433000,2.72243310546875,8.406042098999023,3.2082302570343018,-1.036689281463623
1733231806460443000,2.73244287109375,8.53293514251709,3.2848446369171143,-0.9983820915222168
1733231806470452700,2.74245263671875,8.638279914855957,3.315969467163086,-0.9313444495201111
1733231806480431900,2.752431884765625,8.698134422302246,3.3877954483032227,-0.9193734526634216
1733231806490441700,2.762441650390625,8.734047889709473,3.469198226928711,-0.8906430602073669
1733231806500451300,2.772451416015625,8.753201484680176,3.56017804145813,-0.9145850539207458
1733231806510430500,2.782430419921875,8.645462036132812,3.663128614425659,-0.8762778043746948
1733231806520440300,2.7924404296875,8.501810073852539,3.734954595565796,-0.8834604024887085
1733231806530450200,2.8024501953125,8.346187591552734,3.8810009956359863,-0.933738648891449
1733231806540429600,2.8124296875,8.29830265045166,3.97916316986084,-1.0079588890075684
1733231806550439200,2.822439208984375,8.33182144165039,4.110844135284424,-1.0558429956436157
1733231806560449000,2.832448974609375,8.492233276367188,4.256890773773193,-1.0797849893569946
1733231806570428400,2.842428466796875,8.757989883422852,4.383783340454102,-1.0845733880996704
1733231806580438000,2.85243798828125,8.980650901794434,4.474762916564941,-1.0678139925003052
1733231806590447600,2.862447509765625,9.090784072875977,4.565742492675781,-1.070208191871643
1733231806600426800,2.8724267578125,9.169792175292969,4.69024133682251,-1.1348515748977661
1733231806610436600,2.8824365234375,9.294290542602539,4.8267107009887695,-1.1516109704971313
1733231806620446500,2.892446533203125,9.399636268615723,4.8722004890441895,-1.0893617868423462
1733231806630425900,2.90242578125,9.421183586120605,4.93923807144165,-1.0414776802062988
1733231806640435500,2.912435546875,9.497797966003418,4.972756862640381,-1.091755986213684
1733231806650445300,2.9224453125,9.619902610778809,4.970362663269043,-1.1252747774124146
1733231806660424700,2.9324248046875,9.854534149169922,4.9799394607543945,-1.113303780555725
1733231806670434300,2.942434326171875,10.146626472473145,4.932055473327637,-1.0606313943862915
1733231806680444200,2.952444091796875,10.493785858154297,4.865017890930176,-0.9792284965515137
1733231806690453800,2.962453857421875,10.699687004089355,4.764461517333984,-0.8930372595787048
1733231806700433000,2.972432861328125,10.81700325012207,4.687847137451172,-0.8044517636299133
1733231806710442800,2.98244287109375,10.898406028747559,4.558559894561768,-0.7134721279144287
1733231806720452600,2.99245263671875,10.781089782714844,4.484339714050293,-0.6823474764823914
1733231806730431700,3.002431640625,10.6709566116333,4.479551315307617,-0.4884171485900879
1733231806740441600,3.012441650390625,10.486603736877441,4.422090530395508,-0.2825157940387726
1733231806750451500,3.022451416015625,10.127472877502441,4.323928356170654,-0.031124621629714966
1733231806760430600,3.0324306640625,9.880870819091797,4.046200752258301,0.2777273952960968
1733231806770440400,3.0424404296875,10.086771965026855,3.622427225112915,0.6584054827690125
1733231806780450000,3.052449951171875,10.800244331359863,3.3446998596191406,0.8164227604866028
1733231806790429400,3.062429443359375,12.021286964416504,2.942473888397217,0.9145850539207458
1733231806800439000,3.07243896484375,13.172897338867188,2.52109432220459,1.1444283723831177
1733231806810449000,3.082448974609375,13.82172679901123,2.229001760482788,1.2234370708465576
1733231806820428300,3.09242822265625,14.025233268737793,2.207453966140747,1.192312479019165
1733231806830438000,3.10243798828125,13.61103630065918,2.205059766769409,1.400607943534851
1733231806840447700,3.11244775390625,12.253523826599121,2.1045033931732178,1.5107412338256836
1733231806850427000,3.122427001953125,10.63504409790039,2.1068975925445557,1.3623007535934448
1733231806860436700,3.132436767578125,8.741230010986328,2.3032219409942627,1.2401964664459229
1733231806870446600,3.142446533203125,7.201758861541748,2.360682964324951,1.2306196689605713
1733231806880425700,3.15242578125,5.829881191253662,2.3343467712402344,1.2258312702178955
1733231806890435600,3.162435546875,5.149928092956543,2.3702597618103027,1.0462661981582642
1733231806900445200,3.172445068359375,5.102043628692627,2.27209734916687,1.2737152576446533
1733231806910424600,3.182424560546875,5.171475887298584,2.3104045391082764,1.0271124839782715
1733231806920434200,3.19243408203125,5.714959621429443,2.4229321479797363,1.3958195447921753
1733231806930444000,3.202444091796875,6.689399719238281,2.38462495803833,1.5610195398330688
1733231806940454000,3.212453857421875,7.524975776672363,2.300827741622925,1.4844050407409668
1733231806950433000,3.22243310546875,8.200140953063965,2.070984363555908,1.4389152526855469
1733231806960443000,3.23244287109375,8.695740699768066,1.9129672050476074,1.4221558570861816
1733231806970452700,3.24245263671875,8.899248123168945,1.889025092124939,1.2641384601593018
1733231806980432000,3.252431884765625,8.918401718139648,1.9345149993896484,1.039083480834961
1733231806990441700,3.262441650390625,9.069235801696777,1.8938134908676147,0.9074024558067322
1733231807000451300,3.272451416015625,9.32541561126709,1.867477297782898,0.689530074596405
1733231807010430500,3.282430419921875,9.710882186889648,1.9369091987609863,0.49799394607543945
1733231807020440300,3.2924404296875,9.93593692779541,2.0829553604125977,0.23942017555236816
1733231807030450200,3.3024501953125,9.931148529052734,2.2361843585968018,0.11252748221158981
1733231807040429600,3.3124296875,9.636661529541016,2.38462495803833,0.05746084079146385
1733231807050439200,3.322439208984375,9.27034854888916,2.473210334777832,-0.10773907601833344
1733231807060449000,3.332448974609375,8.911218643188477,2.5306711196899414,-0.21308395266532898
1733231807070428400,3.342428466796875,8.676587104797363,2.6024973392486572,-0.33039984107017517
1733231807080438000,3.35243798828125,8.640673637390137,2.6647465229034424,-0.3495534360408783
1733231807090447600,3.362447509765625,8.638279914855957,2.698265314102173,-0.28730419278144836
1733231807100426800,3.3724267578125,8.614337921142578,2.7317841053009033,-0.16998831927776337
1733231807110436600,3.3824365234375,8.561665534973145,2.7676970958709717,-0.10055647045373917
1733231807120446500,3.392446533203125,8.465897560119629,2.827552318572998,-0.05267243832349777
1733231807130425900,3.40242578125,8.396465301513672,2.851494312286377,0.05985504388809204
1733231807140435500,3.412435546875,8.288725852966309,2.9281086921691895,0.14844051003456116
1733231807150445300,3.4224453125,8.42040729522705,3.0334534645080566,0.22266076505184174
1733231807160424700,3.4324248046875,8.47547435760498,3.1052796840667725,0.2849099934101105
1733231807170434300,3.442434326171875,8.607154846191406,3.1747114658355713,0.3280056416988373
1733231807180444200,3.452444091796875,8.786720275878906,3.246537446975708,0.33518823981285095
1733231807190453800,3.462453857421875,8.96149730682373,3.2848446369171143,0.4812345504760742
1733231807200433000,3.472432861328125,9.117119789123535,3.313575267791748,0.5817909836769104
1733231807210442800,3.48244287109375,9.263166427612305,3.3734302520751953,0.667982280254364
1733231807220452600,3.49245263671875,9.464279174804688,3.488351821899414,0.6129156351089478
1733231807230431700,3.502431640625,9.701305389404297,3.533841609954834,0.507570743560791
1733231807240441600,3.512441650390625,9.859322547912598,3.6104562282562256,0.45489832758903503
1733231807250451500,3.522451416015625,9.99339771270752,3.7158010005950928,0.3926490843296051
1733231807260430600,3.5324306640625,9.950302124023438,3.821146011352539,0.3064578175544739
1733231807270440400,3.5424404296875,9.825803756713867,3.9408559799194336,0.2561795711517334
1733231807280450000,3.552449951171875,9.646238327026367,4.084507942199707,0.17717093229293823
1733231807290429400,3.562429443359375,9.454702377319336,4.1611223220825195,0.09816227108240128
1733231807300439000,3.57243896484375,9.251194953918457,4.19224739074707,0.07182604819536209
1733231807310449000,3.582448974609375,9.239224433898926,4.2544965744018555,0.016759412363171577
1733231807320428300,3.59242822265625,9.428366661071777,4.23773717880249,0.0071826050989329815
1733231807330438000,3.60243798828125,9.588777542114258,4.173093795776367,0.05027823522686958
1733231807340447700,3.61244775390625,9.837775230407715,4.1180267333984375,0.043095629662275314
1733231807350427000,3.622427001953125,10.055646896362305,4.039018154144287,0.07422025501728058
1733231807360436700,3.632436767578125,10.17296314239502,3.9169139862060547,0.09816227108240128
1733231807370446600,3.642446533203125,10.18493366241455,3.7924153804779053,0.12928688526153564
1733231807380425700,3.65242578125,10.02691650390625,3.890577793121338,0.004788403399288654
1733231807390435600,3.662435546875,9.78989028930664,4.01268196105957,-0.10534487664699554
1733231807400445200,3.672445068359375,9.428366661071777,4.048594951629639,-0.19871874153614044
1733231807410424600,3.682424560546875,8.973467826843262,4.0533833503723145,-0.272938996553421
1733231807420434200,3.69243408203125,8.647856712341309,3.892971992492676,-0.272938996553421
1733231807430444000,3.702444091796875,9.093177795410156,3.6535518169403076,-0.5315127968788147
1733231807440454000,3.712453857421875,10.66137981414795,3.4093432426452637,-0.8475474119186401
1733231807450433000,3.72243310546875,12.916718482971191,3.004723072052002,-0.9792284965515137
1733231807460443000,3.73244287109375,14.54716968536377,2.5953147411346436,-0.933738648891449
1733231807470452700,3.74245263671875,15.579070091247559,2.2625205516815186,-0.8212111592292786
1733231807480431900,3.752431884765625,15.543157577514648,1.9847931861877441,-0.6344634294509888
1733231807490441700,3.762441650390625,14.963760375976562,1.86508309841156,-0.3926490843296051
1733231807500451300,3.772451416015625,13.740324020385742,1.98958158493042,-0.5722141861915588
1733231807510430500,3.782430419921875,12.500126838684082,2.032677173614502,-1.1468225717544556
1733231807520440300,3.7924404296875,11.12106704711914,2.1284453868865967,-1.460463047027588
1733231807530450200,3.8024501953125,9.667786598205566,2.1308395862579346,-1.2545616626739502
1733231807540429600,3.8124296875,8.056488990783691,2.1595699787139893,-1.2210428714752197
1733231807550439200,3.822439208984375,6.89530086517334,2.1284453868865967,-1.3048399686813354
1733231807560449000,3.832448974609375,6.117185115814209,2.032677173614502,-1.213860273361206
1733231807570428400,3.842428466796875,5.801150798797607,2.027888774871826,-1.094150185585022
1733231807580438000,3.85243798828125,5.858611583709717,2.0470423698425293,-1.0127472877502441
1733231807590447600,3.862447509765625,6.13633918762207,2.013523578643799,-0.9720458984375
1733231807600426800,3.8724267578125,6.368576526641846,1.9919757843017578,-0.8547300100326538
1733231807610436600,3.8824365234375,6.710947513580322,2.10210919380188,-0.8762778043746948
1733231807620446500,3.892446533203125,6.9455790519714355,2.169146776199341,-0.8834604024887085
1733231807630425900,3.90242578125,7.362170219421387,2.1475989818573,-0.9888052940368652
1733231807640435500,3.912435546875,7.781155586242676,2.1356279850006104,-1.0438719987869263
1733231807650445300,3.9224453125,8.20732307434082,2.1571757793426514,-1.0965443849563599
1733231807660424700,3.9324248046875,8.667010307312012,2.1715409755706787,-1.0654197931289673
1733231807670434300,3.942434326171875,9.406818389892578,2.2649147510528564,-1.091755986213684
1733231807680444200,3.952444091796875,10.0580415725708,2.293645143508911,-1.1180921792984009
1733231807690453800,3.962453857421875,10.529699325561523,2.293645143508911,-0.9600749015808105
1733231807700433000,3.972432861328125,10.618284225463867,2.2673089504241943,-0.9002198576927185
1733231807710442800,3.98244287109375,10.395624160766602,2.322375535964966,-0.8619126081466675
1733231807720452600,3.99245263671875,9.72285270690918,2.4636335372924805,-0.8044517636299133
1733231807730431700,4.002431640625,8.971074104309082,2.5234885215759277,-0.7709329724311829
1733231807740441600,4.012441650390625,8.10437297821045,2.6192567348480225,-0.8834604024887085
1733231807750451500,4.022451416015625,7.599195957183838,2.7437551021575928,-1.0606313943862915
1733231807760430600,4.0324306640625,7.383718013763428,2.779668092727661,-1.05105459690094
1733231807770440400,4.0424404296875,7.493851184844971,2.8395233154296875,-1.0414776802062988
1733231807780450000,4.052449951171875,7.8314337730407715,2.9065608978271484,-1.139639973640442
1733231807790429400,4.062429443359375,8.20732307434082,2.937685489654541,-1.2497732639312744
1733231807800439000,4.07243896484375,8.609549522399902,2.9927520751953125,-1.3120225667953491
1733231807810449000,4.082448974609375,8.87291145324707,3.023876667022705,-1.314416766166687
1733231807820428300,4.09242822265625,9.035717010498047,3.0382418632507324,-1.237802267074585
1733231807830438000,4.10243798828125,8.990227699279785,3.114856481552124,-1.237802267074585
1733231807840447700,4.11244775390625,8.863334655761719,3.184288263320923,-1.2306196689605713
1733231807850427000,4.122427001953125,8.681375503540039,3.1962592601776123,-1.161187767982483
1733231807860436700,4.132436767578125,8.595184326171875,3.2752678394317627,-1.158793568611145
1733231807870446600,4.142446533203125,8.645462036132812,3.354276657104492,-1.1420341730117798
1733231807880426000,4.152426025390625,8.767566680908203,3.4093432426452637,-1.0821791887283325
1733231807890435600,4.162435546875,8.987833023071289,3.4524388313293457,-1.0678139925003052
1733231807900445200,4.172445068359375,9.162610054016113,3.536235809326172,-1.0773907899856567
1733231807910424600,4.182424560546875,9.332598686218262,3.6152446269989014,-1.0606313943862915
1733231807920434200,4.19243408203125,9.339780807495117,3.6511576175689697,-1.0103530883789062
1733231807930444000,4.202444091796875,9.246406555175781,3.7205893993377686,-0.950498104095459
1733231807940454000,4.212453857421875,9.148244857788086,3.8738183975219727,-0.912190854549408
1733231807950433000,4.22243310546875,9.071630477905273,3.9887399673461914,-0.8092401623725891
1733231807960443000,4.23244287109375,9.074024200439453,4.079719543457031,-0.727837324142456
1733231807970452700,4.24245263671875,9.210494041442871,4.165910720825195,-0.689530074596405
1733231807980432000,4.252431884765625,9.284713745117188,4.24970817565918,-0.6416460275650024
1733231807990441700,4.262441650390625,9.296685218811035,4.321534156799316,-0.608127236366272
1733231808000451300,4.272451416015625,9.318233489990234,4.309563159942627,-0.49559974670410156
1733231808010430500,4.282430419921875,9.41639518737793,4.331110954284668,-0.4357447028160095
1733231808020440300,4.2924404296875,9.710882186889648,4.326322555541992,-0.35673606395721436
1733231808030450200,4.3024501953125,9.998186111450195,4.333505153656006,-0.31364041566848755
1733231808040429600,4.3124296875,10.249577522277832,4.2951979637146,-0.27054479718208313
1733231808050439200,4.322439208984375,10.316615104675293,4.264073371887207,-0.2561795711517334
1733231808060449000,4.332448974609375,10.342951774597168,4.235342979431152,-0.304063618183136
1733231808070428200,4.34242822265625,10.18493366241455,4.163516521453857,-0.31364041566848755
1733231808080438000,4.35243798828125,9.923966407775879,4.134786128997803,-0.3471592366695404
1733231808090447600,4.362447509765625,9.627084732055664,4.225766181945801,-0.4141969084739685
1733231808100426800,4.3724267578125,9.241618156433105,4.400542736053467,-0.38307225704193115
1733231808110436600,4.3824365234375,8.729259490966797,4.553771495819092,-0.2346317619085312
1733231808120446500,4.392446533203125,8.47547435760498,4.426878929138184,0.016759412363171577
1733231808130425900,4.40242578125,8.456320762634277,4.0964789390563965,0.49559974670410156
1733231808140435500,4.412435546875,9.361329078674316,3.6774938106536865,0.8020575642585754
1733231808150445300,4.4224453125,11.384428977966309,3.2082302570343018,0.5961562395095825
1733231808160424700,4.4324248046875,13.807361602783203,2.6001031398773193,0.7565677165985107
1733231808170434300,4.442434326171875,15.998055458068848,2.075772762298584,1.0821791887283325
1733231808180444200,4.452444091796875,17.48724937438965,1.8507179021835327,1.1563993692398071
1733231808190453800,4.462453857421875,17.38190460205078,1.867477297782898,1.3910311460494995
1733231808200433000,4.472432861328125,15.976508140563965,1.8986018896102905,1.7717092037200928
1733231808210442800,4.48244287109375,13.934253692626953,2.054224967956543,1.6879122257232666
1733231808220452600,4.49245263671875,11.192893028259277,2.2194249629974365,1.2306196689605713
1733231808230431700,4.502431640625,8.834604263305664,2.403778553009033,1.0462661981582642
1733231808240441600,4.512441650390625,6.418854713439941,2.3271639347076416,0.9768342971801758
1733231808250451500,4.522451416015625,4.886565685272217,2.2361843585968018,0.8427590131759644
1733231808260430600,4.5324306640625,3.8786067962646484,2.2457611560821533,0.7374141216278076
1733231808270440400,4.5424404296875,3.9264907836914062,2.300827741622925,0.47644615173339844
1733231808280450000,4.552449951171875,4.687847137451172,2.097320795059204,1.2258312702178955
1733231808290429400,4.562429443359375,5.784391403198242,2.1571757793426514,1.0319008827209473
1733231808300439000,4.57243896484375,7.007828235626221,2.1499931812286377,1.4915876388549805
1733231808310449000,4.582448974609375,8.14028549194336,2.032677173614502,1.5969325304031372
1733231808320428000,4.592427978515625,8.62391471862793,1.8579005002975464,1.4844050407409668
1733231808330438000,4.60243798828125,9.035717010498047,1.7741034030914307,1.3120225667953491
1733231808340447700,4.61244775390625,9.299078941345215,1.843535304069519,1.1563993692398071
1733231808350427100,4.62242724609375,9.318233489990234,1.9033904075622559,1.1109095811843872
1733231808360436700,4.632436767578125,9.191340446472168,1.8914192914962769,0.7876923680305481
1733231808370446600,4.642446533203125,9.07641887664795,1.8962076902389526,0.5099649429321289
1733231808380425700,4.65242578125,9.035717010498047,2.0422539710998535,0.24899697303771973
1733231808390435600,4.662435546875,9.050082206726074,2.2601263523101807,0.028730420395731926
1733231808400445400,4.672445556640625,9.064447402954102,2.3965959548950195,0.07422025501728058
1733231808410424600,4.682424560546875,8.968679428100586,2.497152328491211,0.0071826050989329815
1733231808420434200,4.69243408203125,8.83699893951416,2.6144683361053467,-0.090979665517807
1733231808430444000,4.702444091796875,8.635885238647461,2.6815059185028076,-0.23942017555236816
1733231808440454000,4.712453857421875,8.429984092712402,2.691082715988159,-0.28730419278144836
1733231808450433000,4.72243310546875,8.283937454223633,2.6886885166168213,-0.17477671802043915
1733231808460443000,4.73244287109375,8.154650688171387,2.736572504043579,-0.043095629662275314
1733231808470452700,4.74245263671875,8.17141056060791,2.75812029838562,0.0071826050989329815
1733231808480431900,4.752431884765625,8.20732307434082,2.7772738933563232,0.10773907601833344
1733231808490441700,4.762441650390625,8.180987358093262,2.786850690841675,0.22266076505184174
1733231808500451300,4.772451416015625,8.178592681884766,2.7724854946136475,0.33758243918418884
1733231808510430500,4.782430419921875,8.214506149291992,2.7964274883270264,0.4429273009300232
1733231808520440300,4.7924404296875,8.322244644165039,2.8227639198303223,0.44532153010368347
1733231808530450200,4.8024501953125,8.530540466308594,2.851494312286377,0.45250412821769714
1733231808540429300,4.81242919921875,8.801085472106934,2.8802247047424316,0.4572925269603729
1733231808550439200,4.822439208984375,9.023746490478516,2.9017724990844727,0.5434837937355042
1733231808560449000,4.832448974609375,9.215282440185547,2.9496564865112305,0.608127236366272
1733231808570428400,4.842428466796875,9.397241592407227,3.0310592651367188,0.6416460275650024
1733231808580438000,4.85243798828125,9.488221168518066,3.1028854846954346,0.6488286852836609
1733231808590447600,4.862447509765625,9.502586364746094,3.1866824626922607,0.6847416758537292
1733231808600427000,4.872427001953125,9.485827445983887,3.2824504375457764,0.6991068720817566
1733231808610436600,4.8824365234375,9.406818389892578,3.3877954483032227,0.6703764796257019
1733231808620446500,4.892446533203125,9.23682975769043,3.490746021270752,0.7493851184844971
1733231808630425600,4.902425537109375,9.119514465332031,3.5960910320281982,0.7469909191131592
1733231808640435500,4.912435546875,9.002198219299316,3.6750996112823486,0.7086837291717529
1733231808650445300,4.9224453125,8.966285705566406,3.7469255924224854,0.6703764796257019
1733231808660424700,4.9324248046875,8.935160636901855,3.823540210723877,0.6224924325942993
1733231808670434300,4.942434326171875,9.081207275390625,3.88818359375,0.5315127968788147
1733231808680444200,4.952444091796875,9.23443603515625,3.93367338180542,0.45489832758903503
1733231808690453800,4.962453857421875,9.32541561126709,3.9432501792907715,0.38546648621559143
1733231808700433000,4.972432861328125,9.526528358459473,3.957615375518799,0.3663128614425659
1733231808710442800,4.98244287109375,9.761159896850586,3.909731388092041,0.43095630407333374
1733231808720452600,4.99245263671875,9.962273597717285,3.847482204437256,0.3974374830722809
1733231808730431700,5.002431640625,10.072406768798828,3.801992416381836,0.38307225704193115
1733231808740441600,5.012441650390625,10.18493366241455,3.7708675861358643,0.4405331015586853
1733231808750451500,5.022451416015625,10.091560363769531,3.732560396194458,0.40701428055763245
1733231808760430600,5.0324306640625,10.005369186401367,3.847482204437256,0.363918662071228
1733231808770440400,5.0424404296875,9.84495735168457,4.005499362945557,0.304063618183136
1733231808780450000,5.052449951171875,9.548076629638672,4.089296340942383,0.2106897532939911
1733231808790429400,5.062429443359375,9.184157371520996,4.1156325340271,-0.014365210197865963
1733231808800439000,5.07243896484375,8.932766914367676,4.043806552886963,-0.1867477297782898
1733231808810449000,5.082448974609375,9.059659004211426,3.7900211811065674,-0.3998316824436188
1733231808820428300,5.09242822265625,10.481815338134766,3.5410242080688477,-0.5578489899635315
1733231808830438000,5.10243798828125,12.72996997833252,3.287238836288452,-0.7158663272857666
1733231808840447700,5.11244775390625,14.781801223754883,2.875436305999756,-0.47884035110473633
1733231808850427000,5.122427001953125,16.172832489013672,2.5785553455352783,-0.4644751250743866
1733231808860436700,5.132436767578125,16.476896286010742,2.3056161403656006,-0.3064578175544739
1733231808870446600,5.142446533203125,16.024391174316406,2.1954829692840576,-0.009576806798577309
1733231808880426000,5.152426025390625,15.047557830810547,2.205059766769409,-0.17238251864910126
1733231808890435600,5.162435546875,13.809755325317383,2.1787235736846924,-0.5793967843055725
1733231808900445200,5.172445068359375,12.471396446228027,2.1763293743133545,-1.1228805780410767
1733231808910424600,5.182424560546875,11.281478881835938,2.1763293743133545,-1.1779472827911377
1733231808920434200,5.19243408203125,9.847352027893066,2.1763293743133545,-0.9552865028381348
1733231808930444000,5.202444091796875,8.528146743774414,2.0661959648132324,-0.9576807022094727
1733231808940454000,5.212453857421875,7.333439826965332,1.9823989868164062,-1.0031704902648926
1733231808950433000,5.22243310546875,6.7061591148376465,1.900996208190918,-1.0678139925003052
1733231808960443000,5.23244287109375,6.287173748016357,1.8602946996688843,-1.072602391242981
1733231808970452700,5.24245263671875,6.2632317543029785,1.8818424940109253,-1.2114660739898682
1733231808980432000,5.252431884765625,6.385335922241211,1.8507179021835327,-0.9840168952941895
1733231808990441700,5.262441650390625,6.521805286407471,1.8938134908676147,-0.912190854549408
1733231809000451300,5.272451416015625,6.641515731811523,1.9991583824157715,-0.9720458984375
1733231809010430500,5.282430419921875,6.7061591148376465,2.094926595687866,-1.1420341730117798
1733231809020440300,5.2924404296875,6.900089263916016,2.142810583114624,-1.170764684677124
1733231809030450200,5.3024501953125,7.479485988616943,2.056619167327881,-1.1755530834197998
1733231809040429600,5.3124296875,8.142680168151855,2.011129379272461,-1.192312479019165
1733231809050439200,5.322439208984375,8.841787338256836,2.056619167327881,-1.0869675874710083
1733231809060449000,5.332448974609375,9.294290542602539,2.1164743900299072,-0.9840168952941895
1733231809070428200,5.34242822265625,9.634267807006836,2.1571757793426514,-1.0414776802062988
1733231809080438000,5.35243798828125,10.06043529510498,2.1811177730560303,-1.139639973640442
1733231809090447600,5.362447509765625,10.309432983398438,2.2170307636260986,-1.1851298809051514
1733231809100426800,5.3724267578125,10.338163375854492,2.2457611560821533,-1.2401964664459229
1733231809110436600,5.3824365234375,10.11789608001709,2.2912509441375732,-1.2090718746185303
1733231809120446500,5.392446533203125,9.75397777557373,2.4013843536376953,-1.2186486721038818
1733231809130425900,5.40242578125,9.294290542602539,2.494758129119873,-1.2737152576446533
1733231809140435500,5.412435546875,8.889671325683594,2.559401512145996,-1.2306196689605713
1733231809150445300,5.4224453125,8.504204750061035,2.5929205417633057,-1.2306196689605713
1733231809160424700,5.4324248046875,8.032546997070312,2.7006595134735107,-1.1755530834197998
1733231809170434300,5.442434326171875,7.762001991271973,2.7916390895843506,-1.1085153818130493
1733231809180444200,5.452444091796875,7.60637903213501,2.8874073028564453,-1.0438719987869263
1733231809190453800,5.462453857421875,7.668628215789795,2.940079689025879,-0.9481038451194763
1733231809200433000,5.472432861328125,7.920019149780273,3.004723072052002,-0.8978256583213806
1733231809210442800,5.48244287109375,8.219294548034668,3.0166940689086914,-0.8427590131759644
1733231809220452600,5.49245263671875,8.367734909057617,3.069366693496704,-0.7996633648872375
1733231809230431700,5.502431640625,8.712499618530273,3.1316158771514893,-0.8236053586006165
1733231809240441600,5.512441650390625,8.954314231872559,3.1220390796661377,-0.8738836050033569
1733231809250451500,5.522451416015625,9.258378028869629,3.1459810733795166,-0.8786720037460327
1733231809260430600,5.5324306640625,9.548076629638672,3.184288263320923,-0.9026140570640564
1733231809270440400,5.5424404296875,9.684545516967773,3.222595453262329,-0.828393816947937
1733231809280450000,5.552449951171875,9.68694019317627,3.265691041946411,-0.8475474119186401
1733231809290429400,5.562429443359375,9.612719535827637,3.294421434402466,-0.8810662031173706
1733231809300439000,5.57243896484375,9.44752025604248,3.3734302520751953,-0.8427590131759644
1733231809310449000,5.582448974609375,9.184157371520996,3.4572272300720215,-0.8738836050033569
1733231809320428000,5.592427978515625,8.801085472106934,3.5458126068115234,-0.8762778043746948
1733231809330438000,5.60243798828125,8.561665534973145,3.620033025741577,-0.9241618514060974
1733231809340447700,5.61244775390625,8.611943244934082,3.687070608139038,-0.9840168952941895
1733231809350427100,5.62242724609375,8.705317497253418,3.7205893993377686,-0.9672574996948242
1733231809360436700,5.632436767578125,8.62630844116211,3.7612907886505127,-0.8930372595787048
1733231809370446600,5.642446533203125,8.576030731201172,3.801992416381836,-0.8068459630012512
1733231809380425700,5.65242578125,8.518569946289062,3.8762125968933105,-0.8140285611152649
1733231809390435600,5.662435546875,8.470685958862305,3.9264907836914062,-0.7805097699165344
1733231809400445400,5.672445556640625,8.463502883911133,3.9911341667175293,-0.7661445140838623
1733231809410424600,5.682424560546875,8.583212852478027,4.046200752258301,-0.7565677165985107
1733231809420434200,5.69243408203125,8.722076416015625,4.082113742828369,-0.7182605266571045
1733231809430444000,5.702444091796875,8.877699851989746,4.086902141571045,-0.6560112833976746
1733231809440454000,5.712453857421875,8.975862503051758,4.079719543457031,-0.6584054827690125
1733231809450433000,5.72243310546875,9.14585018157959,4.120420932769775,-0.6799532771110535
1733231809460443000,5.73244287109375,9.366117477416992,4.153939723968506,-0.6823474764823914
1733231809470452700,5.74245263671875,9.550470352172852,4.1611223220825195,-0.6943184733390808
1733231809480431900,5.752431884765625,9.59835433959961,4.165910720825195,-0.646434485912323
1733231809490441700,5.762441650390625,9.660603523254395,4.1611223220825195,-0.6105214357376099
1733231809500451300,5.772451416015625,9.737217903137207,4.163516521453857,-0.6320692300796509
1733231809510430500,5.782430419921875,9.854534149169922,4.168305397033691,-0.6823474764823914
1733231809520440300,5.7924404296875,10.050858497619629,4.125209331512451,-0.7015010714530945
1733231809530450200,5.8024501953125,10.002974510192871,4.110844135284424,-0.6871358752250671
1733231809540429300,5.81242919921875,9.730035781860352,4.113238334655762,-0.6607996821403503
1733231809550439200,5.822439208984375,9.402029991149902,4.24970817565918,-0.5937620401382446
1733231809560449000,5.832448974609375,9.064447402954102,4.338293552398682,-0.4429273009300232
1733231809570428400,5.842428466796875,8.774748802185059,4.326322555541992,-0.15322890877723694
1733231809580438000,5.85243798828125,8.585607528686523,4.098873138427734,0.09816227108240128
1733231809590447600,5.862447509765625,8.841787338256836,3.737348794937134,0.608127236366272
1733231809600427000,5.872427001953125,9.77791976928711,3.2537200450897217,0.7374141216278076
1733231809610436600,5.8824365234375,10.802638053894043,2.9281086921691895,0.5123591423034668
1733231809620446500,5.892446533203125,12.291831970214844,2.6647465229034424,0.5195417404174805
1733231809630425600,5.902425537109375,13.778631210327148,2.408566951751709,0.6512228846549988
1733231809640435500,5.912435546875,14.903905868530273,2.4013843536376953,0.6560112833976746
1733231809650445300,5.9224453125,14.717158317565918,2.557007312774658,0.4836287498474121
1733231809660424700,5.9324248046875,13.797784805297852,2.5929205417633057,0.5195417404174805
1733231809670434300,5.942434326171875,12.021286964416504,2.557007312774658,0.33758243918418884
1733231809680444200,5.952444091796875,10.319009780883789,2.631227731704712,0.07182604819536209
1733231809690453800,5.962453857421875,8.65743350982666,2.717418909072876,0.014365210197865963
1733231809700433000,5.972432861328125,7.486668586730957,2.6024973392486572,-0.0454898327589035
1733231809710442800,5.98244287109375,6.524199485778809,2.4468741416931152,-0.0933738648891449
1733231809720452600,5.99245263671875,6.217741966247559,2.4157495498657227,-0.06703764945268631
1733231809730431700,6.002431640625,6.629544734954834,2.403778553009033,0.10295066982507706
1733231809740441600,6.012441650390625,7.443572998046875,2.3702597618103027,0.35673606395721436
1733231809750451500,6.022451416015625,8.482656478881836,2.2840683460235596,0.545877993106842
1733231809760430600,6.0324306640625,9.222464561462402,2.099714994430542,0.6368576288223267
1733231809770440400,6.0424404296875,9.59835433959961,1.9393033981323242,0.7541735172271729
1733231809780450000,6.052449951171875,9.749189376831055,1.8722656965255737,0.9768342971801758
1733231809790429400,6.062429443359375,9.770736694335938,1.900996208190918,1.1516109704971313
1733231809800439300,6.072439208984375,9.679757118225098,1.968033790588379,1.1204863786697388
1733231809810449000,6.082448974609375,9.502586364746094,1.9776105880737305,1.1228805780410767
1733231809820428300,6.09242822265625,9.385271072387695,2.0398597717285156,1.048660397529602
1733231809830438000,6.10243798828125,9.248801231384277,2.027888774871826,1.0127472877502441
1733231809840447700,6.11244775390625,9.129091262817383,2.0853497982025146,0.8810662031173706
1733231809850427000,6.122427001953125,9.119514465332031,2.166752576828003,0.7445967197418213
1733231809860436700,6.132436767578125,9.011775016784668,2.185906171798706,0.6416460275650024
1733231809870446600,6.142446533203125,9.028534889221191,2.2385785579681396,0.5626373887062073
1733231809880426000,6.152426025390625,9.14345645904541,2.322375535964966,0.49559974670410156
1733231809890435600,6.162435546875,9.23682975769043,2.3774423599243164,0.33758243918418884
1733231809900445200,6.172445068359375,9.315838813781738,2.4372973442077637,0.22026655077934265
1733231809910424600,6.182424560546875,9.406818389892578,2.494758129119873,0.24899697303771973
1733231809920434200,6.19243408203125,9.409213066101074,2.5258827209472656,0.2849099934101105
1733231809930444000,6.202444091796875,9.224859237670898,2.5665841102600098,0.17956513166427612
1733231809940454000,6.212453857421875,8.87291145324707,2.5905263423919678,0.21308395266532898
1733231809950433000,6.22243310546875,8.437167167663574,2.564189910888672,0.2585737705230713
1733231809960443000,6.23244287109375,8.523358345031738,2.4636335372924805,0.3208230137825012
1733231809970452700,6.24245263671875,9.279925346374512,2.647987127304077,0.05506663769483566
1733231809980432000,6.252431884765625,9.023746490478516,2.846705913543701,-0.7086837291717529
1733231809990441700,6.262441650390625,8.899248123168945,2.983175277709961,-0.05985504388809204
1733231810000451300,6.272451416015625,9.715670585632324,2.983175277709961,0.1149216815829277
1733231810010430500,6.282430419921875,9.59596061706543,2.8802247047424316,-0.10055647045373917
1733231810020440300,6.2924404296875,9.521739959716797,2.8443117141723633,-0.08619125932455063
1733231810030450200,6.3024501953125,9.68694019317627,2.9017724990844727,0.002394201699644327
1733231810040429600,6.3124296875,9.780313491821289,2.978386878967285,-0.05506663769483566
1733231810050439200,6.322439208984375,9.691728591918945,2.8562827110290527,-0.16998831927776337
1733231810060449000,6.332448974609375,9.555258750915527,2.9759926795959473,-0.5793967843055725
1733231810070428200,6.34242822265625,9.311050415039062,3.2082302570343018,-0.6153098344802856
1733231810080438000,6.35243798828125,9.560047149658203,3.2585084438323975,-0.7757213711738586
