time,seconds_elapsed,z,y,x
1732873766921038000,0.1270380859375,-0.97113037109375,-0.141815185546875,0.044952392578125
1732873766931033000,0.137033203125,-0.93670654296875,-0.139190673828125,0.0499725341796875
1732873766941028400,0.1470283203125,-0.891815185546875,-0.1351165771484375,0.052886962890625
1732873766951023400,0.1570234375,-0.85723876953125,-0.1311798095703125,0.0623779296875
1732873766961018400,0.167018310546875,-0.85009765625,-0.13861083984375,0.062164306640625
1732873766971014100,0.17701416015625,-0.86468505859375,-0.1492767333984375,0.049346923828125
1732873766981009200,0.187009033203125,-0.89892578125,-0.15582275390625,0.03668212890625
1732873766991004200,0.197004150390625,-0.93682861328125,-0.146881103515625,0.024658203125
1732873767000999200,0.206999267578125,-0.9746246337890625,-0.1267242431640625,0.009613037109375
1732873767010994200,0.216994140625,-1.010406494140625,-0.1092681884765625,0.006103515625
1732873767020989200,0.2269892578125,-1.03497314453125,-0.09320068359375,0.0047607421875
1732873767030984200,0.236984130859375,-1.0499420166015625,-0.07916259765625,0.0238494873046875
1732873767040979200,0.246979248046875,-1.0780487060546875,-0.0855865478515625,0.043060302734375
1732873767050974200,0.25697412109375,-1.098785400390625,-0.0859375,0.0423126220703125
1732873767060969500,0.266969482421875,-1.0936126708984375,-0.0855712890625,0.039703369140625
1732873767070965200,0.27696533203125,-1.07586669921875,-0.0879058837890625,0.0380096435546875
1732873767080960300,0.286960205078125,-1.0491180419921875,-0.093475341796875,0.02398681640625
1732873767090955300,0.296955322265625,-1.028167724609375,-0.112335205078125,-0.01068115234375
1732873767100950300,0.3069501953125,-1.008514404296875,-0.130340576171875,-0.0223541259765625
1732873767110945300,0.3169453125,-0.9846649169921875,-0.13568115234375,-0.012542724609375
1732873767120940300,0.326940185546875,-0.964141845703125,-0.131622314453125,-0.0041656494140625
1732873767130935300,0.336935302734375,-0.96258544921875,-0.1330413818359375,0.00201416015625
1732873767140930000,0.346929931640625,-0.976715087890625,-0.1329803466796875,0.0312652587890625
1732873767150925000,0.356925048828125,-0.9902191162109375,-0.13824462890625,0.0539398193359375
1732873767160920000,0.366920166015625,-0.998077392578125,-0.1437530517578125,0.0550079345703125
1732873767170916400,0.376916259765625,-0.9921875,-0.1498870849609375,0.0571136474609375
1732873767180911400,0.386911376953125,-0.9853973388671875,-0.15325927734375,0.0570220947265625
1732873767190906400,0.39690625,-0.9837493896484375,-0.1326141357421875,0.0407257080078125
1732873767200901400,0.4069013671875,-0.9904632568359375,-0.1342926025390625,-0.0150299072265625
1732873767210896100,0.416896240234375,-0.980621337890625,-0.1407470703125,-0.027923583984375
1732873767220891100,0.42689111328125,-0.963409423828125,-0.1465911865234375,-0.00946044921875
1732873767230886100,0.43688623046875,-0.95953369140625,-0.155029296875,0.0001068115234375
1732873767240881200,0.446881103515625,-0.9626922607421875,-0.145050048828125,-0.00909423828125
1732873767250876200,0.456876220703125,-0.963165283203125,-0.14593505859375,-0.0124053955078125
1732873767260872400,0.46687255859375,-0.968994140625,-0.155975341796875,0.002166748046875
1732873767270867500,0.476867431640625,-0.9781646728515625,-0.15911865234375,0.0174560546875
1732873767280862200,0.4868623046875,-0.988067626953125,-0.156524658203125,0.0260772705078125
1732873767290857200,0.496857177734375,-0.9974365234375,-0.1574249267578125,0.026824951171875
1732873767300852200,0.506852294921875,-1.00067138671875,-0.1522216796875,0.0190582275390625
1732873767310847200,0.51684716796875,-1.0051116943359375,-0.1533203125,0.01153564453125
1732873767320842200,0.52684228515625,-1.0126190185546875,-0.1606292724609375,0.010223388671875
1732873767330837200,0.536837158203125,-1.010528564453125,-0.1656951904296875,0.006927490234375
1732873767340832300,0.546832275390625,-1.000244140625,-0.1660614013671875,0.002960205078125
1732873767350828300,0.556828369140625,-0.9891510009765625,-0.1656646728515625,0.0024566650390625
1732873767360823000,0.566822998046875,-0.9809722900390625,-0.16705322265625,0.001220703125
1732873767370818000,0.576818115234375,-0.9718475341796875,-0.166168212890625,0.007232666015625
1732873767380813300,0.586813232421875,-0.971588134765625,-0.16253662109375,0.015472412109375
1732873767390808300,0.596808349609375,-0.9737701416015625,-0.1608734130859375,0.007843017578125
1732873767400803300,0.60680322265625,-0.980316162109375,-0.1584625244140625,0.00738525390625
1732873767410798300,0.61679833984375,-0.9831085205078125,-0.161590576171875,0.00921630859375
1732873767420793300,0.62679345703125,-0.9849090576171875,-0.1632080078125,0.0055084228515625
1732873767430789000,0.6367890625,-0.9859771728515625,-0.164093017578125,0.005584716796875
1732873767440784100,0.6467841796875,-0.98748779296875,-0.1630401611328125,0.0049285888671875
1732873767450779100,0.656779052734375,-0.9887237548828125,-0.159942626953125,0.0009918212890625
1732873767460774100,0.666774169921875,-0.99090576171875,-0.1589202880859375,0.0077056884765625
1732873767470769200,0.67676904296875,-0.9937286376953125,-0.1565093994140625,0.00933837890625
1732873767480764200,0.68676416015625,-0.9946441650390625,-0.16168212890625,0.0043487548828125
1732873767490759200,0.69675927734375,-0.989532470703125,-0.161376953125,0.0089874267578125
1732873767500754400,0.70675439453125,-0.9854736328125,-0.1592559814453125,0.009246826171875
1732873767510749400,0.71674951171875,-0.9843902587890625,-0.1610107421875,0.0030517578125
1732873767520745200,0.7267451171875,-0.9898529052734375,-0.1596527099609375,-0.000335693359375
1732873767530740200,0.736740234375,-0.997894287109375,-0.1609954833984375,0.001495361328125
1732873767540735200,0.7467353515625,-1.0119781494140625,-0.1613006591796875,-0.0000152587890625
1732873767550730200,0.756730224609375,-1.0191802978515625,-0.1619415283203125,-0.0059356689453125
1732873767560725200,0.766725341796875,-1.01531982421875,-0.163116455078125,-0.0055084228515625
1732873767570720300,0.77672021484375,-1.004852294921875,-0.161224365234375,0
1732873767580715300,0.78671533203125,-0.9969482421875,-0.1604156494140625,-0.00799560546875
1732873767590711300,0.796711181640625,-0.9830474853515625,-0.1621856689453125,-0.004486083984375
1732873767600706300,0.806706298828125,-0.96905517578125,-0.1661834716796875,0.0098724365234375
1732873767610701300,0.816701416015625,-0.959320068359375,-0.1679534912109375,0.016082763671875
1732873767620696300,0.8266962890625,-0.958526611328125,-0.17279052734375,0.013641357421875
1732873767630691300,0.83669140625,-0.962982177734375,-0.1705780029296875,0.02093505859375
1732873767640686300,0.846686279296875,-0.9665985107421875,-0.16851806640625,0.0248260498046875
1732873767650681300,0.856681396484375,-0.9630889892578125,-0.1685638427734375,0.0227508544921875
1732873767660676400,0.86667626953125,-0.957489013671875,-0.1677093505859375,0.0153961181640625
1732873767670672100,0.876672119140625,-0.956512451171875,-0.1659393310546875,0.0111846923828125
1732873767680667100,0.886667236328125,-0.96337890625,-0.16571044921875,0.007568359375
1732873767690662100,0.896662109375,-0.982696533203125,-0.1658782958984375,-0.004150390625
1732873767700657400,0.906657470703125,-1.004058837890625,-0.16717529296875,-0.009063720703125
1732873767710652400,0.91665234375,-1.0161285400390625,-0.1692352294921875,-0.00714111328125
1732873767720647400,0.9266474609375,-1.0201873779296875,-0.1713104248046875,-0.005157470703125
1732873767730642400,0.936642333984375,-1.012176513671875,-0.1686859130859375,-0.003204345703125
1732873767740637200,0.94663720703125,-1.003753662109375,-0.1667938232421875,-0.003753662109375
1732873767750633200,0.95663330078125,-0.9991607666015625,-0.1631317138671875,-0.008636474609375
1732873767760628200,0.966628173828125,-1.0038604736328125,-0.1567230224609375,-0.010589599609375
1732873767770623200,0.976623291015625,-1.0121612548828125,-0.15264892578125,-0.0142059326171875
1732873767780618200,0.9866181640625,-1.020263671875,-0.1508636474609375,-0.0267486572265625
1732873767790613200,0.99661328125,-1.0281829833984375,-0.1560821533203125,-0.0400543212890625
1732873767800608300,1.006608154296875,-1.0259857177734375,-0.1602020263671875,-0.047149658203125
1732873767810603300,1.016603271484375,-1.01629638671875,-0.1602783203125,-0.0527496337890625
1732873767820599300,1.026599365234375,-1.0069427490234375,-0.15728759765625,-0.057342529296875
1732873767830594300,1.03659423828125,-0.9962615966796875,-0.1541290283203125,-0.0623321533203125
1732873767840589300,1.04658935546875,-0.989532470703125,-0.153900146484375,-0.073089599609375
1732873767850584300,1.056584228515625,-0.9814605712890625,-0.159210205078125,-0.0883941650390625
1732873767860579300,1.066579345703125,-0.9715728759765625,-0.17022705078125,-0.1074676513671875
1732873767870574300,1.07657421875,-0.956512451171875,-0.171966552734375,-0.1302642822265625
1732873767880569300,1.0865693359375,-0.94378662109375,-0.1741485595703125,-0.150604248046875
1732873767890564000,1.096564208984375,-0.9269256591796875,-0.172332763671875,-0.1670989990234375
1732873767900560100,1.10656005859375,-0.9086456298828125,-0.166595458984375,-0.1825408935546875
1732873767910555400,1.116555419921875,-0.8992767333984375,-0.1580810546875,-0.1876068115234375
1732873767920550400,1.12655029296875,-0.9011383056640625,-0.160400390625,-0.1864776611328125
1732873767930545400,1.13654541015625,-0.9091644287109375,-0.153472900390625,-0.1920013427734375
1732873767940540400,1.14654052734375,-0.9306793212890625,-0.1652069091796875,-0.1943359375
1732873767950535400,1.156535400390625,-0.9246368408203125,-0.180816650390625,-0.1954498291015625
1732873767960530200,1.1665302734375,-0.9027862548828125,-0.1888275146484375,-0.2029876708984375
1732873767970525200,1.176525146484375,-0.88232421875,-0.19622802734375,-0.212738037109375
1732873767980521200,1.186521240234375,-0.871429443359375,-0.2049560546875,-0.214935302734375
1732873767990516200,1.19651611328125,-0.8715972900390625,-0.20684814453125,-0.198944091796875
1732873768000511200,1.20651123046875,-0.8821258544921875,-0.202728271484375,-0.1746978759765625
1732873768010506200,1.21650634765625,-0.9008026123046875,-0.1946868896484375,-0.1407012939453125
1732873768020501200,1.226501220703125,-0.925079345703125,-0.1795501708984375,-0.102447509765625
1732873768030496300,1.236496337890625,-0.9607086181640625,-0.169464111328125,-0.07427978515625
1732873768040491300,1.2464912109375,-1.0051422119140625,-0.168975830078125,-0.0687103271484375
1732873768050486300,1.256486328125,-1.0499267578125,-0.157867431640625,-0.0760040283203125
1732873768060482300,1.266482421875,-1.09930419921875,-0.1409759521484375,-0.09027099609375
1732873768070477300,1.276477294921875,-1.1351165771484375,-0.1575164794921875,-0.0848846435546875
1732873768080472300,1.286472412109375,-1.1483001708984375,-0.15966796875,-0.1037139892578125
1732873768090467300,1.29646728515625,-1.163421630859375,-0.15753173828125,-0.10174560546875
1732873768100462000,1.306462158203125,-1.17364501953125,-0.1530303955078125,-0.0959014892578125
1732873768110457000,1.31645703125,-1.16632080078125,-0.1521148681640625,-0.097137451171875
1732873768120452000,1.3264521484375,-1.1347808837890625,-0.147216796875,-0.112548828125
1732873768130448400,1.336448486328125,-1.0942535400390625,-0.1444549560546875,-0.128204345703125
1732873768140443400,1.346443359375,-1.0458831787109375,-0.1605377197265625,-0.129547119140625
1732873768150438400,1.3564384765625,-0.9896392822265625,-0.16131591796875,-0.133331298828125
1732873768160433400,1.366433349609375,-0.9412994384765625,-0.146759033203125,-0.157562255859375
1732873768170428200,1.37642822265625,-0.907440185546875,-0.1526947021484375,-0.190948486328125
1732873768180423200,1.386423095703125,-0.8871917724609375,-0.17401123046875,-0.185577392578125
1732873768190418200,1.396418212890625,-0.8955230712890625,-0.1815338134765625,-0.19696044921875
1732873768200413200,1.4064130859375,-0.93115234375,-0.1887054443359375,-0.2085113525390625
1732873768210409200,1.4164091796875,-0.966583251953125,-0.1945648193359375,-0.21856689453125
1732873768220404200,1.426404296875,-0.97857666015625,-0.2044525146484375,-0.220794677734375
1732873768230399200,1.436399169921875,-0.966400146484375,-0.2201080322265625,-0.1982574462890625
1732873768240394200,1.446394287109375,-0.9437408447265625,-0.2083740234375,-0.1984100341796875
1732873768250389200,1.45638916015625,-0.9298248291015625,-0.204071044921875,-0.2038726806640625
1732873768260384300,1.46638427734375,-0.9402008056640625,-0.1976776123046875,-0.2129058837890625
1732873768270379300,1.476379150390625,-0.9578857421875,-0.188232421875,-0.1924896240234375
1732873768280374300,1.486374267578125,-0.9912872314453125,-0.138336181640625,-0.1627044677734375
1732873768290370300,1.496370361328125,-1.059051513671875,-0.146881103515625,-0.1564178466796875
1732873768300365300,1.506365234375,-1.117218017578125,-0.1595306396484375,-0.116607666015625
1732873768310360300,1.5163603515625,-1.13671875,-0.1577911376953125,-0.083984375
1732873768320355000,1.52635498046875,-1.1441192626953125,-0.1727752685546875,-0.0656585693359375
1732873768330350000,1.53635009765625,-1.1401824951171875,-0.1767120361328125,-0.0480194091796875
1732873768340345000,1.546344970703125,-1.1187896728515625,-0.174896240234375,-0.050018310546875
1732873768350340400,1.55634033203125,-1.0933074951171875,-0.1785888671875,-0.05340576171875
1732873768360336400,1.56633642578125,-1.076171875,-0.219146728515625,-0.082672119140625
1732873768370331400,1.576331298828125,-1.0591583251953125,-0.266571044921875,-0.1060028076171875
1732873768380326100,1.586326171875,-1.0301513671875,-0.28607177734375,-0.104461669921875
1732873768390321200,1.596321044921875,-1.0081024169921875,-0.3139801025390625,-0.0362091064453125
1732873768400316200,1.606316162109375,-1.004669189453125,-0.3223876953125,0.0512237548828125
1732873768410311200,1.616311279296875,-1.0342864990234375,-0.302001953125,0.1201629638671875
1732873768420306200,1.62630615234375,-1.0960693359375,-0.2513275146484375,0.1684417724609375
1732873768430301200,1.63630126953125,-1.171661376953125,-0.2285003662109375,0.208740234375
1732873768440297500,1.64629736328125,-1.2259674072265625,-0.246337890625,0.2345123291015625
1732873768450292200,1.656292236328125,-1.2200775146484375,-0.2784881591796875,0.216949462890625
1732873768460287200,1.666287353515625,-1.1250152587890625,-0.3083343505859375,0.1819305419921875
1732873768470282200,1.6762822265625,-0.9789886474609375,-0.3243408203125,0.1415252685546875
1732873768480277200,1.68627734375,-0.85662841796875,-0.33062744140625,0.0991363525390625
1732873768490272300,1.696272216796875,-0.7965545654296875,-0.3314361572265625,0.0700531005859375
1732873768500267300,1.706267333984375,-0.7801971435546875,-0.31243896484375,0.0573883056640625
1732873768510262300,1.71626220703125,-0.816619873046875,-0.2839202880859375,0.07373046875
1732873768520258300,1.72625830078125,-0.892822265625,-0.2484130859375,0.088592529296875
1732873768530253000,1.736253173828125,-0.9637908935546875,-0.225372314453125,0.0995635986328125
1732873768540248000,1.746248046875,-1.04449462890625,-0.2248687744140625,0.1363983154296875
1732873768550243000,1.7562431640625,-1.1058197021484375,-0.24078369140625,0.159088134765625
1732873768560238300,1.76623828125,-1.118194580078125,-0.26141357421875,0.1429595947265625
1732873768570233300,1.7762333984375,-1.07611083984375,-0.2852020263671875,0.1284942626953125
1732873768580228400,1.786228271484375,-0.998626708984375,-0.3058624267578125,0.1160125732421875
1732873768590224400,1.796224365234375,-0.914093017578125,-0.3190765380859375,0.11163330078125
1732873768600219100,1.80621923828125,-0.843963623046875,-0.315887451171875,0.116455078125
1732873768610214100,1.816214111328125,-0.79840087890625,-0.3165130615234375,0.128570556640625
1732873768620209200,1.826209228515625,-0.771575927734375,-0.3157501220703125,0.1454010009765625
1732873768630204200,1.8362041015625,-0.7554473876953125,-0.307220458984375,0.1438446044921875
1732873768640199200,1.84619921875,-0.75140380859375,-0.3066253662109375,0.134674072265625
1732873768650194200,1.856194091796875,-0.7551116943359375,-0.296661376953125,0.1223602294921875
1732873768660190500,1.8661904296875,-0.7508392333984375,-0.289825439453125,0.12060546875
1732873768670185200,1.876185302734375,-0.7341766357421875,-0.2717437744140625,0.0912322998046875
1732873768680180200,1.88618017578125,-0.7266082763671875,-0.257965087890625,0.0361328125
1732873768690175200,1.89617529296875,-0.733856201171875,-0.25616455078125,0.0172119140625
1732873768700170200,1.906170166015625,-0.753631591796875,-0.2574462890625,0.00140380859375
1732873768710165200,1.916165283203125,-0.7850494384765625,-0.2560577392578125,-0.0049896240234375
1732873768720160300,1.92616015625,-0.8223876953125,-0.2416534423828125,0.0130767822265625
1732873768730155300,1.9361552734375,-0.869720458984375,-0.23358154296875,0.03619384765625
1732873768740151000,1.946151123046875,-0.9249725341796875,-0.2352752685546875,0.0468902587890625
1732873768750146000,1.95614599609375,-0.9649658203125,-0.236328125,0.0393218994140625
1732873768760141000,1.96614111328125,-0.98211669921875,-0.2342987060546875,0.0267486572265625
1732873768770136300,1.97613623046875,-0.9817352294921875,-0.228240966796875,0.0092926025390625
1732873768780131300,1.98613134765625,-0.975311279296875,-0.2257843017578125,-0.0108184814453125
1732873768790126300,1.996126220703125,-0.9736785888671875,-0.2353515625,-0.0305938720703125
1732873768800121300,2.006121337890625,-0.9747772216796875,-0.24310302734375,-0.0475311279296875
1732873768810117000,2.0161171875,-0.984954833984375,-0.2581939697265625,-0.0736236572265625
1732873768820112100,2.026112060546875,-0.99285888671875,-0.2758026123046875,-0.092254638671875
1732873768830107100,2.036107177734375,-1.0039215087890625,-0.2891998291015625,-0.09796142578125
1732873768840102100,2.04610205078125,-1.0166168212890625,-0.3007965087890625,-0.1034698486328125
1732873768850097200,2.05609716796875,-1.0198822021484375,-0.3047637939453125,-0.1044464111328125
1732873768860092200,2.066092041015625,-1.0194244384765625,-0.3032684326171875,-0.1053466796875
1732873768870087200,2.076087158203125,-1.014984130859375,-0.30010986328125,-0.1045074462890625
1732873768880082200,2.086082275390625,-1.01739501953125,-0.2855377197265625,-0.1068115234375
1732873768890078200,2.096078125,-1.0273895263671875,-0.269134521484375,-0.1046142578125
1732873768900073200,2.1060732421875,-1.043182373046875,-0.266357421875,-0.106903076171875
1732873768910068200,2.116068115234375,-1.045440673828125,-0.25830078125,-0.099700927734375
1732873768920063200,2.126063232421875,-1.034027099609375,-0.266082763671875,-0.079132080078125
1732873768930058200,2.136058349609375,-1.012420654296875,-0.2948150634765625,-0.04852294921875
1732873768940053200,2.14605322265625,-0.96722412109375,-0.312591552734375,-0.0137786865234375
1732873768950048300,2.15604833984375,-0.9154510498046875,-0.31072998046875,0.0091705322265625
1732873768960044000,2.1660439453125,-0.869537353515625,-0.3053436279296875,-0.0018768310546875
1732873768970039300,2.176039306640625,-0.84100341796875,-0.2845458984375,-0.0186614990234375
1732873768980034300,2.186034423828125,-0.8441619873046875,-0.2754364013671875,-0.0076751708984375
1732873768990029300,2.196029296875,-0.8837432861328125,-0.2642974853515625,0.002349853515625
1732873769000024300,2.2060244140625,-0.9510955810546875,-0.2476043701171875,0.044708251953125
1732873769010019300,2.216019287109375,-1.0237274169921875,-0.2208251953125,0.04840087890625
1732873769020014300,2.226014404296875,-1.109832763671875,-0.2532501220703125,0.00579833984375
1732873769030009300,2.23600927734375,-1.1741790771484375,-0.2888031005859375,-0.03857421875
1732873769040005000,2.246005126953125,-1.172119140625,-0.27294921875,-0.1002197265625
1732873769050000100,2.256000244140625,-1.140411376953125,-0.2089080810546875,-0.160491943359375
1732873769059995100,2.2659951171875,-1.1043548583984375,0.021759033203125,-0.1734466552734375
1732873769069990100,2.275990234375,-1.16717529296875,0.202850341796875,-0.1668853759765625
1732873769079985200,2.285985107421875,-1.40087890625,0.1899566650390625,-0.160400390625
1732873769089980400,2.29598046875,-1.6536712646484375,0.130218505859375,-0.0350494384765625
1732873769099976200,2.30597607421875,-1.7468719482421875,0.156005859375,0.0832672119140625
1732873769109971200,2.31597119140625,-1.6710357666015625,0.081024169921875,0.083099365234375
1732873769119966200,2.32596630859375,-1.41778564453125,0.015655517578125,0.090728759765625
1732873769129961200,2.335961181640625,-1.1263580322265625,-0.01556396484375,0.075714111328125
1732873769139956200,2.345956298828125,-0.8878631591796875,-0.0577850341796875,0.01220703125
1732873769149951200,2.355951171875,-0.7032470703125,-0.132171630859375,-0.024139404296875
1732873769159946200,2.3659462890625,-0.586029052734375,-0.1700439453125,-0.0597686767578125
1732873769169941200,2.375941162109375,-0.5206298828125,-0.1705322265625,-0.03985595703125
1732873769179937300,2.385937255859375,-0.53363037109375,-0.1673583984375,-0.007080078125
1732873769189932300,2.395932373046875,-0.6185150146484375,-0.143707275390625,-0.0002288818359375
1732873769199927300,2.40592724609375,-0.763824462890625,-0.078155517578125,-0.0408477783203125
1732873769209922300,2.41592236328125,-0.91839599609375,-0.023040771484375,-0.0907745361328125
1732873769219917300,2.425917236328125,-1.06390380859375,-0.04278564453125,-0.0510406494140625
1732873769229912300,2.435912353515625,-1.1362457275390625,-0.0415802001953125,-0.0283050537109375
1732873769239907300,2.4459072265625,-1.1483154296875,-0.024078369140625,-0.059051513671875
1732873769249903000,2.455903076171875,-1.12969970703125,-0.0524139404296875,-0.051513671875
1732873769259898000,2.465898193359375,-1.0770263671875,-0.0764007568359375,-0.0377197265625
1732873769269893000,2.47589306640625,-0.9880218505859375,-0.088714599609375,-0.041046142578125
1732873769279888100,2.48588818359375,-0.910064697265625,-0.1134490966796875,-0.0371551513671875
1732873769289883100,2.495883056640625,-0.8755950927734375,-0.1337890625,-0.0219573974609375
1732873769299878400,2.50587841796875,-0.858734130859375,-0.149627685546875,-0.01898193359375
1732873769309873400,2.515873291015625,-0.8517608642578125,-0.1683197021484375,-0.0106964111328125
1732873769319869200,2.525869140625,-0.87115478515625,-0.1837310791015625,-0.0034942626953125
1732873769329864200,2.5358642578125,-0.89111328125,-0.192901611328125,-0.000335693359375
1732873769339859200,2.545859130859375,-0.8977508544921875,-0.196746826171875,-0.005615234375
1732873769349854200,2.555854248046875,-0.8957366943359375,-0.2002410888671875,-0.0042877197265625
1732873769359849200,2.56584912109375,-0.90325927734375,-0.1978302001953125,-0.0051727294921875
1732873769369844200,2.57584423828125,-0.9171142578125,-0.1869049072265625,-0.0153656005859375
1732873769379839200,2.585839111328125,-0.9257965087890625,-0.1760711669921875,-0.0264892578125
1732873769389835300,2.595835205078125,-0.9329376220703125,-0.1705169677734375,-0.04583740234375
1732873769399830300,2.605830322265625,-0.945068359375,-0.1558380126953125,-0.034027099609375
1732873769409825300,2.6158251953125,-0.9494476318359375,-0.1406402587890625,-0.0114288330078125
1732873769419820300,2.6258203125,-0.9613800048828125,-0.1356964111328125,0.007415771484375
1732873769429815300,2.635815185546875,-0.9865264892578125,-0.1198577880859375,0.029144287109375
1732873769439810800,2.645810791015625,-0.990570068359375,-0.11981201171875,0.0355987548828125
1732873769449805800,2.655805908203125,-0.9748382568359375,-0.1294708251953125,0.0259552001953125
1732873769459801600,2.665801513671875,-0.942230224609375,-0.12652587890625,0.004180908203125
1732873769469796900,2.675796875,-0.9733428955078125,-0.1157989501953125,0.0185546875
1732873769479791900,2.6857919921875,-1.0097808837890625,-0.0789947509765625,0.0049896240234375
1732873769489787000,2.695786865234375,-1.031707763671875,-0.1721649169921875,-0.06414794921875
1732873769499782000,2.705781982421875,-1.0509490966796875,-0.1779022216796875,-0.0741729736328125
1732873769509777000,2.71577685546875,-1.0588836669921875,-0.1447906494140625,-0.1027374267578125
1732873769519772000,2.72577197265625,-1.0746002197265625,-0.1851348876953125,-0.12567138671875
1732873769529767700,2.735767578125,-1.0889892578125,-0.2225494384765625,-0.1335296630859375
1732873769539762700,2.7457626953125,-1.0524139404296875,-0.2325897216796875,-0.1328277587890625
1732873769549757700,2.7557578125,-1.000396728515625,-0.235565185546875,-0.1319427490234375
1732873769559752700,2.765752685546875,-0.982421875,-0.2375640869140625,-0.15362548828125
1732873769569747700,2.775747802734375,-0.9963531494140625,-0.186981201171875,-0.1728973388671875
1732873769579743000,2.785742919921875,-1.0463409423828125,-0.1125030517578125,-0.190277099609375
1732873769589738000,2.795738037109375,-1.1420440673828125,-0.0732421875,-0.1970062255859375
1732873769599733800,2.805733642578125,-1.2526702880859375,-0.0943145751953125,-0.167022705078125
1732873769609728800,2.815728759765625,-1.3126983642578125,-0.189727783203125,-0.065216064453125
1732873769619723800,2.825723876953125,-1.2921295166015625,-0.2818756103515625,0.0086517333984375
1732873769629718800,2.83571875,-1.1951751708984375,-0.3143310546875,0.0746612548828125
1732873769639713800,2.8457138671875,-1.023284912109375,-0.3094635009765625,0.2570648193359375
1732873769649708800,2.855708740234375,-0.843414306640625,-0.3743896484375,0.286590576171875
1732873769659704600,2.86570458984375,-0.6811370849609375,-0.38800048828125,0.262115478515625
1732873769669699800,2.875699951171875,-0.5670623779296875,-0.3718414306640625,0.31866455078125
1732873769679694800,2.88569482421875,-0.5232696533203125,-0.3961334228515625,0.2389068603515625
1732873769689689900,2.89568994140625,-0.547515869140625,-0.355926513671875,0.1199188232421875
1732873769699684900,2.905684814453125,-0.6514739990234375,-0.3364410400390625,0.06951904296875
1732873769709679900,2.915679931640625,-0.8143463134765625,-0.2818603515625,0.0269622802734375
1732873769719675000,2.9256748046875,-0.97784423828125,-0.2278900146484375,-0.054107666015625
1732873769729670700,2.935670654296875,-1.14678955078125,-0.2056884765625,-0.1074981689453125
1732873769739665700,2.945665771484375,-1.2821197509765625,-0.2120361328125,-0.14544677734375
1732873769749660700,2.95566064453125,-1.315032958984375,-0.2382354736328125,-0.1827239990234375
1732873769759655700,2.96565576171875,-1.246429443359375,-0.235382080078125,-0.1873931884765625
1732873769769650700,2.975650634765625,-1.0951690673828125,-0.1595306396484375,-0.061492919921875
1732873769779645700,2.985645751953125,-0.95416259765625,-0.180908203125,-0.022369384765625
1732873769789642000,2.99564208984375,-0.8751068115234375,-0.1660919189453125,0.018707275390625
1732873769799636700,3.00563671875,-0.8166656494140625,-0.1307525634765625,0.1056365966796875
1732873769809631700,3.0156318359375,-0.777923583984375,-0.1406097412109375,0.1704559326171875
1732873769819626800,3.025626708984375,-0.7868804931640625,-0.165008544921875,0.1888275146484375
1732873769829621800,3.035621826171875,-0.804840087890625,-0.2157745361328125,0.181732177734375
1732873769839616800,3.04561669921875,-0.821044921875,-0.24371337890625,0.1649017333984375
1732873769849611800,3.05561181640625,-0.83154296875,-0.28411865234375,0.125457763671875
1732873769859607800,3.06560791015625,-0.83197021484375,-0.3374481201171875,0.0467376708984375
1732873769869602600,3.0756025390625,-0.82037353515625,-0.3680572509765625,-0.034332275390625
1732873769879597800,3.085597900390625,-0.813751220703125,-0.39404296875,-0.10546875
1732873769889592800,3.0955927734375,-0.8258514404296875,-0.4285125732421875,-0.1966705322265625
1732873769899587800,3.105587890625,-0.848052978515625,-0.3867950439453125,-0.2046966552734375
1732873769909582800,3.115582763671875,-0.887542724609375,-0.325408935546875,-0.1499786376953125
1732873769919579000,3.125578857421875,-0.9511871337890625,-0.243133544921875,-0.0281219482421875
1732873769929574000,3.135573974609375,-1.04498291015625,-0.2279205322265625,0.011627197265625
1732873769939568600,3.145568603515625,-1.1340179443359375,-0.2011871337890625,0.01739501953125
1732873769949563600,3.155563720703125,-1.2031097412109375,-0.1632537841796875,0.072845458984375
1732873769959558700,3.16555859375,-1.23468017578125,-0.1342315673828125,0.0611724853515625
1732873769969553700,3.1755537109375,-1.2604522705078125,-0.1468963623046875,0.05914306640625
1732873769979548700,3.185548583984375,-1.2607269287109375,-0.1930999755859375,0.0777435302734375
1732873769989545000,3.195544921875,-1.1951446533203125,-0.211578369140625,-0.007598876953125
1732873769999540000,3.2055400390625,-1.07562255859375,-0.2389984130859375,-0.05401611328125
1732873770009534700,3.21553466796875,-0.9170379638671875,-0.284698486328125,0.0010833740234375
1732873770019529700,3.22552978515625,-0.808624267578125,-0.287139892578125,0.007598876953125
1732873770029524700,3.235524658203125,-0.7672882080078125,-0.27142333984375,-0.0159149169921875
1732873770039519700,3.245519775390625,-0.78369140625,-0.3154449462890625,-0.1378173828125
1732873770049515800,3.255515869140625,-0.8564605712890625,-0.3622589111328125,-0.291961669921875
1732873770059510800,3.2655107421875,-0.9381256103515625,-0.3036956787109375,-0.2247467041015625
1732873770069505800,3.275505859375,-1.0173797607421875,-0.2670135498046875,-0.136749267578125
1732873770079500800,3.285500732421875,-1.0738677978515625,-0.2284393310546875,-0.19488525390625
1732873770089495800,3.295495849609375,-1.1448211669921875,-0.1410675048828125,-0.2571868896484375
1732873770099490800,3.30549072265625,-1.2516021728515625,-0.0924835205078125,-0.297454833984375
1732873770109485800,3.31548583984375,-1.344390869140625,-0.0579071044921875,-0.26348876953125
1732873770119481900,3.32548193359375,-1.4123992919921875,-0.0675811767578125,-0.15716552734375
1732873770129476900,3.335476806640625,-1.4313812255859375,-0.104217529296875,-0.005401611328125
1732873770139472000,3.345471923828125,-1.3751068115234375,-0.1426544189453125,0.11651611328125
1732873770149467000,3.355466796875,-1.2468719482421875,-0.1529693603515625,0.185394287109375
1732873770159461600,3.365461669921875,-1.07476806640625,-0.155548095703125,0.1929779052734375
1732873770169456600,3.37545654296875,-0.9089508056640625,-0.168487548828125,0.1511688232421875
1732873770179453000,3.385452880859375,-0.7816162109375,-0.1645660400390625,0.11376953125
1732873770189448000,3.395447998046875,-0.686126708984375,-0.1601409912109375,0.0891265869140625
1732873770199443000,3.40544287109375,-0.641387939453125,-0.1330108642578125,0.0748443603515625
1732873770209438000,3.41543798828125,-0.6806640625,-0.1168670654296875,0.0181732177734375
1732873770219432700,3.4254326171875,-0.7800140380859375,-0.0720977783203125,0.0485382080078125
1732873770229427700,3.435427734375,-0.9415435791015625,-0.0189666748046875,0.1031494140625
1732873770239423700,3.445423828125,-1.101165771484375,0.0246429443359375,0.12451171875
1732873770249418800,3.455418701171875,-1.236297607421875,0.0284576416015625,0.12060546875
1732873770259413800,3.465413818359375,-1.3037872314453125,0.0040740966796875,0.1151275634765625
1732873770269408800,3.47540869140625,-1.272552490234375,-0.035003662109375,0.0832977294921875
1732873770279403800,3.48540380859375,-1.1425018310546875,-0.079345703125,0.0404510498046875
1732873770289398800,3.495398681640625,-0.9844512939453125,-0.112548828125,0.0225067138671875
1732873770299394800,3.505394775390625,-0.85400390625,-0.128021240234375,0.01812744140625
1732873770309389800,3.515389892578125,-0.77899169921875,-0.165435791015625,-0.0107574462890625
1732873770319384800,3.525384765625,-0.7670135498046875,-0.204833984375,-0.02325439453125
1732873770329379800,3.5353798828125,-0.7798309326171875,-0.216522216796875,-0.0001678466796875
1732873770339374800,3.545374755859375,-0.8054046630859375,-0.22418212890625,0.0153045654296875
1732873770349369900,3.555369873046875,-0.8329315185546875,-0.224517822265625,0.0196533203125
1732873770359364900,3.56536474609375,-0.85211181640625,-0.207977294921875,0.00823974609375
1732873770369360600,3.575360595703125,-0.8626708984375,-0.2008819580078125,0.0053558349609375
1732873770379356000,3.58535595703125,-0.8723297119140625,-0.1916656494140625,0.01629638671875
1732873770389351000,3.595350830078125,-0.8899078369140625,-0.181427001953125,0.023712158203125
1732873770399346000,3.605345947265625,-0.9195404052734375,-0.15765380859375,0.0539093017578125
1732873770409341000,3.6153408203125,-0.9552459716796875,-0.1654205322265625,0.1355743408203125
1732873770419336000,3.6253359375,-0.9885101318359375,-0.1295623779296875,0.181976318359375
1732873770429331700,3.635331787109375,-1.0114898681640625,-0.0489959716796875,0.1504364013671875
1732873770439326200,3.645326171875,-0.9956817626953125,-0.022796630859375,0.11224365234375
1732873770449321200,3.6553212890625,-0.9024658203125,-0.0140838623046875,0.024932861328125
1732873770459316200,3.665316162109375,-0.91131591796875,-0.018890380859375,-0.0636749267578125
1732873770469311200,3.675311279296875,-1.063568115234375,-0.0701446533203125,-0.0460357666015625
1732873770479306200,3.68530615234375,-1.109100341796875,-0.070892333984375,0.0371246337890625
1732873770489302300,3.69530224609375,-1.108978271484375,-0.0455169677734375,0.0936737060546875
1732873770499297300,3.70529736328125,-1.0969390869140625,-0.0337066650390625,0.0814666748046875
1732873770509292300,3.715292236328125,-1.082061767578125,-0.035003662109375,0.0553436279296875
1732873770519287300,3.725287353515625,-1.090911865234375,-0.05718994140625,0.005523681640625
1732873770529282300,3.7352822265625,-1.085205078125,-0.11004638671875,-0.04058837890625
1732873770539277300,3.74527734375,-1.0380706787109375,-0.1983642578125,-0.09600830078125
1732873770549273300,3.7552734375,-0.9606170654296875,-0.28887939453125,-0.1450653076171875
1732873770559268400,3.765268310546875,-0.84100341796875,-0.3187255859375,-0.1475677490234375
1732873770569263000,3.77526318359375,-0.72454833984375,-0.2962799072265625,-0.0571746826171875
1732873770579258000,3.785258056640625,-0.699188232421875,-0.2449798583984375,0.0622406005859375
1732873770589253000,3.795253173828125,-0.8008270263671875,-0.1641998291015625,0.1835174560546875
1732873770599248400,3.805248291015625,-1.0096282958984375,-0.07183837890625,0.2912139892578125
1732873770609244400,3.815244384765625,-1.26123046875,-0.0369110107421875,0.2865142822265625
1732873770619239400,3.825239501953125,-1.445556640625,-0.0735931396484375,0.208404541015625
1732873770629234400,3.835234375,-1.465362548828125,-0.1375274658203125,0.1502227783203125
1732873770639229200,3.845229248046875,-1.3699951171875,-0.1979827880859375,0.1300201416015625
1732873770649224200,3.85522412109375,-1.2115478515625,-0.258819580078125,0.1033172607421875
1732873770659219200,3.86521923828125,-0.9987640380859375,-0.314239501953125,0.043426513671875
1732873770669215200,3.87521533203125,-0.841949462890625,-0.3243255615234375,-0.019683837890625
1732873770679210200,3.885210205078125,-0.7673187255859375,-0.3330841064453125,-0.0474853515625
1732873770689205500,3.89520556640625,-0.770843505859375,-0.3230133056640625,-0.055999755859375
1732873770699200500,3.905200439453125,-0.8377838134765625,-0.2971343994140625,-0.0745391845703125
1732873770709195300,3.9151953125,-0.921478271484375,-0.256591796875,-0.0995635986328125
1732873770719190300,3.925190185546875,-0.99786376953125,-0.2099609375,-0.122894287109375
1732873770729186300,3.935186279296875,-1.0596923828125,-0.1792755126953125,-0.1301727294921875
1732873770739181300,3.945181396484375,-1.09381103515625,-0.167236328125,-0.1067352294921875
1732873770749176300,3.95517626953125,-1.0992889404296875,-0.163818359375,-0.07342529296875
1732873770759171300,3.96517138671875,-1.0706024169921875,-0.17669677734375,-0.0499725341796875
1732873770769166300,3.975166259765625,-1.011932373046875,-0.20184326171875,-0.03704833984375
1732873770779161000,3.9851611328125,-0.9433746337890625,-0.2238922119140625,-0.029327392578125
1732873770789157400,3.995157470703125,-0.878509521484375,-0.242919921875,-0.0139617919921875
1732873770799152400,4.00515234375,-0.822113037109375,-0.255950927734375,-0.0061798095703125
1732873770809147400,4.0151474609375,-0.7810516357421875,-0.2598876953125,-0.0008544921875
1732873770819142400,4.025142333984375,-0.760711669921875,-0.25787353515625,0.0062255859375
1732873770829137400,4.035137451171875,-0.7597198486328125,-0.2447967529296875,0.001556396484375
1732873770839132400,4.04513232421875,-0.7706756591796875,-0.2225189208984375,-0.0104522705078125
1732873770849128200,4.055128173828125,-0.7917327880859375,-0.204193115234375,-0.0178985595703125
1732873770859123200,4.065123291015625,-0.819854736328125,-0.1970062255859375,-0.02471923828125
1732873770869118200,4.0751181640625,-0.8486480712890625,-0.1889495849609375,-0.0386199951171875
1732873770879113200,4.08511328125,-0.8731842041015625,-0.187835693359375,-0.0567779541015625
1732873770889108200,4.095108154296875,-0.882904052734375,-0.1997222900390625,-0.06781005859375
1732873770899103500,4.105103515625,-0.875732421875,-0.21734619140625,-0.0793304443359375
1732873770909099300,4.115099365234375,-0.8662567138671875,-0.2228240966796875,-0.1080169677734375
1732873770919094300,4.12509423828125,-0.8693084716796875,-0.2214813232421875,-0.145599365234375
1732873770929089300,4.13508935546875,-0.89892578125,-0.2175750732421875,-0.1792144775390625
1732873770939084300,4.145084228515625,-0.9462432861328125,-0.204864501953125,-0.2042694091796875
1732873770949079300,4.155079345703125,-1.0057220458984375,-0.1890106201171875,-0.2230682373046875
1732873770959075300,4.165075439453125,-1.0668792724609375,-0.18072509765625,-0.223876953125
1732873770969070000,4.175070068359375,-1.119842529296875,-0.150634765625,-0.2136993408203125
1732873770979065000,4.185065185546875,-1.1633453369140625,-0.10003662109375,-0.2001190185546875
1732873770989060400,4.195060302734375,-1.2006683349609375,-0.02618408203125,-0.1840362548828125
1732873770999055400,4.205055419921875,-1.2479705810546875,0.0478363037109375,-0.1670074462890625
1732873771009050400,4.21505029296875,-1.3117523193359375,0.1040191650390625,-0.114166259765625
1732873771019046400,4.22504638671875,-1.3834075927734375,0.142730712890625,-0.022430419921875
1732873771029041400,4.23504150390625,-1.446197509765625,0.1434326171875,0.0754241943359375
1732873771039036200,4.2450361328125,-1.446624755859375,0.07745361328125,0.1375274658203125
1732873771049031200,4.25503125,-1.3383636474609375,-0.0005645751953125,0.1660308837890625
1732873771059026200,4.265026123046875,-1.1480712890625,-0.055511474609375,0.1665496826171875
1732873771069021200,4.275021240234375,-0.9424896240234375,-0.132110595703125,0.1437530517578125
1732873771079017500,4.285017578125,-0.7594451904296875,-0.186065673828125,0.142303466796875
1732873771089012500,4.295012451171875,-0.6320037841796875,-0.2088470458984375,0.1466827392578125
1732873771099007500,4.305007568359375,-0.5792999267578125,-0.208648681640625,0.1331024169921875
1732873771109002200,4.315002197265625,-0.5950164794921875,-0.165557861328125,0.14202880859375
1732873771118997200,4.324997314453125,-0.703460693359375,-0.132293701171875,0.123443603515625
1732873771128992300,4.3349921875,-0.8733673095703125,-0.1038818359375,0.1151885986328125
1732873771138988300,4.34498828125,-1.0399322509765625,-0.076568603515625,0.1222686767578125
1732873771148983300,4.3549833984375,-1.1585845947265625,-0.0661163330078125,0.1220855712890625
1732873771158978300,4.364978271484375,-1.204864501953125,-0.0663604736328125,0.119293212890625
1732873771168973300,4.374973388671875,-1.181915283203125,-0.067596435546875,0.1179046630859375
1732873771178968000,4.384968017578125,-1.1393585205078125,-0.063873291015625,0.100616455078125
1732873771188963000,4.394963134765625,-1.1136016845703125,-0.0505828857421875,0.0842742919921875
1732873771198959400,4.40495947265625,-1.1187896728515625,-0.0595550537109375,0.0605010986328125
1732873771208954400,4.414954345703125,-1.1264801025390625,-0.0495452880859375,0.05828857421875
1732873771218949400,4.424949462890625,-1.1233062744140625,-0.032318115234375,0.065887451171875
1732873771228944400,4.4349443359375,-1.1098480224609375,-0.031402587890625,0.058135986328125
1732873771238939400,4.444939453125,-1.0808868408203125,-0.0359649658203125,0.046783447265625
1732873771248935200,4.45493505859375,-1.0460662841796875,-0.03643798828125,0.0320281982421875
1732873771258930200,4.46493017578125,-1.017059326171875,-0.0297088623046875,0.00445556640625
1732873771268925200,4.47492529296875,-0.99053955078125,-0.015655517578125,-0.0317230224609375
1732873771278920200,4.484920166015625,-0.96673583984375,0.00341796875,-0.0894012451171875
1732873771288915500,4.49491552734375,-0.9429473876953125,0.007080078125,-0.1554107666015625
1732873771298910500,4.504910400390625,-0.92974853515625,0.0006561279296875,-0.209747314453125
1732873771308906200,4.51490625,-0.9458770751953125,-0.0092315673828125,-0.245635986328125
1732873771318901200,4.5249013671875,-0.99951171875,-0.0323486328125,-0.268402099609375
1732873771328896300,4.534896240234375,-1.0570068359375,-0.0268707275390625,-0.262359619140625
1732873771338891300,4.544891357421875,-1.065338134765625,-0.0446929931640625,-0.247955322265625
1732873771348886300,4.55488623046875,-1.039031982421875,-0.0541839599609375,-0.21478271484375
1732873771358881300,4.56488134765625,-1.0228729248046875,-0.114501953125,-0.2224273681640625
1732873771368877000,4.574876953125,-1.0225982666015625,-0.128753662109375,-0.223052978515625
1732873771378872300,4.584872314453125,-1.010284423828125,-0.11865234375,-0.1533050537109375
1732873771388867300,4.594867431640625,-0.990325927734375,-0.1513671875,-0.0761871337890625
1732873771398862300,4.6048623046875,-0.9565887451171875,-0.157745361328125,-0.0189056396484375
1732873771408857300,4.614857421875,-0.9111175537109375,-0.1533660888671875,0.0257415771484375
1732873771418852400,4.624852294921875,-0.86138916015625,-0.1406402587890625,0.1125946044921875
1732873771428848400,4.634848388671875,-0.8680267333984375,-0.2552337646484375,0.047088623046875
1732873771438844000,4.644843994140625,-0.90997314453125,-0.2293853759765625,0.0545654296875
1732873771448839000,4.6548388671875,-0.953857421875,-0.2957611083984375,0.0477447509765625
1732873771458834000,4.664833984375,-1.07073974609375,-0.190185546875,0.1698760986328125
1732873771468829000,4.674828857421875,-1.11627197265625,-0.080047607421875,0.3566436767578125
1732873771478825000,4.684824951171875,-1.1574859619140625,-0.0647125244140625,0.48809814453125
1732873771488819700,4.69481982421875,-1.16064453125,-0.004241943359375,0.597808837890625
1732873771498814700,4.704814697265625,-1.1296234130859375,-0.115478515625,0.5166168212890625
1732873771508809700,4.714809814453125,-1.0959320068359375,-0.2620849609375,0.2736358642578125
1732873771518805000,4.724804931640625,-0.983001708984375,-0.2603302001953125,0.202239990234375
1732873771528800000,4.734800048828125,-0.8913726806640625,-0.29766845703125,0.1581268310546875
1732873771538796000,4.744796142578125,-0.854827880859375,-0.3160400390625,0.1174468994140625
1732873771548791000,4.754791015625,-0.852294921875,-0.3152618408203125,0.1208038330078125
1732873771558785800,4.764785888671875,-0.8609161376953125,-0.291412353515625,0.1352691650390625
1732873771568780800,4.77478076171875,-0.8870391845703125,-0.2711639404296875,0.1445770263671875
1732873771578775800,4.78477587890625,-0.9322967529296875,-0.2545318603515625,0.14263916015625
1732873771588770800,4.794770751953125,-0.9860687255859375,-0.2388763427734375,0.137847900390625
1732873771598766800,4.804766845703125,-1.0294952392578125,-0.2284698486328125,0.1271209716796875
1732873771608762000,4.81476220703125,-1.0494232177734375,-0.2252044677734375,0.1113433837890625
1732873771618757000,4.824757080078125,-1.0474700927734375,-0.227630615234375,0.0957183837890625
1732873771628752000,4.834751953125,-1.0213165283203125,-0.220184326171875,0.09375
1732873771638747000,4.844746826171875,-0.984710693359375,-0.20867919921875,0.0979461669921875
1732873771648743000,4.854742919921875,-0.94781494140625,-0.1983184814453125,0.101470947265625
1732873771658738000,4.864738037109375,-0.92095947265625,-0.1888580322265625,0.100738525390625
1732873771668733000,4.87473291015625,-0.90679931640625,-0.17877197265625,0.1045684814453125
1732873771678728000,4.88472802734375,-0.9124908447265625,-0.1837158203125,0.0964813232421875
1732873771688723000,4.894722900390625,-0.9159393310546875,-0.1620635986328125,0.1007537841796875
1732873771698718000,4.904718017578125,-0.915802001953125,-0.1556854248046875,0.1089324951171875
1732873771708714000,4.9147138671875,-0.91741943359375,-0.1540985107421875,0.1134490966796875
1732873771718709000,4.924708984375,-0.9186248779296875,-0.157745361328125,0.109771728515625
1732873771728704000,4.9347041015625,-0.9200286865234375,-0.1566162109375,0.10418701171875
1732873771738699000,4.944698974609375,-0.918365478515625,-0.1597442626953125,0.087677001953125
1732873771748694000,4.954694091796875,-0.918914794921875,-0.1704559326171875,0.0655364990234375
1732873771758689800,4.964689697265625,-0.9320220947265625,-0.1702117919921875,0.0606536865234375
1732873771768684800,4.974684814453125,-0.942718505859375,-0.1654510498046875,0.07672119140625
1732873771778679800,4.9846796875,-0.9573974609375,-0.165008544921875,0.094451904296875
1732873771788674800,4.9946748046875,-0.982330322265625,-0.1665496826171875,0.107147216796875
1732873771798669800,5.004669921875,-1.0111236572265625,-0.163848876953125,0.1140594482421875
1732873771808664800,5.014664794921875,-1.03900146484375,-0.1649322509765625,0.11859130859375
1732873771818660900,5.024660888671875,-1.05511474609375,-0.1634063720703125,0.1152801513671875
1732873771828655900,5.03465576171875,-1.0604248046875,-0.1694793701171875,0.0995330810546875
1732873771838651000,5.04465087890625,-1.05877685546875,-0.183990478515625,0.082427978515625
1732873771848646000,5.05464599609375,-1.0436553955078125,-0.1983795166015625,0.074798583984375
1732873771858641000,5.064640869140625,-1.0231475830078125,-0.20819091796875,0.073455810546875
1732873771868637000,5.074636962890625,-1.006317138671875,-0.204864501953125,0.07977294921875
1732873771878632000,5.0846318359375,-0.99530029296875,-0.193939208984375,0.09869384765625
1732873771888626700,5.094626708984375,-0.9979095458984375,-0.179534912109375,0.1291046142578125
1732873771898621700,5.10462158203125,-1.009246826171875,-0.1636199951171875,0.151611328125
1732873771908617000,5.114616943359375,-1.02606201171875,-0.14337158203125,0.1609954833984375
1732873771918612000,5.124612060546875,-1.048370361328125,-0.126220703125,0.155029296875
1732873771928608000,5.13460791015625,-1.0670318603515625,-0.12225341796875,0.15423583984375
1732873771938603000,5.14460302734375,-1.0785369873046875,-0.1264801025390625,0.1342010498046875
1732873771948598000,5.154597900390625,-1.080963134765625,-0.1341705322265625,0.1089630126953125
1732873771958592800,5.1645927734375,-1.0660400390625,-0.1481781005859375,0.0923309326171875
1732873771968587800,5.174587890625,-1.03375244140625,-0.1594085693359375,0.078826904296875
1732873771978583800,5.184583740234375,-0.9976348876953125,-0.1738433837890625,0.0738983154296875
1732873771988578800,5.194578857421875,-0.968719482421875,-0.1944580078125,0.0708160400390625
1732873771998574000,5.204573974609375,-0.9468231201171875,-0.2067718505859375,0.065093994140625
1732873772008569000,5.214569091796875,-0.9260406494140625,-0.2150115966796875,0.0538177490234375
1732873772018564000,5.224564208984375,-0.910369873046875,-0.2169189453125,0.0290069580078125
1732873772028560000,5.234559814453125,-0.9084014892578125,-0.2064971923828125,0.0070953369140625
1732873772038555000,5.244554931640625,-0.929443359375,-0.1891326904296875,-0.0005340576171875
1732873772048550000,5.2545498046875,-0.96221923828125,-0.1741485595703125,-0.00103759765625
1732873772058545000,5.264544921875,-0.9978179931640625,-0.1609039306640625,-0.00537109375
1732873772068540000,5.274539794921875,-1.024871826171875,-0.1509857177734375,-0.013641357421875
1732873772078535000,5.284534912109375,-1.04290771484375,-0.149627685546875,-0.018585205078125
1732873772088531000,5.294531005859375,-1.042449951171875,-0.1520843505859375,-0.0158843994140625
1732873772098526000,5.30452587890625,-1.021484375,-0.155914306640625,-0.013916015625
1732873772108521000,5.31452099609375,-0.98736572265625,-0.167205810546875,-0.0164337158203125
1732873772118516000,5.324515869140625,-0.9596099853515625,-0.1766815185546875,-0.012298583984375
1732873772128511000,5.334510986328125,-0.9329681396484375,-0.183685302734375,-0.0025787353515625
1732873772138507000,5.344507080078125,-0.9014434814453125,-0.1842193603515625,-0.005523681640625
1732873772148501800,5.354501708984375,-0.8792572021484375,-0.1875457763671875,-0.0184783935546875
1732873772158496800,5.364496826171875,-0.8672027587890625,-0.1837921142578125,-0.0342864990234375
1732873772168491800,5.37449169921875,-0.8671112060546875,-0.1820068359375,-0.0497589111328125
1732873772178486800,5.38448681640625,-0.8851470947265625,-0.1802825927734375,-0.0679473876953125
1732873772188481800,5.394481689453125,-0.900146484375,-0.1769866943359375,-0.077178955078125
1732873772198478000,5.40447802734375,-0.908416748046875,-0.1691741943359375,-0.079620361328125
1732873772208473000,5.41447314453125,-0.907440185546875,-0.1621551513671875,-0.0872955322265625
1732873772218467800,5.4244677734375,-0.90240478515625,-0.1654510498046875,-0.107330322265625
1732873772228462800,5.434462890625,-0.9010162353515625,-0.1645660400390625,-0.1294708251953125
1732873772238457900,5.444457763671875,-0.90576171875,-0.1689605712890625,-0.1450347900390625
1732873772248454000,5.454453857421875,-0.9172821044921875,-0.171966552734375,-0.1560211181640625
1732873772258449000,5.464448974609375,-0.924896240234375,-0.162841796875,-0.1502838134765625
1732873772268444000,5.47444384765625,-0.937957763671875,-0.157806396484375,-0.1252593994140625
1732873772278439000,5.48443896484375,-0.9490203857421875,-0.148651123046875,-0.089508056640625
1732873772288434000,5.494433837890625,-0.9543914794921875,-0.1249237060546875,-0.071502685546875
1732873772298430000,5.504429931640625,-0.964447021484375,-0.0988006591796875,-0.069549560546875
1732873772308425000,5.514425048828125,-0.993896484375,-0.0829315185546875,-0.07965087890625
1732873772318420000,5.524419921875,-1.0326385498046875,-0.0699310302734375,-0.0853424072265625
1732873772328415000,5.5344150390625,-1.0686798095703125,-0.054168701171875,-0.080078125
1732873772338410000,5.544409912109375,-1.08563232421875,-0.0326995849609375,-0.0758819580078125
1732873772348405800,5.55440576171875,-1.095184326171875,-0.00775146484375,-0.0766448974609375
1732873772358400800,5.56440087890625,-1.1002349853515625,0.0219268798828125,-0.0748291015625
1732873772368395800,5.574395751953125,-1.110687255859375,0.0392608642578125,-0.0840606689453125
1732873772378391000,5.58439111328125,-1.1203155517578125,0.0435333251953125,-0.0942840576171875
1732873772388386000,5.594385986328125,-1.1281280517578125,0.046295166015625,-0.1118011474609375
1732873772398381000,5.604381103515625,-1.13031005859375,0.0396575927734375,-0.126678466796875
1732873772408376800,5.614376953125,-1.11566162109375,0.0285491943359375,-0.13885498046875
1732873772418371800,5.624371826171875,-1.082061767578125,0.0152435302734375,-0.1474151611328125
1732873772428366800,5.634366943359375,-1.0360870361328125,-0.003448486328125,-0.14971923828125
1732873772438361000,5.644361083984375,-0.989471435546875,-0.023834228515625,-0.1333160400390625
1732873772448356000,5.654356201171875,-0.9546356201171875,-0.0333709716796875,-0.1058349609375
1732873772458352400,5.664352294921875,-0.9442596435546875,-0.0434722900390625,-0.0899658203125
1732873772468347400,5.674347412109375,-0.954010009765625,-0.0583648681640625,-0.0777435302734375
1732873772478342400,5.68434228515625,-0.9931488037109375,-0.0693511962890625,-0.0727386474609375
1732873772488337200,5.694337158203125,-1.039703369140625,-0.0707855224609375,-0.0585174560546875
1732873772498332200,5.704332275390625,-1.09393310546875,-0.0702056884765625,-0.0572967529296875
1732873772508328200,5.714328125,-1.1452789306640625,-0.0585479736328125,-0.06756591796875
1732873772518323200,5.7243232421875,-1.179901123046875,-0.0424652099609375,-0.0783233642578125
1732873772528318200,5.734318115234375,-1.197540283203125,-0.03375244140625,-0.093505859375
1732873772538313200,5.744313232421875,-1.1899566650390625,-0.03424072265625,-0.1133270263671875
1732873772548308200,5.75430810546875,-1.1577911376953125,-0.039459228515625,-0.1407623291015625
1732873772558303200,5.76430322265625,-1.1084442138671875,-0.0494384765625,-0.1672210693359375
1732873772568299300,5.77429931640625,-1.0472412109375,-0.054931640625,-0.176727294921875
1732873772578294300,5.784294189453125,-0.9759979248046875,-0.0606689453125,-0.17724609375
1732873772588289300,5.794289306640625,-0.9135894775390625,-0.060638427734375,-0.191497802734375
1732873772598284300,5.8042841796875,-0.87005615234375,-0.0563812255859375,-0.218841552734375
1732873772608279300,5.814279296875,-0.858123779296875,-0.0569000244140625,-0.2319488525390625
1732873772618275000,5.824275146484375,-0.876861572265625,-0.0577850341796875,-0.2174530029296875
1732873772628270000,5.83427001953125,-0.9196929931640625,-0.053009033203125,-0.1932373046875
1732873772638265000,5.84426513671875,-0.9692230224609375,-0.048492431640625,-0.1716156005859375
1732873772648260400,5.85426025390625,-1.0096282958984375,-0.045013427734375,-0.15008544921875
1732873772658255400,5.86425537109375,-1.0370025634765625,-0.04376220703125,-0.1320037841796875
1732873772668251400,5.87425146484375,-1.0513153076171875,-0.036102294921875,-0.129302978515625
1732873772678246100,5.88424609375,-1.05328369140625,-0.026153564453125,-0.1277313232421875
1732873772688241200,5.8942412109375,-1.0269012451171875,-0.028900146484375,-0.1385498046875
1732873772698236200,5.904236083984375,-0.97686767578125,-0.033294677734375,-0.144317626953125
1732873772708231200,5.914231201171875,-0.9201507568359375,-0.0335540771484375,-0.1347503662109375
1732873772718227200,5.924227294921875,-0.878082275390625,-0.045745849609375,-0.1214141845703125
1732873772728222200,5.93422216796875,-0.8643035888671875,-0.0608978271484375,-0.1119537353515625
1732873772738217500,5.944217529296875,-0.8769683837890625,-0.0820465087890625,-0.1097564697265625
1732873772748212200,5.954212158203125,-0.9012298583984375,-0.0902862548828125,-0.0941009521484375
1732873772758207200,5.964207275390625,-0.91900634765625,-0.089996337890625,-0.0661468505859375
1732873772768202200,5.9742021484375,-0.9234161376953125,-0.0924530029296875,-0.03082275390625
1732873772778198300,5.9841982421875,-0.924835205078125,-0.089141845703125,0.006134033203125
1732873772788193300,5.994193359375,-0.94329833984375,-0.0980072021484375,0.040374755859375
1732873772798188300,6.004188232421875,-0.9788665771484375,-0.114959716796875,0.0775909423828125
1732873772808183300,6.014183349609375,-1.015899658203125,-0.1242218017578125,0.1135101318359375
1732873772818178300,6.02417822265625,-1.0504150390625,-0.133880615234375,0.1392364501953125
1732873772828174300,6.03417431640625,-1.07373046875,-0.162261962890625,0.1393890380859375
1732873772838169300,6.04416943359375,-1.0762176513671875,-0.219573974609375,0.117919921875
1732873772848164400,6.054164306640625,-1.0504608154296875,-0.2897796630859375,0.0925445556640625
1732873772858159400,6.064159423828125,-0.9907379150390625,-0.35870361328125,0.06097412109375
1732873772868154400,6.074154296875,-0.92437744140625,-0.3956298828125,0.0209197998046875
1732873772878150100,6.084150146484375,-0.857696533203125,-0.3955841064453125,-0.02801513671875
1732873772888145200,6.094145263671875,-0.8076171875,-0.3533477783203125,-0.0655364990234375
1732873772898140200,6.10414013671875,-0.8334197998046875,-0.2718658447265625,-0.055572509765625
1732873772908135200,6.11413525390625,-0.975738525390625,-0.1896514892578125,-0.014251708984375
1732873772918130200,6.124130126953125,-1.1962890625,-0.11297607421875,0.0464630126953125
1732873772928126200,6.134126220703125,-1.4090423583984375,-0.0420074462890625,0.1225433349609375
1732873772938121200,6.144121337890625,-1.5540313720703125,-0.002288818359375,0.1564178466796875
1732873772948116200,6.1541162109375,-1.5727996826171875,0.0050811767578125,0.16046142578125
1732873772958111200,6.164111328125,-1.4461517333984375,-0.0114898681640625,0.1478271484375
1732873772968106200,6.174106201171875,-1.219818115234375,-0.0393829345703125,0.128753662109375
1732873772978102300,6.184102294921875,-1.0068511962890625,-0.0821380615234375,0.12353515625
1732873772988097300,6.19409716796875,-0.8471832275390625,-0.130462646484375,0.1295623779296875
1732873772998092300,6.20409228515625,-0.7388153076171875,-0.1748809814453125,0.134735107421875
1732873773008087000,6.214087158203125,-0.670379638671875,-0.2142181396484375,0.1534576416015625
1732873773018082000,6.22408203125,-0.6433868408203125,-0.234130859375,0.165771484375
1732873773028078300,6.234078369140625,-0.6488037109375,-0.2266082763671875,0.1628265380859375
1732873773038073300,6.2440732421875,-0.69110107421875,-0.2092132568359375,0.148162841796875
1732873773048068400,6.254068359375,-0.761688232421875,-0.1771087646484375,0.127777099609375
1732873773058063400,6.2640634765625,-0.84527587890625,-0.139312744140625,0.10235595703125
1732873773068058400,6.274058349609375,-0.930023193359375,-0.1113128662109375,0.0833892822265625
1732873773078054100,6.28405419921875,-1.0017242431640625,-0.0950775146484375,0.0687713623046875
1732873773088049200,6.294049072265625,-1.052642822265625,-0.081939697265625,0.0507659912109375
1732873773098044200,6.304044189453125,-1.079315185546875,-0.070037841796875,0.0364837646484375
1732873773108039200,6.3140390625,-1.08636474609375,-0.06573486328125,0.02880859375
1732873773118034400,6.324034423828125,-1.0829925537109375,-0.06793212890625,0.0289306640625
1732873773128030200,6.3340302734375,-1.075347900390625,-0.0723876953125,0.0444183349609375
1732873773138025200,6.344025146484375,-1.0634307861328125,-0.0752410888671875,0.0584716796875
1732873773148020200,6.354020263671875,-1.0501861572265625,-0.07684326171875,0.06622314453125
1732873773158015200,6.36401513671875,-1.0372772216796875,-0.0757293701171875,0.0630950927734375
1732873773168010200,6.37401025390625,-1.0203094482421875,-0.069305419921875,0.0578155517578125
1732873773178005200,6.384005126953125,-1.0052337646484375,-0.0641937255859375,0.0510101318359375
1732873773188001300,6.394001220703125,-0.9814453125,-0.062835693359375,0.049835205078125
1732873773197996000,6.40399609375,-0.9465179443359375,-0.0589447021484375,0.0451202392578125
1732873773207991300,6.4139912109375,-0.9123077392578125,-0.0612640380859375,0.0484771728515625
1732873773217986300,6.423986328125,-0.8828125,-0.066314697265625,0.0629730224609375
1732873773227981300,6.433981201171875,-0.8674163818359375,-0.081634521484375,0.0746917724609375
1732873773237977300,6.443977294921875,-0.8648834228515625,-0.0969696044921875,0.091094970703125
1732873773247972400,6.453972412109375,-0.87908935546875,-0.092987060546875,0.0906524658203125
1732873773257967400,6.46396728515625,-0.908721923828125,-0.084747314453125,0.077362060546875
1732873773267962000,6.473962158203125,-0.9517974853515625,-0.072906494140625,0.0606842041015625
1732873773277957000,6.48395703125,-0.996734619140625,-0.0793914794921875,0.03143310546875
1732873773287953200,6.493953125,-1.0240478515625,-0.094451904296875,0.00830078125
1732873773297948400,6.503948486328125,-1.01214599609375,-0.1092071533203125,0.00640869140625
1732873773307943400,6.513943359375,-0.964599609375,-0.1283721923828125,-0.009735107421875
1732873773317938400,6.5239384765625,-0.9026947021484375,-0.1377716064453125,-0.04730224609375
1732873773327933200,6.53393310546875,-0.85736083984375,-0.137054443359375,-0.081756591796875
1732873773337929200,6.54392919921875,-0.838409423828125,-0.1244049072265625,-0.1087646484375
1732873773347924200,6.55392431640625,-0.853607177734375,-0.094879150390625,-0.1103057861328125
1732873773357919200,6.563919189453125,-0.918212890625,-0.0626373291015625,-0.0803680419921875
1732873773367914200,6.573914306640625,-1.033905029296875,-0.0372314453125,-0.042022705078125
1732873773377909200,6.5839091796875,-1.1754608154296875,-0.02996826171875,-0.00897216796875
1732873773387905300,6.5939052734375,-1.295623779296875,-0.042816162109375,0.0136260986328125
1732873773397900300,6.603900390625,-1.3600311279296875,-0.0697174072265625,0.024261474609375
1732873773407895300,6.613895263671875,-1.353729248046875,-0.109466552734375,0.015625
1732873773417890300,6.623890380859375,-1.2855682373046875,-0.1458892822265625,0.0124053955078125
1732873773427886300,6.63388623046875,-1.18896484375,-0.188201904296875,0.0062408447265625
1732873773437882000,6.643882080078125,-1.0910491943359375,-0.238311767578125,-0.005218505859375
1732873773447877000,6.653877197265625,-1.005767822265625,-0.2773284912109375,-0.012115478515625
1732873773457872100,6.6638720703125,-0.9527130126953125,-0.3000030517578125,-0.0033721923828125
1732873773467867100,6.6738671875,-0.9291839599609375,-0.3032379150390625,0.0067138671875
1732873773477862100,6.683862060546875,-0.933807373046875,-0.279754638671875,-0.00799560546875
1732873773487858200,6.693858154296875,-0.980804443359375,-0.222686767578125,-0.0402679443359375
1732873773497853000,6.70385302734375,-1.05865478515625,-0.156982421875,-0.05694580078125
1732873773507848000,6.713847900390625,-1.14599609375,-0.0831146240234375,-0.0565185546875
1732873773517843000,6.723843017578125,-1.2287445068359375,-0.0184173583984375,-0.0402679443359375
1732873773527838200,6.733838134765625,-1.2850799560546875,0.0167388916015625,-0.0161590576171875
1732873773537834200,6.743834228515625,-1.287994384765625,0.022552490234375,-0.0076141357421875
1732873773547829200,6.753829345703125,-1.2252197265625,0.0114898681640625,-0.022216796875
1732873773557824300,6.76382421875,-1.12200927734375,-0.0067596435546875,-0.034393310546875
1732873773567819000,6.773819091796875,-1.015838623046875,-0.0348663330078125,-0.038055419921875
1732873773577815000,6.78381494140625,-0.922943115234375,-0.06170654296875,-0.0452728271484375
1732873773587810000,6.79381005859375,-0.84613037109375,-0.08880615234375,-0.056488037109375
1732873773597805000,6.80380517578125,-0.7921295166015625,-0.1102752685546875,-0.061920166015625
1732873773607800000,6.813800048828125,-0.7576446533203125,-0.1303558349609375,-0.060943603515625
1732873773617795300,6.82379541015625,-0.7459259033203125,-0.1324310302734375,-0.0579071044921875
1732873773627791000,6.833791015625,-0.744049072265625,-0.115692138671875,-0.060028076171875
1732873773637786000,6.8437861328125,-0.76934814453125,-0.0877838134765625,-0.0676727294921875
1732873773647781000,6.853781005859375,-0.8455810546875,-0.060272216796875,-0.0670623779296875
1732873773657776000,6.863776123046875,-0.94403076171875,-0.039703369140625,-0.0605621337890625
1732873773667771100,6.873771240234375,-1.0296783447265625,-0.0182952880859375,-0.042205810546875
1732873773677767000,6.883766845703125,-1.080291748046875,0.0101776123046875,-0.026397705078125
1732873773687762000,6.893761962890625,-1.0987091064453125,0.034759521484375,-0.0133514404296875
1732873773697757000,6.9037568359375,-1.0987396240234375,0.049713134765625,-0.0193634033203125
1732873773707752200,6.913752197265625,-1.084503173828125,0.044036865234375,-0.05853271484375
1732873773717747200,6.923747314453125,-1.046844482421875,0.0220184326171875,-0.1121368408203125
1732873773727743200,6.9337431640625,-0.989013671875,0.0048370361328125,-0.161346435546875
1732873773737738200,6.94373828125,-0.9247283935546875,-0.0213775634765625,-0.195159912109375
1732873773747733000,6.95373291015625,-0.8690948486328125,-0.0519256591796875,-0.2148895263671875
1732873773757728000,6.96372802734375,-0.842010498046875,-0.07635498046875,-0.2402191162109375
1732873773767723000,6.973722900390625,-0.832916259765625,-0.0910491943359375,-0.2603759765625
1732873773777719000,6.983718994140625,-0.836181640625,-0.09625244140625,-0.273895263671875
1732873773787714000,6.993714111328125,-0.8590240478515625,-0.0896759033203125,-0.2841033935546875
1732873773797709300,7.003709228515625,-0.898834228515625,-0.086395263671875,-0.2896270751953125
1732873773807704300,7.013704345703125,-0.9337310791015625,-0.082305908203125,-0.2793426513671875
1732873773817699000,7.023698974609375,-0.95849609375,-0.074066162109375,-0.2568817138671875
1732873773827695000,7.033695068359375,-0.9773101806640625,-0.0703277587890625,-0.22027587890625
1732873773837690000,7.043690185546875,-0.988525390625,-0.0711212158203125,-0.166290283203125
1732873773847685000,7.05368505859375,-0.996856689453125,-0.07147216796875,-0.1199493408203125
1732873773857680100,7.06368017578125,-1.0153350830078125,-0.0655059814453125,-0.09564208984375
1732873773867675100,7.073675048828125,-1.0438385009765625,-0.0605010986328125,-0.0713043212890625
1732873773877671200,7.083671142578125,-1.074310302734375,-0.0749359130859375,-0.0458831787109375
1732873773887666200,7.093666259765625,-1.0792083740234375,-0.09783935546875,-0.021148681640625
1732873773897661200,7.1036611328125,-1.05657958984375,-0.112640380859375,0.0111236572265625
1732873773907656200,7.11365625,-1.029388427734375,-0.1256866455078125,0.048248291015625
1732873773917651200,7.123651123046875,-1.0164642333984375,-0.12957763671875,0.0789794921875
1732873773927647200,7.133647216796875,-1.0320892333984375,-0.13348388671875,0.10064697265625
1732873773937642000,7.14364208984375,-1.0581512451171875,-0.156463623046875,0.1214752197265625
1732873773947637000,7.153636962890625,-1.0746002197265625,-0.1940460205078125,0.1302947998046875
1732873773957632000,7.163632080078125,-1.0659637451171875,-0.240478515625,0.141693115234375
1732873773967627000,7.173626953125,-1.032073974609375,-0.3083038330078125,0.12811279296875
1732873773977623300,7.183623291015625,-0.959686279296875,-0.3610382080078125,0.0936431884765625
1732873773987618300,7.193618408203125,-0.866363525390625,-0.3812255859375,0.044097900390625
1732873773997613300,7.20361328125,-0.799835205078125,-0.3599700927734375,-0.0238494873046875
1732873774007608000,7.213608154296875,-0.7905731201171875,-0.2953033447265625,-0.075042724609375
1732873774017604000,7.22360400390625,-0.8472442626953125,-0.224151611328125,-0.09283447265625
1732873774027599000,7.23359912109375,-0.9820556640625,-0.168853759765625,-0.067291259765625
1732873774037594000,7.243593994140625,-1.1886138916015625,-0.1284332275390625,0.016845703125
1732873774047589000,7.253589111328125,-1.38507080078125,-0.1212921142578125,0.117950439453125
1732873774057584000,7.263584228515625,-1.5176849365234375,-0.140167236328125,0.1912841796875
1732873774067580200,7.273580078125,-1.5666046142578125,-0.1714324951171875,0.2453155517578125
1732873774077575200,7.2835751953125,-1.5170440673828125,-0.2018280029296875,0.27752685546875
1732873774087570200,7.293570068359375,-1.38482666015625,-0.225677490234375,0.2748260498046875
1732873774097565200,7.303565185546875,-1.2314453125,-0.2365570068359375,0.251068115234375
1732873774107560200,7.313560302734375,-1.10260009765625,-0.2392425537109375,0.224853515625
1732873774117556000,7.323555908203125,-1.020965576171875,-0.234588623046875,0.196533203125
1732873774127551000,7.333551025390625,-0.97930908203125,-0.21527099609375,0.1385650634765625
1732873774137546000,7.3435458984375,-0.9562835693359375,-0.190277099609375,0.06182861328125
1732873774147541000,7.353541015625,-0.926971435546875,-0.1651153564453125,0.0062408447265625
1732873774157536000,7.363535888671875,-0.8954010009765625,-0.1256256103515625,-0.0243682861328125
1732873774167532300,7.3735322265625,-0.8791351318359375,-0.0899810791015625,-0.0084686279296875
1732873774177527300,7.38352734375,-0.8859710693359375,-0.0654144287109375,0.0458221435546875
1732873774187522000,7.39352197265625,-0.891448974609375,-0.0502471923828125,0.1015625
1732873774197517000,7.40351708984375,-0.8791656494140625,-0.0493927001953125,0.1486968994140625
1732873774207512000,7.413511962890625,-0.851654052734375,-0.053131103515625,0.175567626953125
1732873774217508000,7.423508056640625,-0.8260040283203125,-0.0614471435546875,0.186798095703125
1732873774227503000,7.433503173828125,-0.806549072265625,-0.072967529296875,0.1852874755859375
1732873774237498000,7.443498046875,-0.780426025390625,-0.08355712890625,0.1599578857421875
1732873774247493000,7.4534931640625,-0.7415008544921875,-0.09564208984375,0.117706298828125
1732873774257489200,7.4634892578125,-0.694793701171875,-0.104339599609375,0.0637969970703125
1732873774267484200,7.473484130859375,-0.6483154296875,-0.1039581298828125,0.0217132568359375
1732873774277479200,7.483479248046875,-0.622955322265625,-0.103546142578125,0.001678466796875
1732873774287474200,7.49347412109375,-0.6368865966796875,-0.106170654296875,0.007354736328125
1732873774297469200,7.50346923828125,-0.6945953369140625,-0.119964599609375,0.027801513671875
1732873774307465000,7.51346484375,-0.7745819091796875,-0.1385650634765625,0.0566864013671875
1732873774317460000,7.5234599609375,-0.8499298095703125,-0.1506805419921875,0.0857696533203125
1732873774327455000,7.533455078125,-0.9134979248046875,-0.1567230224609375,0.0896148681640625
1732873774337450000,7.543449951171875,-0.95928955078125,-0.167236328125,0.0758819580078125
1732873774347445000,7.553445068359375,-0.9833221435546875,-0.1781158447265625,0.0503082275390625
1732873774357441300,7.563441162109375,-0.972137451171875,-0.1704254150390625,0.0107879638671875
1732873774367436300,7.573436279296875,-0.925048828125,-0.1511077880859375,-0.0439605712890625
1732873774377431000,7.58343115234375,-0.869232177734375,-0.1276702880859375,-0.1019744873046875
1732873774387426000,7.593426025390625,-0.83251953125,-0.092742919921875,-0.1396331787109375
1732873774397421000,7.603421142578125,-0.8421478271484375,-0.052703857421875,-0.148773193359375
1732873774407417000,7.6134169921875,-0.929229736328125,-0.02081298828125,-0.0972137451171875
1732873774417412000,7.623412109375,-1.0550994873046875,-0.0045166015625,-0.016693115234375
1732873774427407000,7.633406982421875,-1.1822509765625,-0.018829345703125,0.05792236328125
1732873774437401900,7.64340185546875,-1.274169921875,-0.0622711181640625,0.1230316162109375
1732873774447396900,7.65339697265625,-1.3042449951171875,-0.102325439453125,0.15472412109375
1732873774457392600,7.663392578125,-1.2729644775390625,-0.1246490478515625,0.1748199462890625
1732873774467387600,7.6733876953125,-1.2140045166015625,-0.1324920654296875,0.197509765625
1732873774477382700,7.683382568359375,-1.1698455810546875,-0.1280517578125,0.20867919921875
1732873774487377700,7.693377685546875,-1.1627044677734375,-0.109771728515625,0.2170867919921875
1732873774497373700,7.703373779296875,-1.2041168212890625,-0.0800933837890625,0.2300872802734375
1732873774507368700,7.71336865234375,-1.3006134033203125,-0.066650390625,0.249053955078125
1732873774517363700,7.72336376953125,-1.4205322265625,-0.0756072998046875,0.2655029296875
1732873774527358700,7.733358642578125,-1.5111083984375,-0.1039276123046875,0.27203369140625
1732873774537353700,7.743353759765625,-1.53759765625,-0.134765625,0.266845703125
1732873774547349800,7.753349853515625,-1.48406982421875,-0.1453094482421875,0.2470855712890625
1732873774557344800,7.7633447265625,-1.3675079345703125,-0.1351165771484375,0.2019500732421875
1732873774567339800,7.77333984375,-1.2241668701171875,-0.1158294677734375,0.1461181640625
1732873774577334500,7.78333447265625,-1.089080810546875,-0.0946197509765625,0.111968994140625
1732873774587329800,7.793329833984375,-0.9974517822265625,-0.0631561279296875,0.1161041259765625
1732873774597325800,7.803325927734375,-0.9768524169921875,-0.0364227294921875,0.124664306640625
1732873774607320800,7.81332080078125,-0.9842681884765625,-0.0406036376953125,0.1120758056640625
1732873774617315800,7.82331591796875,-0.973602294921875,-0.0454559326171875,0.089752197265625
1732873774627310800,7.833310791015625,-0.9366302490234375,-0.048492431640625,0.050689697265625
1732873774637306600,7.843306640625,-0.8772430419921875,-0.0518951416015625,0.0073394775390625
1732873774647301600,7.853301513671875,-0.82110595703125,-0.05328369140625,-0.036956787109375
1732873774657296600,7.863296630859375,-0.7710723876953125,-0.05584716796875,-0.0828704833984375
1732873774667291600,7.873291748046875,-0.731781005859375,-0.0469818115234375,-0.113922119140625
1732873774677287000,7.883286865234375,-0.7190093994140625,-0.045654296875,-0.134979248046875
1732873774687282700,7.89328271484375,-0.7353668212890625,-0.038909912109375,-0.1451568603515625
1732873774697277700,7.903277587890625,-0.7681427001953125,-0.02978515625,-0.1492767333984375
1732873774707272700,7.913272705078125,-0.807952880859375,-0.026763916015625,-0.1512298583984375
1732873774717267700,7.923267822265625,-0.8451995849609375,-0.042205810546875,-0.1377716064453125
1732873774727262700,7.9332626953125,-0.8693695068359375,-0.0702362060546875,-0.114288330078125
1732873774737258800,7.9432587890625,-0.8835906982421875,-0.101654052734375,-0.07977294921875
1732873774747253800,7.953253662109375,-0.881927490234375,-0.12939453125,-0.0435943603515625
1732873774757248800,7.963248779296875,-0.8790130615234375,-0.1440887451171875,-0.0102081298828125
1732873774767243800,7.973243896484375,-0.88800048828125,-0.1527099609375,0.0118560791015625
1732873774777238800,7.98323876953125,-0.9062042236328125,-0.1460418701171875,0.008819580078125
1732873774787234800,7.99323486328125,-0.92071533203125,-0.1349639892578125,-0.0135498046875
1732873774797229800,8.003229736328125,-0.9239044189453125,-0.1316986083984375,-0.0385589599609375
1732873774807224800,8.013224853515625,-0.921173095703125,-0.135162353515625,-0.0583953857421875
1732873774817219800,8.0232197265625,-0.8929595947265625,-0.159759521484375,-0.0647735595703125
1732873774827215600,8.033215576171875,-0.8461456298828125,-0.191314697265625,-0.0491943359375
1732873774837210600,8.043210693359375,-0.79693603515625,-0.2374114990234375,-0.0137481689453125
1732873774847205600,8.05320556640625,-0.756072998046875,-0.262054443359375,0.023223876953125
1732873774857201000,8.063200927734375,-0.75372314453125,-0.2581329345703125,0.072509765625
1732873774867196000,8.07319580078125,-0.818084716796875,-0.240875244140625,0.1346435546875
1732873774877191700,8.083191650390624,-0.9562835693359375,-0.20721435546875,0.2082366943359375
1732873774887186700,8.093186767578125,-1.1351165771484375,-0.16265869140625,0.2780303955078125
1732873774897181700,8.103181640625,-1.3391571044921875,-0.1276702880859375,0.3462066650390625
1732873774907176700,8.1131767578125,-1.5219268798828125,-0.0972137451171875,0.3869781494140625
1732873774917172700,8.1231728515625,-1.6107177734375,-0.074005126953125,0.389251708984375
1732873774927167700,8.133167724609375,-1.5582427978515625,-0.0716094970703125,0.36102294921875
1732873774937162800,8.143162841796874,-1.3884735107421875,-0.0952301025390625,0.3037567138671875
1732873774947157800,8.15315771484375,-1.1672515869140625,-0.12908935546875,0.2412109375
1732873774957152800,8.16315283203125,-0.97320556640625,-0.1616973876953125,0.18548583984375
1732873774967148800,8.173148681640624,-0.825531005859375,-0.197540283203125,0.1356658935546875
1732873774977143800,8.183143798828125,-0.7290802001953125,-0.2374114990234375,0.0967864990234375
1732873774987138800,8.193138916015625,-0.6918792724609375,-0.2772369384765625,0.06976318359375
1732873774997133800,8.2031337890625,-0.7177276611328125,-0.2984619140625,0.0680999755859375
1732873775007128800,8.21312890625,-0.7978515625,-0.30218505859375,0.074371337890625
1732873775017124600,8.22312451171875,-0.8987884521484375,-0.2939910888671875,0.0966644287109375
1732873775027119600,8.23311962890625,-0.999237060546875,-0.2689056396484375,0.1212615966796875
1732873775037115000,8.243114990234375,-1.1005401611328125,-0.2299346923828125,0.1336517333984375
1732873775047110000,8.25310986328125,-1.1925048828125,-0.1814117431640625,0.123779296875
1732873775057105700,8.263105712890624,-1.2624969482421875,-0.1270294189453125,0.106842041015625
1732873775067100700,8.2731005859375,-1.3039703369140625,-0.0825653076171875,0.1096649169921875
1732873775077095700,8.283095703125,-1.313751220703125,-0.06573486328125,0.123779296875
1732873775087090700,8.293090576171876,-1.27301025390625,-0.0604095458984375,0.1378936767578125
1732873775097085700,8.303085693359375,-1.165252685546875,-0.065155029296875,0.1541900634765625
1732873775107081700,8.313081787109375,-1.0335540771484375,-0.0796661376953125,0.1614837646484375
1732873775117076700,8.32307666015625,-0.914031982421875,-0.1018524169921875,0.1650238037109375
1732873775127071700,8.33307177734375,-0.8257293701171875,-0.118804931640625,0.1665191650390625
1732873775137066800,8.343066650390625,-0.76251220703125,-0.130828857421875,0.1538543701171875
1732873775147061800,8.353061767578126,-0.7245025634765625,-0.1327056884765625,0.1398468017578125
1732873775157057800,8.363057861328125,-0.7108917236328125,-0.1334075927734375,0.1286468505859375
1732873775167052800,8.373052734375,-0.7197265625,-0.1238250732421875,0.139739990234375
1732873775177047800,8.3830478515625,-0.73736572265625,-0.1094818115234375,0.1625518798828125
1732873775187042800,8.393042724609375,-0.750030517578125,-0.101043701171875,0.1756744384765625
1732873775197038600,8.40303857421875,-0.75189208984375,-0.1008148193359375,0.1741943359375
1732873775207033600,8.41303369140625,-0.7537078857421875,-0.11212158203125,0.16497802734375
1732873775217028900,8.42302880859375,-0.764129638671875,-0.1237335205078125,0.15362548828125
1732873775227024000,8.43302392578125,-0.7857208251953125,-0.1415863037109375,0.137786865234375
1732873775237019000,8.443018798828126,-0.8178253173828125,-0.15887451171875,0.121185302734375
1732873775247014700,8.4530146484375,-0.8543701171875,-0.16961669921875,0.096343994140625
1732873775257009700,8.463009765625,-0.894561767578125,-0.1936187744140625,0.06951904296875
1732873775267004700,8.473004638671876,-0.9423980712890625,-0.235107421875,0.031951904296875
1732873775276999700,8.482999755859375,-0.9808197021484375,-0.2555694580078125,0.0081634521484375
1732873775286995700,8.49299560546875,-0.995849609375,-0.250335693359375,-0.008514404296875
1732873775296990700,8.50299072265625,-0.9892730712890625,-0.2204742431640625,-0.0121307373046875
1732873775306985700,8.51298583984375,-0.998565673828125,-0.1771240234375,0.001068115234375
1732873775316980700,8.522980712890625,-1.0510406494140625,-0.1194000244140625,0.0158843994140625
1732873775326975700,8.532975830078126,-1.15045166015625,-0.067291259765625,0.0565338134765625
1732873775336971800,8.5429716796875,-1.275848388671875,-0.0498199462890625,0.0987396240234375
1732873775346966800,8.552966796875,-1.3495941162109375,-0.076507568359375,0.1187591552734375
1732873775356961800,8.5629619140625,-1.31298828125,-0.1351776123046875,0.124725341796875
1732873775366956800,8.572956787109375,-1.1706695556640625,-0.2087860107421875,0.10406494140625
1732873775376951800,8.582951904296875,-0.985992431640625,-0.2738494873046875,0.065887451171875
1732873775386947600,8.592947509765626,-0.8231353759765625,-0.3122711181640625,0.0133819580078125
1732873775396942800,8.60294287109375,-0.7149810791015625,-0.3176116943359375,-0.0413665771484375
1732873775406937900,8.612937744140625,-0.666046142578125,-0.2881622314453125,-0.0808258056640625
1732873775416932900,8.622932861328126,-0.698394775390625,-0.221405029296875,-0.094696044921875
1732873775426928600,8.6329287109375,-0.811309814453125,-0.1641387939453125,-0.0894012451171875
1732873775436923000,8.6429228515625,-1.0061798095703125,-0.101654052734375,-0.058074951171875
1732873775446918000,8.65291796875,-1.2082061767578125,-0.067047119140625,-0.0338897705078125
1732873775456912600,8.66291259765625,-1.3570098876953125,-0.0645904541015625,-0.0104522705078125
1732873775466908000,8.672907958984375,-1.4183197021484375,-0.0851593017578125,-0.0005035400390625
1732873775476904000,8.682904052734376,-1.361328125,-0.1134490966796875,-0.0169219970703125
1732873775486899000,8.69289892578125,-1.2165985107421875,-0.153717041015625,-0.0541229248046875
1732873775496894000,8.70289404296875,-1.04046630859375,-0.1967926025390625,-0.08544921875
1732873775506889000,8.712888916015626,-0.89459228515625,-0.226470947265625,-0.1042633056640625
1732873775516884700,8.722884765625,-0.8008270263671875,-0.239715576171875,-0.1103973388671875
1732873775526879700,8.732879638671875,-0.7571258544921875,-0.2321319580078125,-0.1120147705078125
1732873775536874800,8.742874755859376,-0.766510009765625,-0.2104339599609375,-0.1099090576171875
1732873775546869800,8.752869873046874,-0.82257080078125,-0.1789703369140625,-0.1016082763671875
1732873775556865000,8.762864990234375,-0.9036407470703125,-0.14227294921875,-0.0824127197265625
1732873775566860800,8.77286083984375,-0.977081298828125,-0.109375,-0.051025390625
1732873775576855800,8.782855712890624,-1.03515625,-0.0904693603515625,-0.0230255126953125
1732873775586850800,8.792850830078125,-1.0678253173828125,-0.075927734375,-0.00457763671875
1732873775596845800,8.802845703125,-1.064178466796875,-0.065704345703125,0.0128326416015625
1732873775606841900,8.812841796875,-1.0367584228515625,-0.0721893310546875,0.01495361328125
1732873775616836900,8.8228369140625,-1.0037994384765625,-0.083038330078125,-0.0102996826171875
1732873775626832000,8.832831787109376,-0.97784423828125,-0.0949859619140625,-0.0401763916015625
1732873775636827000,8.842826904296874,-0.9571533203125,-0.1142578125,-0.071563720703125
1732873775646822000,8.85282177734375,-0.9364013671875,-0.132904052734375,-0.1023101806640625
1732873775656818000,8.86281787109375,-0.9144287109375,-0.1453704833984375,-0.1360931396484375
1732873775666813000,8.87281298828125,-0.886993408203125,-0.152191162109375,-0.164794921875
1732873775676808000,8.882807861328125,-0.87213134765625,-0.1555938720703125,-0.1845855712890625
1732873775686803000,8.892802978515626,-0.875823974609375,-0.15826416015625,-0.1994476318359375
1732873775696798700,8.902798828125,-0.895538330078125,-0.164581298828125,-0.1994171142578125
1732873775706793700,8.912793701171875,-0.9178314208984375,-0.1632080078125,-0.18426513671875
1732873775716788700,8.922788818359376,-0.9383697509765625,-0.15478515625,-0.158355712890625
1732873775726784000,8.932783935546874,-0.9647064208984375,-0.1419830322265625,-0.1247711181640625
1732873775736779000,8.942779052734375,-0.992584228515625,-0.1261444091796875,-0.0888214111328125
1732873775746774800,8.95277490234375,-1.01971435546875,-0.1082000732421875,-0.0626220703125
1732873775756769800,8.962769775390624,-1.0302734375,-0.0980224609375,-0.0482025146484375
1732873775766764800,8.972764892578125,-1.0186920166015625,-0.1008758544921875,-0.0499267578125
1732873775776759800,8.982759765625,-0.9909210205078125,-0.11248779296875,-0.0673370361328125
1732873775786755800,8.992755859375,-0.9432525634765625,-0.13275146484375,-0.09765625
1732873775796750800,9.002750732421875,-0.8962860107421875,-0.14862060546875,-0.109161376953125
1732873775806745900,9.012745849609376,-0.8712310791015625,-0.161895751953125,-0.102447509765625
1732873775816740900,9.022740966796874,-0.87310791015625,-0.1612396240234375,-0.079254150390625
1732873775826735900,9.03273583984375,-0.92315673828125,-0.138519287109375,-0.0274200439453125
1732873775836732000,9.04273193359375,-1.0244903564453125,-0.1099090576171875,0.0317535400390625
1732873775846727000,9.052726806640624,-1.1577301025390625,-0.07623291015625,0.1032867431640625
1732873775856722000,9.062721923828125,-1.28155517578125,-0.0611572265625,0.1662139892578125
1732873775866717000,9.072717041015625,-1.3673248291015625,-0.06463623046875,0.1911163330078125
1732873775876712700,9.082712646484374,-1.3990020751953125,-0.0744781494140625,0.2122344970703125
1732873775886707700,9.092707763671875,-1.360260009765625,-0.081756591796875,0.2224273681640625
1732873775896702700,9.10270263671875,-1.2668914794921875,-0.0931243896484375,0.202362060546875
1732873775906698000,9.112697998046874,-1.1590576171875,-0.0988311767578125,0.17633056640625
1732873775916693000,9.12269287109375,-1.0751953125,-0.0962066650390625,0.1447601318359375
1732873775926689000,9.13268896484375,-1.0338897705078125,-0.086273193359375,0.1297607421875
1732873775936683800,9.142683837890624,-1.0350494384765625,-0.0771942138671875,0.141021728515625
1732873775946678800,9.1526787109375,-1.0759124755859375,-0.07830810546875,0.17852783203125
1732873775956673800,9.162673828125,-1.1202850341796875,-0.092926025390625,0.211395263671875
1732873775966669800,9.172669921875,-1.1261749267578125,-0.1139678955078125,0.2320709228515625
1732873775976664800,9.182664794921875,-1.090240478515625,-0.1447296142578125,0.2399139404296875
1732873775986659800,9.192659912109375,-1.0302886962890625,-0.173858642578125,0.229034423828125
1732873775996655000,9.202655029296874,-0.9759368896484375,-0.1986541748046875,0.2086181640625
1732873776006649900,9.21264990234375,-0.9273681640625,-0.2097015380859375,0.1870269775390625
1732873776016646000,9.22264599609375,-0.8885345458984375,-0.213043212890625,0.1522979736328125
1732873776026641000,9.232640869140624,-0.873870849609375,-0.19927978515625,0.1182403564453125
1732873776036636000,9.242635986328125,-0.873016357421875,-0.170257568359375,0.0968017578125
1732873776046631000,9.252630859375,-0.8972015380859375,-0.14263916015625,0.0975341796875
1732873776056626700,9.262626708984374,-0.9366607666015625,-0.1168670654296875,0.1079254150390625
1732873776066621700,9.27262158203125,-0.9774627685546875,-0.0871124267578125,0.112945556640625
1732873776076616700,9.28261669921875,-1.01055908203125,-0.05340576171875,0.1214447021484375
1732873776086612000,9.292612060546874,-1.0486297607421875,-0.024566650390625,0.12774658203125
1732873776096608000,9.30260791015625,-1.0828704833984375,-0.0037841796875,0.127777099609375
1732873776106603000,9.31260302734375,-1.1001434326171875,0.006927490234375,0.14306640625
1732873776116598000,9.322597900390624,-1.094970703125,0.00225830078125,0.158050537109375
1732873776126592800,9.3325927734375,-1.0643768310546875,-0.01416015625,0.1607818603515625
1732873776136587800,9.342587890625,-1.0142669677734375,-0.02789306640625,0.152862548828125
1732873776146583800,9.352583740234374,-0.9634246826171875,-0.0402984619140625,0.1538238525390625
1732873776156578800,9.362578857421875,-0.930572509765625,-0.0551605224609375,0.1579132080078125
1732873776166573800,9.37257373046875,-0.914398193359375,-0.0657958984375,0.1652374267578125
1732873776176569000,9.382569091796874,-0.9107818603515625,-0.0727081298828125,0.1697540283203125
1732873776186564900,9.39256494140625,-0.9136505126953125,-0.075408935546875,0.1658477783203125
1732873776196560000,9.402559814453125,-0.9149627685546875,-0.074493408203125,0.1473846435546875
1732873776206555000,9.412554931640624,-0.9121551513671875,-0.066070556640625,0.1186065673828125
1732873776216550000,9.4225498046875,-0.9062652587890625,-0.0623779296875,0.0807037353515625
1732873776226545000,9.432544921875,-0.895172119140625,-0.0621795654296875,0.041168212890625
1732873776236540700,9.442540771484374,-0.8801727294921875,-0.067840576171875,0.0059051513671875
1732873776246535700,9.45253564453125,-0.852630615234375,-0.0779266357421875,-0.02691650390625
1732873776256530700,9.46253076171875,-0.8233642578125,-0.09112548828125,-0.0539398193359375
1732873776266526000,9.47252587890625,-0.795257568359375,-0.111602783203125,-0.0711212158203125
1732873776276522000,9.48252197265625,-0.78167724609375,-0.1590423583984375,-0.07659912109375
1732873776286517000,9.49251708984375,-0.7818756103515625,-0.19818115234375,-0.066162109375
1732873776296512000,9.502511962890624,-0.7944793701171875,-0.2008514404296875,-0.042266845703125
1732873776306506800,9.5125068359375,-0.802520751953125,-0.2011260986328125,-0.0401611328125
1732873776316501800,9.522501708984375,-0.81695556640625,-0.1583099365234375,-0.041839599609375
1732873776326497800,9.532497802734374,-0.871826171875,-0.101348876953125,-0.03857421875
1732873776336492800,9.542492919921875,-0.96429443359375,-0.0515899658203125,-0.01971435546875
1732873776346487800,9.55248779296875,-1.08233642578125,-0.014739990234375,0.0006866455078125
1732873776356483000,9.562483154296874,-1.2003021240234375,-0.0051422119140625,0.0225677490234375
1732873776366478800,9.572478759765625,-1.302520751953125,-0.0346832275390625,0.0391845703125
1732873776376473900,9.582473876953125,-1.351715087890625,-0.0924835205078125,0.030242919921875
1732873776386468900,9.59246875,-1.3199462890625,-0.1576690673828125,0.019989013671875
1732873776396463900,9.6024638671875,-1.218536376953125,-0.2203216552734375,0.0227508544921875
1732873776406460000,9.6124599609375,-1.1041107177734375,-0.270782470703125,0.0266876220703125
1732873776416455000,9.622454833984374,-0.9975738525390625,-0.3024749755859375,0.031951904296875
1732873776426449700,9.63244970703125,-0.9342803955078125,-0.3309173583984375,0.0369415283203125
1732873776436444700,9.642444580078125,-0.9091796875,-0.345489501953125,0.045867919921875
1732873776446440200,9.652440185546874,-0.9265289306640625,-0.3326263427734375,0.0454254150390625
1732873776456436200,9.662436279296875,-0.9762420654296875,-0.2927703857421875,0.041778564453125
1732873776466431200,9.67243115234375,-1.0531768798828125,-0.2378082275390625,0.0283203125
1732873776476426200,9.68242626953125,-1.1281585693359375,-0.1779327392578125,0.0113677978515625
1732873776486421200,9.692421142578125,-1.1836395263671875,-0.1175994873046875,0.0056610107421875
1732873776496417300,9.702417236328126,-1.22784423828125,-0.065582275390625,0.007720947265625
1732873776506412300,9.712412353515624,-1.2544097900390625,-0.0424652099609375,-0.00384521484375
1732873776516407300,9.7224072265625,-1.24627685546875,-0.0441131591796875,-0.0204315185546875
1732873776526402300,9.73240234375,-1.1864471435546875,-0.066864013671875,-0.028350830078125
1732873776536398000,9.742398193359374,-1.0858306884765625,-0.1021270751953125,-0.03936767578125
1732873776546393000,9.75239306640625,-0.970062255859375,-0.1305999755859375,-0.0624542236328125
1732873776556388000,9.76238818359375,-0.87347412109375,-0.153045654296875,-0.0823822021484375
1732873776566383400,9.77238330078125,-0.79937744140625,-0.173309326171875,-0.0878143310546875
1732873776576378400,9.78237841796875,-0.7483978271484375,-0.188995361328125,-0.0911865234375
1732873776586374400,9.79237451171875,-0.723480224609375,-0.1907196044921875,-0.0895538330078125
1732873776596369200,9.802369140625,-0.72930908203125,-0.1811981201171875,-0.0917510986328125
1732873776606364200,9.8123642578125,-0.7691497802734375,-0.170074462890625,-0.1006622314453125
1732873776616359200,9.822359130859375,-0.8308868408203125,-0.154693603515625,-0.1261749267578125
1732873776626355200,9.832355224609374,-0.88970947265625,-0.138397216796875,-0.1559600830078125
1732873776636350200,9.84235009765625,-0.933349609375,-0.107452392578125,-0.1713409423828125
1732873776646345200,9.85234521484375,-0.968902587890625,-0.0693511962890625,-0.1737823486328125
1732873776656340500,9.862340576171874,-1.0072174072265625,-0.040802001953125,-0.169342041015625
1732873776666336300,9.872336181640625,-1.0525665283203125,-0.0259857177734375,-0.166351318359375
1732873776676331300,9.882331298828126,-1.0855712890625,-0.0269012451171875,-0.1697998046875
1732873776686326300,9.892326171875,-1.096832275390625,-0.040496826171875,-0.176361083984375
1732873776696321300,9.9023212890625,-1.0804443359375,-0.06439208984375,-0.179901123046875
1732873776706316300,9.91231640625,-1.045074462890625,-0.0903472900390625,-0.18133544921875
1732873776716312000,9.92231201171875,-1.0051116943359375,-0.1125335693359375,-0.1763763427734375
1732873776726307000,9.93230712890625,-0.9695892333984375,-0.13275146484375,-0.157196044921875
1732873776736302000,9.942302001953125,-0.9401702880859375,-0.1548614501953125,-0.131256103515625
1732873776746297300,9.95229736328125,-0.9153289794921875,-0.1730499267578125,-0.1190948486328125
1732873776756293400,9.96229345703125,-0.8908233642578125,-0.186065673828125,-0.1118927001953125
1732873776766288400,9.972288330078126,-0.868377685546875,-0.1869659423828125,-0.1050567626953125
1732873776776283400,9.982283447265624,-0.8656158447265625,-0.18182373046875,-0.122528076171875
1732873776786278100,9.992278076171875,-0.8844451904296875,-0.1651611328125,-0.1341552734375
1732873776796274200,10.002274169921876,-0.922882080078125,-0.1439208984375,-0.12579345703125
1732873776806269200,10.012269287109374,-0.971527099609375,-0.126373291015625,-0.1035003662109375
1732873776816264200,10.02226416015625,-1.0195159912109375,-0.116943359375,-0.0852813720703125
1732873776826259200,10.03225927734375,-1.0547637939453125,-0.1135101318359375,-0.066162109375
1732873776836254500,10.04225439453125,-1.063507080078125,-0.13006591796875,-0.0391082763671875
1732873776846250200,10.052250244140625,-1.0507049560546875,-0.150665283203125,-0.0094146728515625
1732873776856245200,10.062245361328126,-1.0142822265625,-0.163818359375,0.02978515625
1732873776866240300,10.072240234375,-0.9671783447265625,-0.1677093505859375,0.043121337890625
1732873776876235300,10.0822353515625,-0.9376068115234375,-0.1588134765625,0.043243408203125
1732873776886231300,10.092231201171876,-0.9412384033203125,-0.1524200439453125,0.0492706298828125
1732873776896226000,10.10222607421875,-0.9842071533203125,-0.1428375244140625,0.0710601806640625
1732873776906221000,10.112220947265625,-1.0569305419921875,-0.13800048828125,0.08551025390625
1732873776916216000,10.122216064453125,-1.1287841796875,-0.140960693359375,0.09881591796875
1732873776926212400,10.13221240234375,-1.1631317138671875,-0.140350341796875,0.1149444580078125
1732873776936207400,10.142207275390625,-1.155242919921875,-0.1331939697265625,0.1374664306640625
1732873776946202400,10.152202392578126,-1.127777099609375,-0.1203765869140625,0.1362762451171875
1732873776956197400,10.162197265625,-1.0833587646484375,-0.116851806640625,0.0987701416015625
1732873776966193200,10.172193115234375,-1.031646728515625,-0.1107635498046875,0.054656982421875
1732873776976188200,10.182188232421876,-0.9952850341796875,-0.1226043701171875,0.005462646484375
1732873776986183200,10.19218310546875,-0.9732666015625,-0.1503448486328125,-0.0181427001953125
1732873776996178200,10.20217822265625,-0.975494384765625,-0.1780548095703125,-0.018585205078125
1732873777006173200,10.212173095703125,-1.004669189453125,-0.1970062255859375,-0.0000762939453125
1732873777016169200,10.222169189453124,-1.0492706298828125,-0.216522216796875,0.021759033203125
1732873777026164200,10.232164306640625,-1.0963287353515625,-0.217010498046875,0.0487823486328125
1732873777036159200,10.2421591796875,-1.1437225341796875,-0.2133331298828125,0.06951904296875
1732873777046154200,10.252154296875,-1.1827239990234375,-0.2151336669921875,0.07440185546875
1732873777056150300,10.262150390625,-1.19964599609375,-0.2158203125,0.0673980712890625
1732873777066145300,10.272145263671876,-1.178009033203125,-0.2149505615234375,0.0297088623046875
1732873777076140300,10.282140380859374,-1.1163177490234375,-0.215484619140625,-0.021026611328125
1732873777086135000,10.292135009765625,-1.035797119140625,-0.211517333984375,-0.0567626953125
1732873777096131300,10.30213134765625,-0.9542694091796875,-0.213165283203125,-0.0690155029296875
1732873777106126300,10.312126220703124,-0.8730621337890625,-0.21624755859375,-0.0720672607421875
1732873777116121300,10.322121337890625,-0.8135528564453125,-0.2111663818359375,-0.05987548828125
1732873777126116400,10.332116455078125,-0.7763824462890625,-0.19281005859375,-0.0290069580078125
1732873777136112000,10.342112060546874,-0.7628326416015625,-0.1745452880859375,0.0012359619140625
1732873777146107100,10.352107177734375,-0.7708892822265625,-0.1579437255859375,0.0236968994140625
1732873777156102100,10.36210205078125,-0.790985107421875,-0.1372528076171875,0.0357818603515625
1732873777166097200,10.37209716796875,-0.8185577392578125,-0.11297607421875,0.0376434326171875
1732873777176092200,10.382092041015625,-0.8446502685546875,-0.0878448486328125,0.03460693359375
1732873777186088400,10.39208837890625,-0.8654937744140625,-0.0622100830078125,0.029632568359375
1732873777196083200,10.402083251953124,-0.89349365234375,-0.03924560546875,0.026611328125
1732873777206078200,10.412078125,-0.9197998046875,-0.028656005859375,0.0326385498046875
1732873777216073200,10.4220732421875,-0.9332733154296875,-0.03656005859375,0.037384033203125
1732873777226069200,10.4320693359375,-0.9140777587890625,-0.054443359375,0.040130615234375
1732873777236064300,10.442064208984375,-0.8729248046875,-0.077362060546875,0.0462188720703125
1732873777246059300,10.452059326171875,-0.825653076171875,-0.10101318359375,0.0452117919921875
1732873777256054300,10.46205419921875,-0.785308837890625,-0.12646484375,0.036376953125
1732873777266050300,10.47205029296875,-0.7695770263671875,-0.1431427001953125,0.022735595703125
1732873777276045300,10.48204541015625,-0.782135009765625,-0.1480255126953125,0.0097503662109375
1732873777286040300,10.492040283203124,-0.815704345703125,-0.149627685546875,0.0014190673828125
1732873777296035300,10.502035400390625,-0.8597259521484375,-0.17138671875,-0.00689697265625
1732873777306031000,10.512031005859376,-0.9039306640625,-0.2113800048828125,-0.015411376953125
1732873777316026000,10.522026123046874,-0.93426513671875,-0.2147216796875,-0.0338287353515625
1732873777326021000,10.532021240234375,-0.94354248046875,-0.1921539306640625,-0.0467376708984375
1732873777336016100,10.54201611328125,-0.923980712890625,-0.1574859619140625,-0.055816650390625
1732873777346011100,10.55201123046875,-0.9077301025390625,-0.110748291015625,-0.0571441650390625
1732873777356007400,10.56200732421875,-0.9219207763671875,-0.076812744140625,-0.0473785400390625
1732873777366002400,10.57200244140625,-0.966064453125,-0.0670013427734375,-0.043212890625
1732873777375997200,10.5819970703125,-1.0180511474609375,-0.0948638916015625,-0.0583648681640625
1732873777385992200,10.5919921875,-1.04302978515625,-0.1542205810546875,-0.08990478515625
1732873777395988200,10.60198828125,-1.0261993408203125,-0.2007293701171875,-0.1214752197265625
1732873777405983200,10.611983154296874,-0.9879608154296875,-0.2111358642578125,-0.1544342041015625
1732873777415978200,10.621978271484375,-0.9941864013671875,-0.160064697265625,-0.1710052490234375
1732873777425973200,10.63197314453125,-1.050323486328125,-0.084075927734375,-0.1801605224609375
1732873777435969300,10.64196923828125,-1.1786651611328125,0.0124359130859375,-0.1373291015625
1732873777445964000,10.651964111328125,-1.392913818359375,0.070343017578125,-0.0794219970703125
1732873777455959000,10.661958984375,-1.62811279296875,0.07293701171875,-0.0435791015625
1732873777465954000,10.6719541015625,-1.802947998046875,0.028045654296875,-0.0198974609375
1732873777475950300,10.681950439453125,-1.846466064453125,-0.0493316650390625,-0.024658203125
1732873777485945300,10.6919453125,-1.730865478515625,-0.1347503662109375,-0.0159912109375
1732873777495940000,10.701940185546874,-1.4944610595703125,-0.193634033203125,-0.0032196044921875
1732873777505935000,10.71193505859375,-1.2406158447265625,-0.2374267578125,-0.00445556640625
1732873777515930000,10.72193017578125,-1.049346923828125,-0.2578887939453125,0.005279541015625
1732873777525926100,10.731926025390624,-0.9316253662109375,-0.2415924072265625,0.0241546630859375
1732873777535921200,10.741921142578125,-0.88153076171875,-0.2044830322265625,0.0298309326171875
1732873777545916200,10.751916259765625,-0.8776397705078125,-0.1559906005859375,-0.0004119873046875
1732873777555911200,10.7619111328125,-0.8881988525390625,-0.11578369140625,-0.028228759765625
1732873777565907200,10.7719072265625,-0.8918609619140625,-0.0891571044921875,-0.0539398193359375
1732873777575902200,10.781902099609376,-0.8726959228515625,-0.059112548828125,-0.07574462890625
1732873777585897200,10.791897216796874,-0.8395233154296875,-0.042144775390625,-0.0981903076171875
1732873777595892200,10.801892333984375,-0.803497314453125,-0.0407257080078125,-0.128662109375
1732873777605888300,10.81188818359375,-0.77032470703125,-0.0424957275390625,-0.1449737548828125
1732873777615883000,10.821883056640624,-0.7547149658203125,-0.0457305908203125,-0.148223876953125
1732873777625878000,10.8318779296875,-0.7714691162109375,-0.05279541015625,-0.1515350341796875
1732873777635873000,10.841873046875,-0.8187255859375,-0.0596160888671875,-0.1418304443359375
1732873777645869300,10.851869384765624,-0.8680877685546875,-0.0532073974609375,-0.1302337646484375
1732873777655864300,10.8618642578125,-0.906097412109375,-0.0442962646484375,-0.13653564453125
1732873777665859300,10.871859375,-0.9234466552734375,-0.0485687255859375,-0.149017333984375
1732873777675854000,10.88185400390625,-0.924224853515625,-0.0529632568359375,-0.1664886474609375
1732873777685849000,10.89184912109375,-0.9149017333984375,-0.06268310546875,-0.1922454833984375
1732873777695845000,10.90184521484375,-0.90301513671875,-0.0737152099609375,-0.2176055908203125
1732873777705840000,10.911840087890624,-0.8983612060546875,-0.079925537109375,-0.2272186279296875
1732873777715835100,10.921835205078125,-0.9058380126953125,-0.0773162841796875,-0.230072021484375
1732873777725830100,10.931830078125,-0.93170166015625,-0.0716094970703125,-0.2329864501953125
1732873777735826200,10.941826171875,-0.9636688232421875,-0.0590057373046875,-0.2385711669921875
1732873777745821200,10.9518212890625,-1.000152587890625,-0.0450592041015625,-0.24114990234375
1732873777755816200,10.961816162109375,-1.0319976806640625,-0.0381011962890625,-0.2404022216796875
1732873777765811200,10.971811279296874,-1.046600341796875,-0.037353515625,-0.2548675537109375
1732873777775807200,10.98180712890625,-1.04156494140625,-0.0490875244140625,-0.274322509765625
1732873777785802200,10.99180224609375,-1.0190887451171875,-0.060333251953125,-0.2920074462890625
1732873777795797000,11.001796875,-0.9975738525390625,-0.0650177001953125,-0.3076629638671875
1732873777805792000,11.0117919921875,-0.996246337890625,-0.0671234130859375,-0.31646728515625
1732873777815788300,11.021788330078126,-1.0176849365234375,-0.0648040771484375,-0.311920166015625
1732873777825783300,11.031783203125,-1.0480499267578125,-0.045501708984375,-0.2859954833984375
1732873777835778300,11.0417783203125,-1.093109130859375,-0.019439697265625,-0.2554931640625
1732873777845773300,11.051773193359375,-1.1436309814453125,0.0051727294921875,-0.2257080078125
1732873777855769000,11.06176904296875,-1.2010498046875,0.016632080078125,-0.2104034423828125
1732873777865764000,11.07176416015625,-1.2426910400390625,0.01763916015625,-0.2179412841796875
1732873777875759000,11.081759033203125,-1.2393951416015625,0.00634765625,-0.2271575927734375
1732873777885754000,11.091754150390624,-1.175750732421875,-0.0236053466796875,-0.23486328125
1732873777895749000,11.1017490234375,-1.076202392578125,-0.0600128173828125,-0.237457275390625
1732873777905745200,11.1117451171875,-0.9683380126953125,-0.0934600830078125,-0.223968505859375
1732873777915740200,11.121740234375,-0.8682403564453125,-0.115966796875,-0.19775390625
1732873777925735200,11.131735107421875,-0.790435791015625,-0.12359619140625,-0.154876708984375
1732873777935730200,11.141730224609375,-0.7337646484375,-0.1189117431640625,-0.087005615234375
1732873777945726200,11.151726318359374,-0.69873046875,-0.10968017578125,-0.033294677734375
1732873777955721200,11.16172119140625,-0.7023162841796875,-0.09375,0.005340576171875
1732873777965716200,11.17171630859375,-0.7435302734375,-0.0858154296875,0.0359649658203125
1732873777975711200,11.181711181640624,-0.811431884765625,-0.0858154296875,0.058319091796875
1732873777985707300,11.191707275390625,-0.87939453125,-0.100677490234375,0.0604095458984375
1732873777995702300,11.201702392578126,-0.9218292236328125,-0.134857177734375,0.0539703369140625
1732873778005697300,11.211697265625,-0.9261322021484375,-0.1792144775390625,0.0536346435546875
1732873778015692300,11.2216923828125,-0.9015960693359375,-0.2292633056640625,0.0661773681640625
1732873778025688000,11.23168798828125,-0.8654022216796875,-0.282745361328125,0.0758819580078125
1732873778035683000,11.24168310546875,-0.8450469970703125,-0.3034210205078125,0.08209228515625
1732873778045678000,11.251677978515625,-0.86358642578125,-0.2857513427734375,0.0851593017578125
1732873778055673000,11.261673095703125,-0.9332427978515625,-0.2484283447265625,0.11676025390625
1732873778065669000,11.271669189453124,-1.0487213134765625,-0.1974334716796875,0.21160888671875
1732873778075664400,11.281664306640625,-1.217315673828125,-0.142852783203125,0.319061279296875
1732873778085659400,11.291659423828126,-1.407318115234375,-0.0956268310546875,0.38995361328125
1732873778095654100,11.301654052734374,-1.5602874755859375,-0.0644683837890625,0.4108123779296875
1732873778105650200,11.311650146484375,-1.6338043212890625,-0.047119140625,0.3890380859375
1732873778115645200,11.321645263671876,-1.6003265380859375,-0.034698486328125,0.3334808349609375
1732873778125640200,11.33164013671875,-1.4816436767578125,-0.0404510498046875,0.2498321533203125
1732873778135635200,11.34163525390625,-1.3311767578125,-0.068389892578125,0.1578369140625
1732873778145631000,11.351630859375,-1.1826171875,-0.115325927734375,0.090118408203125
1732873778155626000,11.3616259765625,-1.0612640380859375,-0.1634063720703125,0.0359039306640625
1732873778165621200,11.371621337890625,-0.9630126953125,-0.2027435302734375,-0.001922607421875
1732873778175616300,11.3816162109375,-0.87896728515625,-0.23297119140625,-0.0277252197265625
1732873778185612300,11.3916123046875,-0.8236541748046875,-0.257598876953125,-0.045501708984375
1732873778195607300,11.401607177734375,-0.799468994140625,-0.2679595947265625,-0.051971435546875
1732873778205602000,11.41160205078125,-0.802947998046875,-0.2608489990234375,-0.041748046875
1732873778215597000,11.42159716796875,-0.832977294921875,-0.2489776611328125,-0.029388427734375
1732873778225592000,11.431592041015625,-0.873931884765625,-0.2331390380859375,-0.0162506103515625
1732873778235588000,11.441588134765626,-0.9087066650390625,-0.21728515625,-0.0037994384765625
1732873778245583000,11.4515830078125,-0.9358673095703125,-0.2038116455078125,-0.00592041015625
1732873778255578400,11.461578369140625,-0.942138671875,-0.19256591796875,-0.0090789794921875
1732873778265574100,11.47157421875,-0.9289703369140625,-0.181182861328125,0.00091552734375
1732873778275569200,11.481569091796874,-0.9078826904296875,-0.171722412109375,0.0076904296875
1732873778285564200,11.491564208984375,-0.878448486328125,-0.1565093994140625,-0.00567626953125
1732873778295559200,11.50155908203125,-0.8455963134765625,-0.140045166015625,-0.02410888671875
1732873778305554200,11.51155419921875,-0.8220367431640625,-0.1221466064453125,-0.027008056640625
1732873778315550200,11.52155029296875,-0.8425750732421875,-0.11798095703125,-0.0310211181640625
1732873778325545000,11.531544921875,-0.915008544921875,-0.0631866455078125,-0.0848388671875
1732873778335540000,11.5415400390625,-0.9387969970703125,-0.0666961669921875,-0.054534912109375
1732873778345535200,11.55153515625,-0.9315643310546875,-0.087799072265625,0.075469970703125
1732873778355531300,11.56153125,-0.9630279541015625,-0.1158905029296875,0.103790283203125
1732873778365526300,11.5715263671875,-0.9744720458984375,-0.14910888671875,0.140655517578125
1732873778375521300,11.581521240234375,-0.9696197509765625,-0.1525115966796875,0.1622467041015625
1732873778385516300,11.591516357421876,-0.952789306640625,-0.141448974609375,0.1546478271484375
1732873778395512000,11.601511962890624,-0.9326171875,-0.1243743896484375,0.1307373046875
1732873778405507000,11.611507080078125,-0.91900634765625,-0.1199493408203125,0.089996337890625
1732873778415502000,11.621502197265626,-0.9161834716796875,-0.1098480224609375,0.061737060546875
1732873778425497000,11.6314970703125,-0.9246826171875,-0.10565185546875,0.037139892578125
1732873778435493000,11.6414931640625,-0.9408111572265625,-0.098480224609375,0.0360260009765625
1732873778445489200,11.6514892578125,-0.96685791015625,-0.0927276611328125,0.0562591552734375
1732873778455484200,11.661484130859375,-1.013397216796875,-0.081878662109375,0.0524444580078125
1732873778465479200,11.671479248046875,-1.0786895751953125,-0.076995849609375,0.0491180419921875
1732873778475475200,11.68147509765625,-1.1294403076171875,-0.0858612060546875,0.043670654296875
1732873778485470000,11.691469970703125,-1.1549072265625,-0.0909881591796875,0.043701171875
1732873778495465000,11.70146484375,-1.1545257568359375,-0.108551025390625,0.0487518310546875
1732873778505460000,11.7114599609375,-1.135467529296875,-0.1236724853515625,0.057403564453125
1732873778515456300,11.721456298828125,-1.0994720458984375,-0.1275177001953125,0.0593109130859375
1732873778525451300,11.731451171875,-1.0513763427734375,-0.1210479736328125,0.0250244140625
1732873778535446300,11.7414462890625,-1.0084075927734375,-0.098175048828125,-0.036712646484375
1732873778545441000,11.75144091796875,-0.9952850341796875,-0.0719146728515625,-0.1023101806640625
1732873778555437000,11.76143701171875,-1.0081329345703125,-0.04498291015625,-0.1545257568359375
1732873778565432000,11.77143212890625,-1.0293731689453125,-0.0337677001953125,-0.1983795166015625
1732873778575427000,11.781427001953125,-1.0385284423828125,-0.047149658203125,-0.2181549072265625
1732873778585422000,11.791422119140625,-1.014678955078125,-0.0798492431640625,-0.2043914794921875
1732873778595418000,11.801418212890624,-0.96923828125,-0.1401824951171875,-0.1916961669921875
1732873778605413000,11.8114130859375,-0.9082183837890625,-0.2071380615234375,-0.172393798828125
1732873778615408000,11.821408203125,-0.8396759033203125,-0.2659149169921875,-0.1379241943359375
1732873778625403100,11.831403076171876,-0.7852325439453125,-0.3116302490234375,-0.09222412109375
1732873778635399200,11.841399169921875,-0.7642364501953125,-0.3162384033203125,-0.0471343994140625
1732873778645394200,11.851394287109375,-0.798248291015625,-0.2827606201171875,0.0039520263671875
1732873778655389200,11.86138916015625,-0.8988800048828125,-0.2198028564453125,0.044158935546875
1732873778665384000,11.871384033203125,-1.0510711669921875,-0.14208984375,0.047576904296875
1732873778675380200,11.881380126953125,-1.2372283935546875,-0.0615997314453125,0.0148162841796875
1732873778685375200,11.891375244140624,-1.4211578369140625,-0.0172576904296875,-0.0452728271484375
1732873778695370200,11.901370361328125,-1.51898193359375,-0.00579833984375,-0.1139068603515625
1732873778705365200,11.911365234375,-1.4913482666015625,0.0047454833984375,-0.1400909423828125
1732873778715361000,11.921361083984374,-1.3498687744140625,-0.033203125,-0.1551513671875
1732873778725356000,11.93135595703125,-1.158355712890625,-0.094146728515625,-0.13983154296875
1732873778735351000,11.94135107421875,-0.9639434814453125,-0.165374755859375,-0.087249755859375
1732873778745346000,11.951345947265626,-0.8051910400390625,-0.2205047607421875,-0.0543060302734375
1732873778755342000,11.961342041015625,-0.702362060546875,-0.25140380859375,-0.052154541015625
1732873778765337300,11.97133740234375,-0.6497955322265625,-0.2732696533203125,-0.0443878173828125
1732873778775332000,11.98133203125,-0.6398468017578125,-0.2870635986328125,-0.0269622802734375
1732873778785327000,11.9913271484375,-0.6673126220703125,-0.2913970947265625,-0.013031005859375
1732873778795323100,12.0013232421875,-0.7151947021484375,-0.2943878173828125,-0.0140380859375
1732873778805318100,12.011318115234374,-0.76654052734375,-0.2944793701171875,-0.01715087890625
1732873778815313200,12.021313232421875,-0.809967041015625,-0.2898406982421875,-0.0218963623046875
1732873778825308200,12.03130810546875,-0.8441925048828125,-0.2808837890625,-0.0325775146484375
1732873778835304000,12.041303955078124,-0.886322021484375,-0.2602691650390625,-0.058380126953125
1732873778845299000,12.051298828125,-0.9358062744140625,-0.235626220703125,-0.0816192626953125
1732873778855294200,12.061294189453125,-1.0017547607421875,-0.207794189453125,-0.086822509765625
1732873778865289200,12.071289306640624,-1.0892181396484375,-0.1839752197265625,-0.0857696533203125
1732873778875285200,12.08128515625,-1.1754913330078125,-0.1650848388671875,-0.0948944091796875
1732873778885280300,12.0912802734375,-1.2267913818359375,-0.1461944580078125,-0.100555419921875
1732873778895275000,12.10127490234375,-1.2265167236328125,-0.1363525390625,-0.07452392578125
1732873778905270000,12.11127001953125,-1.1842041015625,-0.13824462890625,-0.041595458984375
1732873778915266000,12.12126611328125,-1.1264190673828125,-0.164031982421875,0.000885009765625
1732873778925261000,12.131260986328124,-1.0623779296875,-0.1852264404296875,0.03070068359375
1732873778935256000,12.141256103515625,-1.0064544677734375,-0.2041168212890625,0.0357818603515625
1732873778945251300,12.151251220703125,-0.9623870849609375,-0.21978759765625,0.036102294921875
1732873778955247000,12.1612470703125,-0.9352264404296875,-0.221771240234375,0.0406646728515625
1732873778965242000,12.1712421875,-0.934600830078125,-0.215545654296875,0.0459747314453125
1732873778975237000,12.181237060546875,-0.9480438232421875,-0.2072906494140625,0.0484466552734375
1732873778985232100,12.191232177734374,-0.9643402099609375,-0.18682861328125,0.0556640625
1732873778995228200,12.201228271484375,-0.9870452880859375,-0.1713409423828125,0.053741455078125
1732873779005223000,12.211222900390625,-1.0038604736328125,-0.172698974609375,0.0544281005859375
1732873779015218000,12.221218017578124,-1.0007781982421875,-0.183563232421875,0.057830810546875
1732873779025213200,12.231213134765625,-0.979522705078125,-0.2003326416015625,0.0471954345703125
1732873779035209200,12.241209228515626,-0.946502685546875,-0.21295166015625,0.03033447265625
1732873779045204200,12.251204345703124,-0.9158477783203125,-0.2175140380859375,0.0156707763671875
1732873779055199200,12.26119921875,-0.897918701171875,-0.2241058349609375,-0.002044677734375
1732873779065194200,12.2711943359375,-0.8966522216796875,-0.2204742431640625,-0.010650634765625
1732873779075190000,12.28118994140625,-0.904937744140625,-0.20526123046875,-0.0136260986328125
1732873779085185000,12.29118505859375,-0.9239654541015625,-0.1897125244140625,-0.0097808837890625
1732873779095180000,12.301179931640625,-0.9509735107421875,-0.1851348876953125,0.0085601806640625
1732873779105175000,12.311175048828124,-0.975067138671875,-0.185272216796875,0.0187835693359375
1732873779115171000,12.321171142578125,-0.996246337890625,-0.1838836669921875,0.017486572265625
1732873779125166000,12.331166015625,-1.008514404296875,-0.195648193359375,-0.0087432861328125
1732873779135161000,12.3411611328125,-1.002777099609375,-0.2129058837890625,-0.0537109375
1732873779145156000,12.351156005859375,-0.97332763671875,-0.2241668701171875,-0.100799560546875
1732873779155152100,12.361152099609376,-0.941619873046875,-0.2277069091796875,-0.136688232421875
1732873779165147100,12.371147216796874,-0.9231719970703125,-0.22796630859375,-0.16607666015625
1732873779175142100,12.38114208984375,-0.9268646240234375,-0.2270965576171875,-0.18896484375
1732873779185137200,12.39113720703125,-0.9466705322265625,-0.22491455078125,-0.1998748779296875
1732873779195133200,12.40113330078125,-0.978057861328125,-0.2174224853515625,-0.203521728515625
1732873779205128200,12.411128173828125,-1.0038299560546875,-0.2047119140625,-0.1939544677734375
1732873779215123200,12.421123291015626,-1.024749755859375,-0.1899871826171875,-0.1725006103515625
1732873779225118200,12.4311181640625,-1.0504913330078125,-0.176483154296875,-0.1504669189453125
1732873779235114000,12.441114013671875,-1.077911376953125,-0.1639862060546875,-0.1357879638671875
1732873779245109000,12.45110888671875,-1.095062255859375,-0.1550140380859375,-0.1171417236328125
1732873779255104000,12.46110400390625,-1.0973358154296875,-0.1602783203125,-0.0982666015625
1732873779265099000,12.47109912109375,-1.07952880859375,-0.176544189453125,-0.08203125
1732873779275095300,12.48109521484375,-1.03997802734375,-0.193634033203125,-0.0704193115234375
1732873779285090300,12.49109033203125,-0.98455810546875,-0.2003936767578125,-0.0711212158203125
1732873779295085300,12.501085205078125,-0.9311981201171875,-0.215484619140625,-0.0808258056640625
1732873779305080000,12.511080078125,-0.886138916015625,-0.2216796875,-0.1021575927734375
1732873779315076000,12.521076171875,-0.85614013671875,-0.2225494384765625,-0.126922607421875
1732873779325071000,12.531071044921875,-0.85394287109375,-0.2266845703125,-0.1183013916015625
1732873779335066000,12.541066162109376,-0.884979248046875,-0.2091522216796875,-0.1128387451171875
1732873779345061000,12.55106103515625,-0.9304046630859375,-0.18902587890625,-0.1007232666015625
1732873779355057200,12.56105712890625,-0.9819793701171875,-0.1614990234375,-0.0847015380859375
1732873779365052200,12.57105224609375,-1.0334014892578125,-0.1378631591796875,-0.0741729736328125
1732873779375047200,12.581047119140624,-1.062652587890625,-0.1265106201171875,-0.0689544677734375
1732873779385042200,12.591042236328125,-1.054595947265625,-0.1335296630859375,-0.0746917724609375
1732873779395038200,12.6010380859375,-1.011993408203125,-0.171875,-0.094696044921875
1732873779405033200,12.611033203125,-0.950958251953125,-0.2116851806640625,-0.1104278564453125
1732873779415028000,12.621028076171875,-0.896484375,-0.22711181640625,-0.102508544921875
1732873779425023000,12.63102294921875,-0.8826751708984375,-0.2034912109375,-0.082366943359375
1732873779435019000,12.64101904296875,-0.9180145263671875,-0.1517333984375,-0.038787841796875
1732873779445014300,12.65101416015625,-1.0078277587890625,-0.083953857421875,-0.0031280517578125
1732873779455009300,12.66100927734375,-1.1484375,-0.0252838134765625,0.02642822265625
1732873779465004300,12.67100439453125,-1.2688446044921875,0.0098419189453125,0.0491790771484375
1732873779475000000,12.681,-1.319732666015625,0.001556396484375,0.0523223876953125
1732873779484995300,12.690995361328126,-1.2938385009765625,-0.023590087890625,0.04656982421875
1732873779494990300,12.700990234375,-1.192291259765625,-0.0643310546875,0.0557708740234375
1732873779504985300,12.7109853515625,-1.05157470703125,-0.112518310546875,0.0861663818359375
1732873779514981400,12.7209814453125,-0.91778564453125,-0.1454315185546875,0.126678466796875
1732873779524976000,12.73097607421875,-0.8187408447265625,-0.1650848388671875,0.161834716796875
1732873779534971100,12.74097119140625,-0.76885986328125,-0.17523193359375,0.1743316650390625
1732873779544966100,12.750966064453126,-0.7676544189453125,-0.17340087890625,0.153411865234375
1732873779554962200,12.760962158203125,-0.7941131591796875,-0.1646575927734375,0.1431732177734375
1732873779564957200,12.770957275390625,-0.8272705078125,-0.158477783203125,0.136962890625
1732873779574952400,12.780952392578126,-0.8768463134765625,-0.13525390625,0.0760498046875
1732873779584948200,12.7909482421875,-0.924957275390625,-0.1275634765625,0.0368804931640625
1732873779594943200,12.800943115234375,-0.959259033203125,-0.1302337646484375,0.0594329833984375
1732873779604938200,12.810938232421876,-0.996337890625,-0.1334991455078125,0.06353759765625
1732873779614933200,12.820933349609374,-1.022186279296875,-0.1434173583984375,0.0470428466796875
1732873779624929300,12.83092919921875,-1.0321197509765625,-0.143829345703125,0.04791259765625
1732873779634924300,12.84092431640625,-1.0392913818359375,-0.1403045654296875,0.0599365234375
1732873779644919000,12.8509189453125,-1.0503692626953125,-0.1425628662109375,0.071136474609375
1732873779654914000,12.8609140625,-1.052154541015625,-0.1414031982421875,0.07794189453125
1732873779664910300,12.870910400390626,-1.0511474609375,-0.1358642578125,0.07830810546875
1732873779674905300,12.8809052734375,-1.056549072265625,-0.1331024169921875,0.077239990234375
1732873779684900400,12.890900390625,-1.07177734375,-0.1338653564453125,0.07379150390625
