time,seconds_elapsed,z,y,x
1732873766921038000,0.1270380859375,0.10642273141145706,-0.2483152009371668,-0.13637085656002162
1732873766931033000,0.137033203125,0.4375263248682022,-0.19669943385981023,-0.039252471523359415
1732873766941028400,0.1470283203125,0.8649497733950614,-0.17061156433597205,0.0059874769117683165
1732873766951023400,0.1570234375,1.259630643749237,-0.11688275062739849,0.12082651981711387
1732873766961018400,0.167018310546875,1.393871940934658,-0.16507570364922283,0.19231307200174777
1732873766971014100,0.17701416015625,1.2993693644195794,-0.2736296749357134,0.11383717238642274
1732873766981009200,0.187009033203125,1.0089110850840806,-0.3695052933696657,0.03194824945721775
1732873766991004200,0.197004150390625,0.6465519371420144,-0.34028161003813145,-0.04914174164664
1732873767000999200,0.206999267578125,0.2747726344257593,-0.15619177464358508,-0.162457410909608
1732873767010994200,0.216994140625,-0.09425941540896891,0.0048522623367607595,-0.19508436334598808
1732873767020989200,0.2269892578125,-0.355927069067955,0.14324417639560996,-0.17799155505206435
1732873767030984200,0.236984130859375,-0.5061421804547309,0.2867473690535873,-0.019966573631949723
1732873767040979200,0.246979248046875,-0.7513187180399894,0.24999993915371596,0.23137034974656998
1732873767050974200,0.25697412109375,-1.006463691931963,0.21385157112553715,0.28430381182637066
1732873767060969500,0.266969482421875,-1.0006570514798163,0.2301257565129548,0.25439163477402177
1732873767070965200,0.27696533203125,-0.863046570122242,0.21151918265521524,0.2511377840772271
1732873767080960300,0.286960205078125,-0.5936392621219158,0.19436046951822936,0.1714583538910374
1732873767090955300,0.296955322265625,-0.3899193550407886,0.05210596174709498,-0.15119278817935847
1732873767100950300,0.3069501953125,-0.19164310031831264,-0.11516776340305805,-0.3515468812223524
1732873767110945300,0.3169453125,0.020202830073237418,-0.19886742554865777,-0.2990478467707522
1732873767120940300,0.326940185546875,0.2397685410618782,-0.14231624789573252,-0.19415283638322725
1732873767130935300,0.336935302734375,0.315105813857913,-0.14109430488534272,-0.16752704232409596
1732873767140930000,0.346929931640625,0.2011263834565878,-0.128592185382545,0.06593834347296505
1732873767150925000,0.356925048828125,0.04868190558254718,-0.15456892268210648,0.34576880927756426
1732873767160920000,0.366920166015625,-0.04556114321351051,-0.20932335311137137,0.38395840080976484
1732873767170916400,0.376916259765625,-0.02080313405394554,-0.23819179326444864,0.3994198085095733
1732873767180911400,0.386911376953125,0.05062251825630665,-0.28454627881273625,0.40795097855478524
1732873767190906400,0.39690625,0.08125497240722179,-0.07209434535205364,0.34363661955446
1732873767200901400,0.4069013671875,0.019393851777911184,0.03191255708932876,-0.1331537942096591
1732873767210896100,0.416896240234375,0.04957096337676048,-0.007151917581260204,-0.4199474866230041
1732873767220891100,0.42689111328125,0.22122166150212286,-0.003582096270471811,-0.2453833852689713
1732873767230886100,0.43688623046875,0.2943617165148258,-0.07602803153917193,-0.12315383938667364
1732873767240881200,0.446881103515625,0.24891981576681135,0.02339168924242258,-0.1702546771897003
1732873767250876200,0.456876220703125,0.2439846974521875,0.07595569695532321,-0.24627328331340104
1732873767260872400,0.46687255859375,0.2058440596282482,-0.005863192944973707,-0.13420818950026295
1732873767270867500,0.476867431640625,0.11874094571471214,-0.05634513368681073,0.03857988775772973
1732873767280862200,0.4868623046875,0.027099603849649427,-0.02466185530871153,0.15009785081581212
1732873767290857200,0.496857177734375,-0.0633382074445486,-0.032166824111342425,0.19567885864041745
1732873767300852200,0.506852294921875,-0.12431670002043246,0.01594181162789464,0.13158740340946243
1732873767310847200,0.51684716796875,-0.1520779826492071,0.025671324612200258,0.04763632378606125
1732873767320842200,0.52684228515625,-0.22807108900547027,-0.03947641647234559,0.02418311361474916
1732873767330837200,0.536837158203125,-0.23766133964955805,-0.0970041840724647,-0.0014325581203447654
1732873767340832300,0.546832275390625,-0.15099194097816943,-0.10278948947563767,-0.045037187838065436
1732873767350828300,0.556828369140625,-0.03229541892707348,-0.09662176062613725,-0.04596009766953066
1732873767360823000,0.566822998046875,0.044832828938961025,-0.09140256467312574,-0.05483978889146819
1732873767370818000,0.576818115234375,0.14695114115476607,-0.10612798624858259,-0.02143979255624581
1732873767380813300,0.586813232421875,0.1590530823588371,-0.06044453182965517,0.0685626503948355
1732873767390808300,0.596808349609375,0.1523918709039688,-0.045227527344971895,0.021622642876440657
1732873767400803300,0.60680322265625,0.08820084602236747,-0.009798486567288637,-0.006185561333713121
1732873767410798300,0.61679833984375,0.050666357398033136,-0.047412177907675504,0.007903873026301153
1732873767420793300,0.62679345703125,0.03676993399262428,-0.07216200376078485,-0.007534468891751021
1732873767430789000,0.6367890625,0.018566753304004667,-0.08454173899292945,-0.02493765374252107
1732873767440784100,0.6467841796875,0.005194646033644676,-0.086646310056746,-0.01443572704703547
1732873767450779100,0.656779052734375,0.005121580797433853,-0.05323080105856061,-0.06403208059337921
1732873767460774100,0.666774169921875,-0.02493921094536781,-0.04553118646666407,-0.021271600949065758
1732873767470769200,0.67676904296875,-0.04460135827064514,-0.02188888346403837,0.02954448538427241
1732873767480764200,0.68676416015625,-0.07284019528329372,-0.04996244691237807,-0.022067144374083726
1732873767490759200,0.69675927734375,-0.027290742507576942,-0.07477715469524264,0.005932285258965567
1732873767500754400,0.70675439453125,0.012912673065066337,-0.037744770374149084,0.04010018352703191
1732873767510749400,0.71674951171875,0.03548515487909317,-0.05749225789532065,-0.025447621691809034
1732873767520745200,0.7267451171875,-0.0048895256072282785,-0.045748774740099904,-0.05575975784717593
1732873767530740200,0.736740234375,-0.0741132839590311,-0.051735009542852636,-0.053087081738933915
1732873767540735200,0.7467353515625,-0.20209142909646033,-0.05784150972440839,-0.053594346274482084
1732873767550730200,0.756730224609375,-0.297977568924427,-0.058998863065987825,-0.10501569589143618
1732873767560725200,0.766725341796875,-0.2999398089081049,-0.05789309378117322,-0.12431864538234658
1732873767570720300,0.77672021484375,-0.1921282534867525,-0.038084523722529406,-0.06995378052624873
1732873767580715300,0.78671533203125,-0.1164765079140663,-0.004053513174504041,-0.11503491253731772
1732873767590711300,0.796711181640625,-0.004319616764783859,-0.005604980400204658,-0.14313958350997416
1732873767600706300,0.806706298828125,0.1354734693288803,-0.03308481573909521,-0.002468942830222659
1732873767610701300,0.816701416015625,0.2527607091039419,-0.04402881907969713,0.09296437062975019
1732873767620696300,0.8266962890625,0.2754226227670908,-0.07988485309779643,0.05902055887456517
1732873767630691300,0.83669140625,0.2529933488160372,-0.08203867013081907,0.1076059772461187
1732873767640686300,0.846686279296875,0.19786884296536444,-0.03914060864672064,0.16079345975276083
1732873767650681300,0.856681396484375,0.21598083823919295,-0.057296150801330804,0.12907669009701347
1732873767660676400,0.86667626953125,0.26726795788407326,-0.048782151086628436,0.07893562608156353
1732873767670672100,0.876672119140625,0.2988461684525013,-0.04640577734410763,-0.0009308693756349384
1732873767680667100,0.886667236328125,0.25938041950464247,-0.05323284688517451,-0.024971487513463942
1732873767690662100,0.896662109375,0.09236673353016375,-0.05797682654187083,-0.14648287518904543
1732873767700657400,0.906657470703125,-0.1179798982143402,-0.07263225162103772,-0.22025299913305788
1732873767710652400,0.91665234375,-0.26423428927659987,-0.10715002277269958,-0.229136014823243
1732873767720647400,0.9266474609375,-0.3231792301982641,-0.12961758290752767,-0.2160517663172446
1732873767730642400,0.936642333984375,-0.2690788066983223,-0.10806991409659385,-0.21773650453379376
1732873767740637200,0.94663720703125,-0.18047580961585044,-0.08795432391539215,-0.20857520162519066
1732873767750633200,0.95663330078125,-0.12918518283963204,-0.05689210004508495,-0.2702268807549029
1732873767760628200,0.966628173828125,-0.13811083209514616,-0.002301116549223661,-0.30504431070657445
1732873767770623200,0.976623291015625,-0.2264227372765541,0.04823854572921991,-0.33055480046756563
1732873767780618200,0.9866181640625,-0.3076525752425194,0.07693024107590317,-0.4297857206787914
1732873767790613200,0.99661328125,-0.3834229787588119,0.034962738440185784,-0.5685865808647126
1732873767800608300,1.006608154296875,-0.39657998197376726,-0.011391454847157001,-0.6682184830922633
1732873767810603300,1.016603271484375,-0.30693361331820485,-0.019498042804747817,-0.7204079584043472
1732873767820599300,1.026599365234375,-0.220971486133337,0.010225918199121952,-0.7647983042728156
1732873767830594300,1.03659423828125,-0.11249591384530067,0.05240531001985073,-0.8068520238872617
1732873767840589300,1.04658935546875,-0.04138064265847206,0.07289557873234152,-0.8945740734167397
1732873767850584300,1.056584228515625,0.022151041531562804,0.05814312301948666,-1.0322789550594984
1732873767860579300,1.066579345703125,0.12084639356136322,-0.04806991116404533,-1.2010044133879243
1732873767870574300,1.07657421875,0.2532306647032499,-0.06333440805226564,-1.3976554049961267
1732873767880569300,1.0865693359375,0.3831757259994745,-0.08497823071405292,-1.6237820819355546
1732873767890564000,1.096564208984375,0.5394096592843532,-0.057006958596408364,-1.7714064461767673
1732873767900560100,1.10656005859375,0.718092740264535,-0.024688012663275003,-1.9461312910504638
1732873767910555400,1.116555419921875,0.8429501230329275,0.09499489007666706,-2.003457983120531
1732873767920550400,1.12655029296875,0.8217413307875394,0.036142449744045735,-2.000772543428838
1732873767930545400,1.13654541015625,0.8029203104615211,0.13078472699075935,-2.0359395722694695
1732873767940540400,1.14654052734375,0.5743856955975294,0.05074921337589621,-2.065347745322436
1732873767950535400,1.156535400390625,0.5589350284874439,-0.09511296349838376,-2.0701487158633767
1732873767960530200,1.1665302734375,0.7510597748428582,-0.202116271276772,-2.1362292077533898
1732873767970525200,1.176525146484375,0.9718664258033036,-0.2659457693696022,-2.221115668530762
1732873767980521200,1.186521240234375,1.0986410403698683,-0.36777708133757114,-2.291121224910021
1732873767990516200,1.19651611328125,1.133690141919255,-0.40578459430113434,-2.170448580480367
1732873768000511200,1.20651123046875,1.0639794768333435,-0.39742739258334037,-1.9512657313294708
1732873768010506200,1.21650634765625,0.8901502656251191,-0.34047844778448344,-1.6311556794434785
1732873768020501200,1.226501220703125,0.6800701758623123,-0.23408391955420374,-1.254816813726723
1732873768030496300,1.236496337890625,0.3613128537595272,-0.1378970432139933,-0.9456010808207094
1732873768040491300,1.2464912109375,-0.05282265864908695,-0.15892302623838186,-0.8520252637617289
1732873768050486300,1.256486328125,-0.4889391167193651,-0.12287307708337902,-0.924573782622069
1732873768060482300,1.266482421875,-0.9564087444305419,0.03842544611468911,-1.1064202230039983
1732873768070477300,1.276477294921875,-1.3607266271799803,-0.07459989843219518,-1.0867108755361288
1732873768080472300,1.286472412109375,-1.5407430025905369,-0.18610943158864973,-1.2798334738224744
1732873768090467300,1.29646728515625,-1.6594102985471486,-0.1619207467496395,-1.34630574150905
1732873768100462000,1.306462158203125,-1.8060469669252632,-0.10604220766127109,-1.3323657712228596
1732873768110457000,1.31645703125,-1.780795621290803,-0.07278378892093897,-1.311755967783928
1732873768120452000,1.3264521484375,-1.5346978772073983,-0.0033225685514509675,-1.484883314333111
1732873768130448400,1.336448486328125,-1.1535942813068627,0.10648688268885016,-1.6695707502946258
1732873768140443400,1.346443359375,-0.7090899341195821,0.04929696874096989,-1.7591785405054687
1732873768150438400,1.3564384765625,-0.19173954643011093,-0.0021340894192457198,-1.7714830185443162
1732873768160433400,1.366433349609375,0.31727497459053994,0.21108722097873686,-1.9937424986615775
1732873768170428200,1.37642822265625,0.6656558660626412,0.2314918572343886,-2.367330604365468
1732873768180423200,1.386423095703125,0.9069453330814838,0.07659311807602644,-2.3926699205443263
1732873768190418200,1.396418212890625,0.904007526063919,-0.029084201795607802,-2.4576515112817288
1732873768200413200,1.4064130859375,0.5991057108342647,-0.04478343683928251,-2.6202859592586756
1732873768210409200,1.4164091796875,0.2053302648872137,-0.09402151499986648,-2.7455262038648125
1732873768220404200,1.426404296875,0.016916063487529755,-0.12056918405517936,-2.8134090690016746
1732873768230399200,1.436399169921875,0.08320318386554718,-0.25231150403171776,-2.662723125232756
1732873768240394200,1.446394287109375,0.2709440160483122,-0.14618015678226948,-2.606592364948988
1732873768250389200,1.45638916015625,0.46764966045320033,-0.05465732673034072,-2.677827463123202
1732873768260384300,1.46638427734375,0.3973784388750791,0.060532502374053,-2.7565914954975246
1732873768270379300,1.476379150390625,0.23427637338638305,0.09077434977218508,-2.638081143668294
1732873768280374300,1.486374267578125,-0.05060322903394699,0.6464093138009309,-2.296492542684823
1732873768290370300,1.496370361328125,-0.6456734007418156,0.7174900981962681,-2.2126325023457407
1732873768300365300,1.506365234375,-1.2853706496834754,0.5918344046570361,-1.8966240405596793
1732873768310360300,1.5163603515625,-1.591706297108531,0.6600093846082687,-1.516841025738418
1732873768320355000,1.52635498046875,-1.6780454409122465,0.56636970853284,-1.3526277841374277
1732873768330350000,1.53635009765625,-1.68465989061594,0.5106511823117733,-1.1579328219678253
1732873768340345000,1.546344970703125,-1.5253355901002883,0.5576800599902868,-1.1629317992988972
1732873768350340400,1.55634033203125,-1.2691332161098718,0.5773024598270654,-1.1999294776327907
1732873768360336400,1.56633642578125,-1.093283312729001,0.2928773231759667,-1.4147612919673322
1732873768370331400,1.576331298828125,-0.9374100294500589,-0.1913958475589752,-1.7025231718257068
1732873768380326100,1.586326171875,-0.6782815388798713,-0.44464156370088453,-1.7520478118427096
1732873768390321200,1.596321044921875,-0.41930794661045073,-0.6822709007769823,-1.23594844712764
1732873768400316200,1.606316162109375,-0.3163379860013723,-0.8928501722335815,-0.2632118874263018
1732873768410311200,1.616311279296875,-0.5058955122172832,-0.7706770601131021,0.478531558343023
1732873768420306200,1.62630615234375,-1.0379220755130052,-0.3892848565295338,1.0937453772827983
1732873768430301200,1.63630126953125,-1.7561656224250792,-0.06623290597274899,1.5125769385531544
1732873768440297500,1.64629736328125,-2.3677713338702917,-0.21610855627208947,1.8829422828182576
1732873768450292200,1.656292236328125,-2.4999796639233827,-0.503289567502588,1.8266291517049074
1732873768460287200,1.666287353515625,-1.7835177397310733,-0.774905491463095,1.5253477189294993
1732873768470282200,1.6762822265625,-0.42673137460947036,-0.9289293474830687,1.1853120464764535
1732873768480277200,1.68627734375,0.8871744646847247,-0.9379504199370742,0.809004306550324
1732873768490272300,1.696272216796875,1.6159610329210756,-0.943287250920385,0.5576061545038595
1732873768500267300,1.706267333984375,1.8706898272275923,-0.8127465618185699,0.453182962879166
1732873768510262300,1.71626220703125,1.6757903554618359,-0.5331519140638411,0.5909316471310332
1732873768520258300,1.72625830078125,0.9634633391171693,-0.2612839150384068,0.8244959632579236
1732873768530253000,1.736253173828125,0.2838882532954216,-0.03960515741854906,0.915085677178204
1732873768540248000,1.746248046875,-0.47431963973641394,-0.031167876201868054,1.2390322384871542
1732873768550243000,1.7562431640625,-1.1583014360845088,-0.20852745349332688,1.537740313643217
1732873768560238300,1.76623828125,-1.4098685514897107,-0.4122071746945381,1.4274521389752626
1732873768570233300,1.7762333984375,-1.1222983948111533,-0.6284447641737759,1.2555386982604861
1732873768580228400,1.786228271484375,-0.4312041361093521,-0.8230243563354015,1.14055600910075
1732873768590224400,1.796224365234375,0.39692835702002044,-0.9260384483471512,1.0734610064059495
1732873768600219100,1.80621923828125,1.1303279720097779,-0.8896287259690463,1.1265880548290907
1732873768610214100,1.816214111328125,1.6168869155943393,-0.8278136364385486,1.2302338688731194
1732873768620209200,1.826209228515625,1.914367056390643,-0.8286084400780499,1.3935986769512294
1732873768630204200,1.8362041015625,2.091706906068325,-0.7221461073085665,1.4149609061926602
1732873768640199200,1.84619921875,2.1658026543706654,-0.7110397530131042,1.2987909800097346
1732873768650194200,1.856194091796875,2.1360095736533404,-0.6296997326709329,1.1520757665026933
1732873768660190500,1.8661904296875,2.1426368828386066,-0.5623499514974654,1.0922381875902414
1732873768670185200,1.876185302734375,2.2950386906147,-0.42678500449284906,0.9036975102666764
1732873768680180200,1.88618017578125,2.4077479549497363,-0.2641343360334635,0.34081484013199803
1732873768690175200,1.89617529296875,2.369952185040712,-0.25135274200215935,0.08068928308216855
1732873768700170200,1.906170166015625,2.2144997575223444,-0.2782714363269508,-0.05532683262289501
1732873768710165200,1.916165283203125,1.9385440507918594,-0.3064161653153598,-0.12675801049163565
1732873768720160300,1.92616015625,1.5835364346563816,-0.22193170946761964,0.02190456509036012
1732873768730155300,1.9361552734375,1.1622621564090252,-0.12888210823982954,0.28136359365601094
1732873768740151000,1.946151123046875,0.6354191332310438,-0.16103256573826075,0.4438733923399821
1732873768750146000,1.95614599609375,0.19469547362625597,-0.19019801607653497,0.42010578245725483
1732873768760141000,1.96614111328125,-0.03377016765475273,-0.20382365971654653,0.2950376795476302
1732873768770136300,1.97613623046875,-0.06263035143613815,-0.15472309033051132,0.13529222187730483
1732873768780131300,1.98613134765625,0.00030161329507827757,-0.11360782060995697,-0.06027307055315468
1732873768790126300,1.996126220703125,0.03810205937922,-0.20130320132821797,-0.2743279411318712
1732873768800121300,2.006121337890625,0.025658172869682312,-0.28696780687123535,-0.42696361246276643
1732873768810117000,2.0161171875,-0.04271393708884716,-0.424203025175631,-0.6849588977519422
1732873768820112100,2.026112060546875,-0.13803016807436944,-0.5989432137489319,-0.8965476385120302
1732873768830107100,2.036107177734375,-0.2172597721338272,-0.7447891701407731,-0.9852943549141288
1732873768840102100,2.04610205078125,-0.36139293325841426,-0.8839325601540505,-1.0345049605458974
1732873768850097200,2.05609716796875,-0.40525896299183367,-0.9532117019549011,-1.0633174327280372
1732873768860092200,2.066092041015625,-0.40652737549245355,-0.946412251073122,-1.0698133706185966
1732873768870087200,2.076087158203125,-0.3669423840790987,-0.9385042544275521,-1.0762733604129404
1732873768880082200,2.086082275390625,-0.36409400891065596,-0.8445333005711436,-1.0994306563775986
1732873768890078200,2.096078125,-0.4412257639080286,-0.6661164693117141,-1.0823082566630096
1732873768900073200,2.1060732421875,-0.5915455047130584,-0.6323387028723955,-1.1081705738026648
1732873768910068200,2.116068115234375,-0.6610603549659252,-0.578366289666295,-1.0689036353625356
1732873768920063200,2.126063232421875,-0.5651344676494598,-0.5897301258541643,-0.9179590406574308
1732873768930058200,2.136058349609375,-0.39558687928318975,-0.8379407704383134,-0.665235814019665
1732873768940053200,2.14605322265625,-0.006883329772949218,-1.058160415291041,-0.3259563667614013
1732873768950048300,2.15604833984375,0.5064490544468164,-1.0672221120163798,-0.06359080309928394
1732873768960044000,2.1660439453125,0.9649638068079948,-1.0226166620925068,-0.12273826258941553
1732873768970039300,2.176039306640625,1.3029852168291807,-0.8679987857021391,-0.3340546983473003
1732873768980034300,2.186034423828125,1.379647600749135,-0.7723015925750136,-0.31766547174546866
1732873768990029300,2.196029296875,1.0853355685949324,-0.7489797536984085,-0.2613649261190556
1732873769000024300,2.2060244140625,0.4914391168415546,-0.7091327503480017,-0.006321439840178937
1732873769010019300,2.216019287109375,-0.20074936683773995,-0.4995028885707259,0.20398626639973372
1732873769020014300,2.226014404296875,-1.0062298831760883,-0.7820875119216739,-0.2743884939463809
1732873769030009300,2.23600927734375,-1.7175860086619852,-1.3014657521769404,-0.7044318791806697
1732873769040005000,2.246005126953125,-1.862050009176135,-1.3764204553961754,-1.3099468725353478
1732873769050000100,2.256000244140625,-1.5546271510362624,-1.0069481144480406,-1.9085583701118827
1732873769059995100,2.2659951171875,-1.158928043550253,0.7328286832340061,-2.189239351798594
1732873769069990100,2.275990234375,-1.4025690421313046,2.7650238082781433,-2.014668966834247
1732873769079985200,2.285985107421875,-3.2771897790670392,2.998774988746643,-2.0157896414272485
1732873769089980400,2.29598046875,-5.969794540083408,2.105539908848703,-1.0697426434699446
1732873769099976200,2.30597607421875,-7.279380762612819,2.3672505248665807,0.40503341060765086
1732873769109971200,2.31597119140625,-6.991288627886772,1.8658792120754717,0.6003924627091736
1732873769119966200,2.32596630859375,-4.872410806298256,1.2829736715443432,0.6282674348454922
1732873769129961200,2.335961181640625,-1.9763877514958381,1.0509217692743986,0.643681496272236
1732873769139956200,2.345956298828125,0.475457119333744,0.9088830231457948,0.141887702019047
1732873769149951200,2.355951171875,2.397263385814428,0.3712206459201872,-0.27814874152904373
1732873769159946200,2.3659462890625,3.6984178800851106,-0.0071682841941714285,-0.5454692150516435
1732873769169941200,2.375941162109375,4.442815858951211,0.03808540050536394,-0.47545178557150064
1732873769179937300,2.385937255859375,4.519070831114053,0.10873758422508835,-0.02802287444071844
1732873769189932300,2.395932373046875,3.8486926127046344,0.24761954682320356,0.1620806500190869
1732873769199927300,2.40592724609375,2.548025025168061,0.8144494202136993,-0.11153622023398056
1732873769209922300,2.41592236328125,1.0280874947190284,1.343163351830095,-0.582241304468736
1732873769219917300,2.425917236328125,-0.4532119697779417,1.351599610133469,-0.5155096551936119
1732873769229912300,2.435912353515625,-1.3684469922989606,1.1386619389824568,-0.06726036759065464
1732873769239907300,2.4459072265625,-1.605647144177556,1.3952742089480161,-0.41516712047867477
1732873769249903000,2.455903076171875,-1.4864648844361303,1.2083677817627787,-0.4598099067382514
1732873769259898000,2.465898193359375,-1.0697872863292694,0.967231167218089,-0.3349347325848415
1732873769269893000,2.47589306640625,-0.2562602416574955,0.8858315256431698,-0.3883109334634617
1732873769279888100,2.48588818359375,0.5740004956722259,0.7141006018884479,-0.42371367075610905
1732873769289883100,2.495883056640625,0.9979191509485245,0.5343067831873893,-0.3235816004540771
1732873769299878400,2.50587841796875,1.1659674406677485,0.4194873948305845,-0.30062205555122345
1732873769309873400,2.515873291015625,1.2717822693139313,0.26700214655473825,-0.26480058138985185
1732873769319869200,2.525869140625,1.1424468643486498,0.1395835349962115,-0.17964388883635402
1732873769329864200,2.5358642578125,0.9015706543058156,0.055861734084039924,-0.15420827267616985
1732873769339859200,2.545859130859375,0.8074386646687984,0.04342047792300582,-0.19599641842329873
1732873769349854200,2.555854248046875,0.8127350175112485,0.03695011286512017,-0.206217240322195
1732873769359849200,2.56584912109375,0.762524587187171,0.07032426693961023,-0.1574307053213939
1732873769369844200,2.57584423828125,0.627188480502367,0.20102233856022356,-0.24443580222055314
1732873769379839200,2.585839111328125,0.5125216523587703,0.35737492978870866,-0.297752308801189
1732873769389835300,2.595835205078125,0.45774785964190956,0.4505534180931747,-0.4696545340022072
1732873769399830300,2.605830322265625,0.32053836030066013,0.6038771630197763,-0.4083752318488434
1732873769409825300,2.6158251953125,0.25066870526075363,0.7957135939531028,-0.16176878932463004
1732873769419820300,2.6258203125,0.1598340036034584,0.9002889439322054,0.044959140466060483
1732873769429815300,2.635815185546875,-0.07877075437605381,1.0558990462303162,0.2703777970002964
1732873769439810800,2.645810791015625,-0.1952788264721632,1.1719964916989207,0.40819004800766706
1732873769449805800,2.655805908203125,-0.10846505089402197,1.094066279800236,0.3518284015774727
1732873769459801600,2.665801513671875,0.20179098484516142,1.1776993795156478,0.1702255972256884
1732873769469796900,2.675796875,0.10256664050519466,1.204024637991935,0.21390843414561822
1732873769479791900,2.6857919921875,-0.3671756083130836,1.740717877924442,0.27704613231569525
1732873769489787000,2.695786865234375,-0.5661655642628669,1.005775417406857,-0.3607701251849532
1732873769499782000,2.705781982421875,-0.7862269498139619,0.6299895093977451,-0.5643805805422365
1732873769509777000,2.71577685546875,-0.8869096762686968,1.0786518530473113,-0.7269331954546272
1732873769519772000,2.72577197265625,-0.9960399130731821,0.7874050536826253,-0.9994801166549324
1732873769529767700,2.735767578125,-1.1905150219470262,0.3648836979836225,-1.090602256951481
1732873769539762700,2.7457626953125,-0.9705524205952882,0.18408815489411354,-1.1086684403222054
1732873769549757700,2.7557578125,-0.4179331511259079,0.13034969657436013,-1.094917051410675
1732873769559752700,2.765752685546875,-0.1248427697211504,0.011919862635433673,-1.2483131309211253
1732873769569747700,2.775747802734375,-0.18249708631038664,0.29365649085491896,-1.446684954972565
1732873769579743000,2.785742919921875,-0.5482867932230234,0.9470428040616213,-1.595377240706235
1732873769589738000,2.795738037109375,-1.3528659768074751,1.3477493644461036,-1.6602413425438105
1732873769599733800,2.805733642578125,-2.454616673630476,1.257802113147825,-1.4750091321811079
1732873769609728800,2.815728759765625,-3.198684397628903,0.38445319858938454,-0.6159636874590069
1732873769619723800,2.825723876953125,-3.1942893775403496,-0.5847821480579674,0.23942889731135217
1732873769629718800,2.83571875,-2.4317227047771213,-1.091992980657518,0.653480421230942
1732873769639713800,2.8457138671875,-0.9175298554599285,-0.8805695134617387,2.303933360210061
1732873769649708800,2.855708740234375,0.8654086230784654,-1.339464789573103,3.057815498997271
1732873769659704600,2.86570458984375,2.489426705726981,-1.5756762226752936,2.7217145356446504
1732873769669699800,2.875699951171875,3.7374475757032632,-1.2436303799323738,3.2467160226091742
1732873769679694800,2.88569482421875,4.338057845881581,-1.503899711100757,2.8852982471704482
1732873769689689900,2.89568994140625,4.254845894187689,-1.2197741419181227,1.7130675083242355
1732873769699684900,2.905684814453125,3.4611908401995897,-1.0027113536611199,1.0900697575099765
1732873769709679900,2.915679931640625,1.9611907668858766,-0.6881321940258145,0.8435378597930073
1732873769719675000,2.9256748046875,0.3694441377669573,-0.1512158128619194,0.13575798535868525
1732873769729670700,2.935670654296875,-1.257614627751708,-0.0069528878778219215,-0.45491698359753935
1732873769739665700,2.945665771484375,-2.7149457721620798,-0.07080006775781512,-0.8124073929920792
1732873769749660700,2.95566064453125,-3.328188729420304,-0.3037250265352428,-1.1508785195421427
1732873769759655700,2.96565576171875,-2.871993944439292,-0.5788524657480418,-1.5400925758577881
1732873769769650700,2.975650634765625,-1.5371481929689645,0.2537422674871981,-0.4205684315329417
1732873769779645700,2.985645751953125,-0.04511690657734871,0.23139117333889006,0.14181553183197973
1732873769789642000,2.99564208984375,0.8722066126555204,0.24606398794427511,0.43597518643606453
1732873769799636700,3.00563671875,1.42689742770195,0.6828595143198967,1.1762103830669075
1732873769809631700,3.0156318359375,1.9314269122630356,0.6673549250654875,1.9243688104450702
1732873769819626800,3.025626708984375,1.9076321951776742,0.5141144745081663,2.1683450323298574
1732873769829621800,3.035621826171875,1.7426795333862304,0.028763591539114713,2.118622093261778
1732873769839616800,3.04561669921875,1.5769348444342612,-0.3004996347479522,1.9374166541971265
1732873769849611800,3.05561181640625,1.453188053256273,-0.6211363408565521,1.611785939193517
1732873769859607800,3.06560791015625,1.4197574928194283,-1.1482894528970122,0.9106449182517826
1732873769869602600,3.0756025390625,1.5138783765405415,-1.4990727293357253,0.070237538504228
1732873769879597800,3.085597900390625,1.5886743820667266,-1.7143625165708363,-0.6074928692989051
1732873769889592800,3.0955927734375,1.5363573348522186,-2.081190626620501,-1.4663688757382332
1732873769899587800,3.105587890625,1.3229279346615075,-1.8277843130894005,-1.7756287400469184
1732873769909582800,3.115582763671875,0.995219244340062,-1.368728877980262,-1.4123517466075717
1732873769919579000,3.125578857421875,0.45166123320460316,-0.45760567469224334,-0.23523013044726102
1732873769929574000,3.135573974609375,-0.41199148611724373,-0.2705081088490784,0.41948443568851795
1732873769939568600,3.145568603515625,-1.3153817570656536,-0.043592181228101254,0.4375506190592423
1732873769949563600,3.155563720703125,-2.0692980903834104,0.26605492883250115,0.913660905072093
1732873769959558700,3.16555859375,-2.451837272045016,0.6736912884801626,0.9921894481901079
1732873769969553700,3.1755537109375,-2.722845000979304,0.6829467542119324,0.7816225247584283
1732873769979548700,3.185548583984375,-2.848421345672011,0.37190745914056894,1.00992420764938
1732873769989545000,3.195544921875,-2.3863527002215386,0.15528116260468958,0.3083476448345929
1732873769999540000,3.2055400390625,-1.366599903127551,0.11406681642383336,-0.5188256844064221
1732873770009534700,3.21553466796875,0.13945757052898405,-0.3282084565371275,-0.18682256656037644
1732873770019529700,3.22552978515625,1.3659949229717254,-0.4055272585391998,-0.022194789341744035
1732873770029524700,3.235524658203125,1.9058873973369597,-0.2489234690286219,-0.29639641894651575
1732873770039519700,3.245519775390625,1.9706687893271444,-0.40245530374795196,-1.0743894463624803
1732873770049515800,3.255515869140625,1.2583166385412214,-1.31280547683686,-2.9839836623281237
1732873770059510800,3.2655107421875,0.5731120223999023,-0.7640897906772792,-2.76813434151411
1732873770069505800,3.275505859375,-0.2524474053710699,-0.5350416733331979,-1.642527260546386
1732873770079500800,3.285500732421875,-0.831479465469718,-0.28517405532225965,-1.9127708732403814
1732873770089495800,3.295495849609375,-1.4066940131068228,0.4175985123440623,-2.486036478766799
1732873770099490800,3.30549072265625,-2.3921137479662895,0.8967543400652707,-2.8774966335088012
1732873770109485800,3.31548583984375,-3.342068786212802,1.1850196394011379,-2.6327175708085298
1732873770119481900,3.32548193359375,-4.069789771044254,1.1563264827497304,-1.6364732212044297
1732873770129476900,3.335476806640625,-4.409726074776053,0.7950747115276754,-0.11844645628016441
1732873770139472000,3.345471923828125,-4.045509900790453,0.4236076896309852,1.2672085316576063
1732873770149467000,3.355466796875,-2.9638328547030683,0.2895924562864005,2.0661368498735126
1732873770159461600,3.365461669921875,-1.3573703024894,0.3727990011528134,2.300654338539392
1732873770169456600,3.37545654296875,0.3253448837995529,0.32488135794103146,1.9174232290908693
1732873770179453000,3.385452880859375,1.635287664681673,0.37215924194455147,1.482624721751362
1732873770189448000,3.395447998046875,2.663150118473172,0.4783063712850213,1.167162641801685
1732873770199443000,3.40544287109375,3.258180542692542,0.6732938135951757,1.0553956267528235
1732873770209438000,3.41543798828125,3.064478756278753,0.8439442486368119,0.5167035411532968
1732873770219432700,3.4254326171875,2.258644604197144,1.1210473718367517,0.5949853795012459
1732873770229427700,3.435427734375,0.8025497235834598,1.5658246907465159,1.1968358955316245
1732873770239423700,3.445423828125,-0.7793845365732908,1.962959822385013,1.548110462618619
1732873770249418800,3.455418701171875,-2.1938696419477464,2.0351332243226468,1.5761673671931027
1732873770259413800,3.465413818359375,-3.056505293181538,1.8152809514775872,1.5534478781238197
1732873770269408800,3.47540869140625,-3.0095220082104204,1.47663731790483,1.3303129303462802
1732873770279403800,3.48540380859375,-1.9413216988116502,1.073992775195092,0.9132849113665521
1732873770289398800,3.495398681640625,-0.3903706059396267,0.7398862005300819,0.6411337845508008
1732873770299394800,3.505394775390625,0.9598930794149637,0.6315474063642322,0.6283711144156754
1732873770309389800,3.515389892578125,1.8700959529876708,0.3647375675112009,0.36229543505609035
1732873770319384800,3.525384765625,2.100212868607044,-0.046595893088728184,0.13862645346708594
1732873770329379800,3.5353798828125,2.0107593921750784,-0.2136056335404515,0.2962268527995795
1732873770339374800,3.545374755859375,1.7799720299482344,-0.2736385158292949,0.48366925002504135
1732873770349369900,3.555369873046875,1.5048282241225241,-0.3306989581786096,0.5523366166030987
1732873770359364900,3.56536474609375,1.2993418918907642,-0.19049203058704733,0.47275494770295917
1732873770369360600,3.575360595703125,1.171262624466419,-0.08740268138200044,0.4144670459179207
1732873770379356000,3.58535595703125,1.0985159526854753,-0.020413842475414275,0.5363196573797613
1732873770389351000,3.595350830078125,0.9379150563627481,0.08192600353658198,0.6268032805770635
1732873770399346000,3.605345947265625,0.6896808847725391,0.25703707124888897,0.88799001885131
1732873770409341000,3.6153408203125,0.31936990104317664,0.3262980928711593,1.5337874843642114
1732873770419336000,3.6253359375,0.008988777619600296,0.36193507731109853,2.3162188412874936
1732873770429331700,3.635331787109375,-0.2716150471776724,1.1947682954773307,2.0794231785565613
1732873770439326200,3.645326171875,-0.25189970836043357,1.5369665527917444,1.7443417675100266
1732873770449321200,3.6553212890625,0.5255599976301193,1.5783208919651806,1.016518418282643
1732873770459316200,3.665316162109375,0.9609493104696273,1.5634678984872996,0.004566175404377281
1732873770469311200,3.675311279296875,-0.4671405418872833,1.0524201180733739,-0.043864860689640045
1732873770479306200,3.68530615234375,-1.1846850006192922,0.8303596676595508,0.6915592458650469
1732873770489302300,3.69530224609375,-1.2213795312881468,1.0831216919377447,1.4282145016498864
1732873770499297300,3.70529736328125,-1.1305828235536812,1.233881431595236,1.4649693842038511
1732873770509292300,3.715292236328125,-0.9787316353976726,1.2579437135756015,1.240283261461556
1732873770519287300,3.725287353515625,-1.0162298836648465,1.1593168967373668,0.8333934093322605
1732873770529282300,3.7352822265625,-1.0620055464118718,0.7510645971484482,0.3676021631620824
1732873770539277300,3.74527734375,-0.6939671837896109,0.05200754287391901,-0.12027677697986364
1732873770549273300,3.7552734375,-0.028259879800677297,-0.8527287358559668,-0.6452153547760099
1732873770559268400,3.765268310546875,1.0355582689911127,-1.248615913259983,-0.81626640650779
1732873770569263000,3.77526318359375,2.2691087150663134,-1.1402106297291814,-0.15061280546747147
1732873770579258000,3.785258056640625,2.8176825085371733,-0.7436082897931336,1.0174551876761018
1732873770589253000,3.795253173828125,2.133577962592244,-0.14824775683656333,2.1652523270115256
1732873770599248400,3.805248291015625,0.34590368770360946,0.6353098276376724,3.315954686269164
1732873770609244400,3.815244384765625,-2.0795149484932423,1.0248419369265436,3.568063653466105
1732873770619239400,3.825239501953125,-4.163711332800984,0.6962276760675012,2.8783722472995517
1732873770629234400,3.835234375,-4.771740939325094,0.07279401805400848,2.2073045853212476
1732873770639229200,3.845229248046875,-3.998091147011518,-0.5654834272176027,1.9545836237058043
1732873770649224200,3.85522412109375,-2.6547774269253015,-1.049929031910002,1.7590470230802893
1732873770659219200,3.86521923828125,-0.5993062018424272,-1.6333811004079877,1.2278420053005217
1732873770669215200,3.87521533203125,1.1226228044599293,-1.7552771491527557,0.5408519670471549
1732873770679210200,3.885210205078125,2.0531711314469576,-1.8292032399766147,0.1543381826661527
1732873770689205500,3.89520556640625,2.2022914333343504,-1.8015290511094033,0.027892909651808438
1732873770699200500,3.905200439453125,1.6857319037616252,-1.6078040299504994,-0.13237250763885677
1732873770709195300,3.9151953125,0.8616460556745529,-1.3115773963466286,-0.4035716674920171
1732873770719190300,3.925190185546875,0.10438742619156836,-0.8890146857239305,-0.6405553270757198
1732873770729186300,3.935186279296875,-0.5425093788653612,-0.5799715329058468,-0.7756372398037463
1732873770739181300,3.945181396484375,-0.9499082764953374,-0.43953992971293626,-0.6161781339272856
1732873770749176300,3.95517626953125,-1.0788169804811476,-0.3951633931741118,-0.29930154753718524
1732873770759171300,3.96517138671875,-0.8854390191942453,-0.44933279025703665,-0.051624534905701874
1732873770769166300,3.975166259765625,-0.37195875093638897,-0.6540196426741779,0.06889156725537031
1732873770779161000,3.9851611328125,0.29480361506342884,-0.8282029280170797,0.11918160215429961
1732873770789157400,3.995157470703125,0.9361550609529018,-0.9804059983506798,0.23355211423244326
1732873770799152400,4.00515234375,1.5035112963050603,-1.0767673544749616,0.3164485702363774
1732873770809147400,4.0151474609375,1.9522393986672162,-1.0951514446884394,0.3580847585584968
1732873770819142400,4.025142333984375,2.194828257846832,-1.0668737369701267,0.4225655236342922
1732873770829137400,4.035137451171875,2.2437936565458774,-0.939334567771852,0.41352322572916744
1732873770839132400,4.04513232421875,2.1613322309583425,-0.7241003101162612,0.30978713958580045
1732873770849128200,4.055128173828125,1.9723077887058258,-0.527790094769746,0.2183999551448971
1732873770859123200,4.065123291015625,1.7202286321252585,-0.4329886814385652,0.1574725717017427
1732873770869118200,4.0751181640625,1.432318868228793,-0.3647432665996253,0.04441317875478416
1732873770879113200,4.08511328125,1.1686883900642395,-0.3355792775660753,-0.133114594710432
1732873770889108200,4.095108154296875,1.0324626410633324,-0.42710488409698005,-0.2615598824355751
1732873770899103500,4.105103515625,1.0672434470653533,-0.6309872882634401,-0.34412553558256476
1732873770909099300,4.115099365234375,1.1750362977862356,-0.7209187574706971,-0.5606476045589893
1732873770919094300,4.12509423828125,1.1970581599801777,-0.7543861427865922,-0.8962982668608427
1732873770929089300,4.13508935546875,0.980388754954934,-0.762333302398771,-1.2202898363552988
1732873770939084300,4.145084228515625,0.5580857181817293,-0.7231633215270936,-1.442177414420247
1732873770949079300,4.155079345703125,0.004285714495182037,-0.6207569861501455,-1.6195684097632765
1732873770959075300,4.165075439453125,-0.5980325286448002,-0.6275314487211406,-1.6507853858038781
1732873770969070000,4.175070068359375,-1.1342366698861122,-0.4620942182831466,-1.537728915466368
1732873770979065000,4.185065185546875,-1.5763175893187522,-0.11137173212096095,-1.4090363384492695
1732873770989060400,4.195060302734375,-1.930975076842308,0.4910678723763674,-1.2206377730101345
1732873770999055400,4.205055419921875,-2.352265137180686,1.1415284343294798,-1.1055264159694314
1732873771009050400,4.21505029296875,-2.9448142659783363,1.66467172620669,-0.6848105022571981
1732873771019046400,4.22504638671875,-3.622449323648214,2.0131195454351603,0.10957147776596247
1732873771029041400,4.23504150390625,-4.290609866008162,2.1156080061376095,1.086922326329723
1732873771039036200,4.2450361328125,-4.497955562371016,1.6301909260645508,1.7358233838811516
1732873771049031200,4.25503125,-3.7261481830537315,0.8658369314931332,2.039512316189706
1732873771059026200,4.265026123046875,-1.992505358082056,0.44255058277100323,2.073437089884281
1732873771069021200,4.275021240234375,0.010039747977256774,-0.17544168790616094,1.8074784610331058
1732873771079017500,4.285017578125,1.8883944107443094,-0.6818719645872712,1.679631833320856
1732873771089012500,4.295012451171875,3.2917198242008685,-0.8945129908792674,1.7097316418997943
1732873771099007500,4.305007568359375,3.993663393697142,-0.9365667104937135,1.5593249534636735
1732873771109002200,4.315002197265625,4.011801107934117,-0.59954351772964,1.5957190398812293
1732873771118997200,4.324997314453125,3.1955800018727776,-0.29267712442874905,1.4606015443831681
1732873771128992300,4.3349921875,1.624918246358633,-0.10112316369861364,1.30562038763836
1732873771138988300,4.34498828125,-0.06336041927635669,0.10780344518013298,1.3515534329041838
1732873771148983300,4.3549833984375,-1.3542355115950107,0.1736712441675365,1.3678550177551805
1732873771158978300,4.364978271484375,-2.0008336259663104,0.144793013272807,1.321072223792225
1732873771168973300,4.374973388671875,-1.904762192699313,0.08919782117046415,1.3108188330642878
1732873771178968000,4.384968017578125,-1.4983318478405474,0.09795300922989844,1.173667785912007
1732873771188963000,4.394963134765625,-1.174429564064741,0.20345599544793366,0.988078432674706
1732873771198959400,4.40495947265625,-1.164146070459485,0.18268435251079498,0.7820480566941201
1732873771208954400,4.414954345703125,-1.2653981212347745,0.16874876613877712,0.6550907790370285
1732873771218949400,4.424949462890625,-1.2484551697403192,0.3788120508972555,0.7347730222348123
1732873771228944400,4.4349443359375,-1.154988950535655,0.42270825657323,0.6843834359515458
1732873771238939400,4.444939453125,-0.896055105754733,0.4020215154405683,0.5548572576545179
1732873771248935200,4.45493505859375,-0.5642950942158699,0.3902956410072744,0.4442414950000122
1732873771258930200,4.46493017578125,-0.2655669991850853,0.47360966483615335,0.20330076835360378
1732873771268925200,4.47492529296875,-0.008366261807084083,0.6252410727616399,-0.10545953980195336
1732873771278920200,4.484920166015625,0.23011866918504237,0.8524269033651799,-0.5887186837892979
1732873771288915500,4.49491552734375,0.45732817292511463,0.9850787394020706,-1.2086461603127419
1732873771298910500,4.504910400390625,0.6295183847546577,0.9636385495536028,-1.759589605524391
1732873771308906200,4.51490625,0.5425929654955863,0.9378707057643682,-2.112593480622023
1732873771318901200,4.5249013671875,0.12068448099792004,0.7259998601272701,-2.361822654598951
1732873771328896300,4.534896240234375,-0.5237853891730309,0.819505826820433,-2.3322446779370307
1732873771338891300,4.544891357421875,-0.736701579144597,0.7291976332552731,-2.2557275477066634
1732873771348886300,4.55488623046875,-0.5173445424705744,0.7021452295482158,-1.94814774543941
1732873771358881300,4.56488134765625,-0.3343026817589998,0.34656536648273467,-1.8816645179674027
1732873771368877000,4.574876953125,-0.3272217835873365,0.03624810207560658,-2.0514652043119073
1732873771378872300,4.584872314453125,-0.2525309920012951,0.3526401563517749,-1.4575427413344382
1732873771388867300,4.594867431640625,-0.0893763195425272,0.14915712676644324,-0.6667432229079305
1732873771398862300,4.6048623046875,0.1780330926388502,0.1338511288240552,-0.01725769826574251
1732873771408857300,4.614857421875,0.598879500862956,0.22591771036386488,0.4154829814948141
1732873771418852400,4.624852294921875,1.0438304227739572,0.6014822307072579,1.308048345437646
1732873771428848400,4.634848388671875,1.2092045248478651,-0.36260099387392397,0.9986543333552778
1732873771438844000,4.644843994140625,0.7613806778490543,-0.4701161966972053,0.6566244914103299
1732873771448839000,4.6548388671875,0.48152913272380826,-0.7815509208269417,0.7641631481744349
1732873771458834000,4.664833984375,-0.6620189708650112,-0.4594985027015209,1.304491529738903
1732873771468829000,4.674828857421875,-1.1959265256017446,0.9212876005582511,3.2176392734676598
1732873771478825000,4.684824951171875,-1.6213433104813098,1.0452563639238477,4.51846117478311
1732873771488819700,4.69481982421875,-1.7361644524037836,1.5865272870354354,5.712050781869888
1732873771498814700,4.704814697265625,-1.5050760614037513,1.1717680897705256,5.650858354282379
1732873771508809700,4.714809814453125,-1.249242520725727,-0.6477073907874524,3.2276457036972044
1732873771518805000,4.724804931640625,-0.32185645716190336,-0.7043138057589531,2.1482377715855834
1732873771528800000,4.734800048828125,0.7281167061507702,-0.9770588798798621,1.7667057211399078
1732873771538796000,4.744796142578125,1.1896101820617913,-1.2191902045503258,1.2876359642669557
1732873771548791000,4.754791015625,1.289526600319147,-1.2660538086645305,1.1872059704642741
1732873771558785800,4.764785888671875,1.2219921102285385,-1.105599773466587,1.2869475436113773
1732873771568780800,4.77478076171875,1.0300351216554642,-0.9058920246362686,1.3431725580498575
1732873771578775800,4.78477587890625,0.630386984282732,-0.7960688371315598,1.3071411674648523
1732873771588770800,4.794770751953125,0.1166296526491642,-0.6643133654125034,1.22173755094558
1732873771598766800,4.804766845703125,-0.35192484768927096,-0.5784181659840048,1.1138995459087193
1732873771608762000,4.81476220703125,-0.5988765782535076,-0.542629936505109,0.9468944816321134
1732873771618757000,4.824757080078125,-0.6318775151014328,-0.5692607537992298,0.7917001935932785
1732873771628752000,4.834751953125,-0.43584114826023573,-0.5106532281383872,0.7235009559836239
1732873771638747000,4.844746826171875,-0.08401157763898372,-0.3907932152658701,0.7524674496836959
1732873771648743000,4.854742919921875,0.28075287787914277,-0.2682363645248115,0.797198717944324
1732873771658738000,4.864738037109375,0.5703069018512964,-0.1712194671012461,0.7920835668876767
1732873771668733000,4.87473291015625,0.741073218357563,-0.05947685584127903,0.8331080895848572
1732873771678728000,4.88472802734375,0.7411877846479415,-0.10342924868389963,0.7775919540680944
1732873771688723000,4.894722900390625,0.667670128494501,0.06959405296891927,0.801247701074183
1732873771698718000,4.904718017578125,0.6790887636095285,0.17303499209061263,0.8742010013431311
1732873771708714000,4.9147138671875,0.6635533408254385,0.19131869066953658,0.9530554884798824
1732873771718709000,4.924708984375,0.653160541626811,0.1589382238075137,0.9234816034711897
1732873771728704000,4.9347041015625,0.63481064594388,0.1526584128856659,0.8922175734184682
1732873771738699000,4.944698974609375,0.6482166554838419,0.1377308928668499,0.7584895595174282
1732873771748694000,4.954694091796875,0.6682622491687535,0.02918430116921663,0.5499187052737922
1732873771758689800,4.964689697265625,0.5638876824587583,-0.015953940457105634,0.4459515503209084
1732873771768684800,4.974684814453125,0.45513037061989303,0.020216858598589897,0.5886404309213161
1732873771778679800,4.9846796875,0.3241770090639591,0.01663067067489028,0.7773164981275796
1732873771788674800,4.9946748046875,0.10277706838548183,-0.022823241704702377,0.9271529854603111
1732873771798669800,5.004669921875,-0.16606734503507614,-0.023686726666241883,1.0055073410551993
1732873771808664800,5.014664794921875,-0.4488602043092251,-0.05778028105646372,1.0495465353984386
1732873771818660900,5.024660888671875,-0.6351783102124929,-0.07165434649959206,1.0456194981478153
1732873771828655900,5.03465576171875,-0.7074217086464166,-0.11235343663468957,0.9167680042419583
1732873771838651000,5.04465087890625,-0.7133417463451623,-0.23874606614634394,0.7148153260290623
1732873771848646000,5.05464599609375,-0.5937935759007931,-0.40346564983427524,0.6105486766729503
1732873771858641000,5.064640869140625,-0.3897089271605015,-0.5012047240525483,0.5669109758026898
1732873771868637000,5.074636962890625,-0.2213730526715517,-0.4948534553296864,0.6023894086800515
1732873771878632000,5.0846318359375,-0.08899521127045154,-0.396748324277997,0.7323504712630063
1732873771888626700,5.094626708984375,-0.0779822343468666,-0.2740603945031762,1.0143250729568303
1732873771898621700,5.10462158203125,-0.17236323030889034,-0.13100874500498175,1.2368949341975153
1732873771908617000,5.114616943359375,-0.32647125748097894,0.03398892497196793,1.3569234355047344
1732873771918612000,5.124612060546875,-0.5301157612383365,0.20115327146351336,1.2879269100375472
1732873771928608000,5.13460791015625,-0.7293827805638313,0.2683195127636194,1.2744371677368878
1732873771938603000,5.14460302734375,-0.8665349967598914,0.24566636692881583,1.1290426083743572
1732873771948598000,5.154597900390625,-0.9187789787381887,0.19828209994137286,0.8728079395495355
1732873771958592800,5.1645927734375,-0.819666278079152,0.09476502684354782,0.7112123331010342
1732873771968587800,5.174587890625,-0.5531546915203333,0.008533581198006868,0.5862957674913108
1732873771978583800,5.184583740234375,-0.19270693015754223,-0.07495455708876252,0.5384382569689303
1732873771988578800,5.194578857421875,0.10460194572508334,-0.23664061829969285,0.5289867572084069
1732873771998574000,5.204573974609375,0.33281448902785776,-0.3505015368878841,0.4890551077818498
1732873772008569000,5.214569091796875,0.5288023405522108,-0.40115035862922666,0.4197038505928591
1732873772018564000,5.224564208984375,0.6947030968487262,-0.42988209372535346,0.2013355874941684
1732873772028560000,5.234559814453125,0.7589215942591429,-0.3447456037096679,-0.023264911924442275
1732873772038555000,5.244554931640625,0.6046212593853473,-0.16709639582186936,-0.11886540321144275
1732873772048550000,5.2545498046875,0.3052186260938644,-0.01088628180399537,-0.12020020461231469
1732873772058545000,5.264544921875,-0.04960603469014167,0.11476298199445009,-0.13311810184177011
1732873772068540000,5.274539794921875,-0.34081191752254963,0.22585662782639263,-0.18921444839928298
1732873772078535000,5.284534912109375,-0.5463035104513168,0.258654881709069,-0.2324081318290904
1732873772088531000,5.294531005859375,-0.5941133093744516,0.25303426534831525,-0.22026405025003476
1732873772098526000,5.30452587890625,-0.43508828406631944,0.24722572520002722,-0.17002828455530106
1732873772108521000,5.31452099609375,-0.11963701777160167,0.16543533074185252,-0.1863740921405144
1732873772118516000,5.324515869140625,0.17049217574000358,0.08047901959866285,-0.16749878434399143
1732873772128511000,5.334510986328125,0.4152303219079971,0.0277805718511343,-0.07117662315235938
1732873772138507000,5.344507080078125,0.7197007599830627,0.03142141257151961,-0.049858013856946486
1732873772148501800,5.354501708984375,0.9648305358171463,0.008010580237209797,-0.1606609559468925
1732873772158496800,5.364496826171875,1.1065391001433134,0.030434447360783812,-0.3070866484554484
1732873772168491800,5.37449169921875,1.1395885523080824,0.05232391534671187,-0.44214744533021
1732873772178486800,5.38448681640625,1.0069079285681246,0.05417684973701834,-0.6088777112534269
1732873772188481800,5.394481689453125,0.8379717500984668,0.07078881571143865,-0.7117150219261645
1732873772198478000,5.40447802734375,0.7490642171114683,0.11149871950149536,-0.7317401573449372
1732873772208473000,5.41447314453125,0.738158207693696,0.17741379169672727,-0.7651895686127245
1732873772218467800,5.4244677734375,0.7958943573474884,0.1387529293909669,-0.9378709980253129
1732873772228462800,5.434462890625,0.8250771972119808,0.09761427879482507,-1.1529290223311632
1732873772238457900,5.444457763671875,0.795833567070961,0.0430531059153378,-1.3171619184806942
1732873772248454000,5.454453857421875,0.708862555104494,-0.05141337637305259,-1.4423568626403809
1732873772258449000,5.464448974609375,0.6236363409787417,-0.02475903207287192,-1.425432177454978
1732873772268444000,5.47444384765625,0.5232780241727829,-0.00669876698628068,-1.2247196354962884
1732873772278439000,5.48443896484375,0.4076712848305702,0.016113807193934918,-0.8697948753386735
1732873772288434000,5.494433837890625,0.3521498886168003,0.16908990772664545,-0.6324274040691554
1732873772298430000,5.504429931640625,0.2897732196807861,0.37105288813784715,-0.5821179703500121
1732873772308425000,5.514425048828125,0.0453612367272377,0.4911122229747474,-0.6550298426300287
1732873772318420000,5.524419921875,-0.3119026339024305,0.5606678436294198,-0.7365613669563085
1732873772328415000,5.5344150390625,-0.6789519854873418,0.653240621125698,-0.7114925382819026
1732873772338410000,5.544409912109375,-0.8853560170859098,0.8093378493536263,-0.6670565266408026
1732873772348405800,5.55440576171875,-0.9777695123672485,1.0007021327305585,-0.6808054313343018
1732873772358400800,5.56440087890625,-1.0295774410158396,1.2618456894502044,-0.6702941933877766
1732873772368395800,5.574395751953125,-1.1216098280251026,1.4441756025001407,-0.7563838924750685
1732873772378391000,5.58439111328125,-1.223703005799651,1.4740835417687892,-0.8594092365331947
1732873772388386000,5.594385986328125,-1.2912848421633243,1.498944426780939,-1.0286558691915124
1732873772398381000,5.604381103515625,-1.337287299403548,1.4517211955741047,-1.1963402209691703
1732873772408376800,5.614376953125,-1.2350251948028803,1.3393743348106741,-1.3317252813622356
1732873772418371800,5.624371826171875,-0.961371335273981,1.2315959510065615,-1.4345049800962208
1732873772428366800,5.634366943359375,-0.5294990906447172,1.073002375918254,-1.4911599103845654
1732873772438361000,5.644361083984375,-0.06764028855264187,0.8847313823815435,-1.3988830470949412
1732873772448356000,5.654356201171875,0.3235936562180519,0.779541626831144,-1.1457866032306103
1732873772458352400,5.664352294921875,0.47020051397979257,0.7085575077433138,-0.9783463624071329
1732873772468347400,5.674347412109375,0.4326514123082161,0.5712154680635779,-0.8601718914687633
1732873772478342400,5.68434228515625,0.1150175412774086,0.4411969031397253,-0.8269372919954359
1732873772488337200,5.694337158203125,-0.3428559905707836,0.4074661176472902,-0.7104118303731084
1732873772498332200,5.704332275390625,-0.8380524141192436,0.4081476701706648,-0.6409488564379513
1732873772508328200,5.714328125,-1.3851654873877763,0.5055608003702015,-0.7433882173016667
1732873772518323200,5.7243232421875,-1.756143995115161,0.6715006465680897,-0.8395662527482957
1732873772528318200,5.734318115234375,-1.9835335315972566,0.8193897992253303,-0.9868856426935643
1732873772538313200,5.744313232421875,-1.9712837063550948,0.8743152753725647,-1.1928280481297522
1732873772548308200,5.75430810546875,-1.7264660652101038,0.8921306257873773,-1.4595602186366914
1732873772558303200,5.76430322265625,-1.2934323755860329,0.8512086866818368,-1.765691721791774
1732873772568299300,5.77429931640625,-0.7290016722917556,0.8633147195391356,-1.9346315535232423
1732873772578294300,5.784294189453125,-0.04652385076582431,0.8703319048248231,-1.9772639498084783
1732873772588289300,5.794289306640625,0.5796206736415624,0.916510449284315,-2.109177973090112
1732873772598284300,5.8042841796875,1.0595260045558215,1.0181531068123877,-2.400158814994991
1732873772608279300,5.814279296875,1.258573243650794,1.0623124204039573,-2.626957399846613
1732873772618275000,5.824275146484375,1.1377888094097375,1.065785649472475,-2.56771201467365
1732873772628270000,5.83427001953125,0.7583481782853603,1.1251092144481838,-2.386606674982607
1732873772638265000,5.84426513671875,0.2676455590248108,1.1839999409645796,-2.1916547423772514
1732873772648260400,5.85426025390625,-0.161768771058321,1.2198420925877989,-2.037273451221734
1732873772658255400,5.86425537109375,-0.46495150741040703,1.2453972434744238,-1.8502265926524997
1732873772668251400,5.87425146484375,-0.6462269429713488,1.3118193884089588,-1.8367009022556244
1732873772678246100,5.88424609375,-0.708137163439393,1.4369741466887294,-1.8276432971835135
1732873772688241200,5.8942412109375,-0.5350105475425719,1.472302503570914,-1.9225500705853102
1732873772698236200,5.904236083984375,-0.08999532822370529,1.4528084062889217,-2.035230401086807
1732873772708231200,5.914231201171875,0.47021103537380693,1.4830660357780754,-1.964888160099089
1732873772718227200,5.924227294921875,0.9249971226006746,1.4146139924511312,-1.8174593184299765
1732873772728222200,5.93422216796875,1.1291963376313447,1.2940135364748537,-1.6963202255323528
1732873772738217500,5.944217529296875,1.0707055702179669,1.0849097443982958,-1.6457918153002857
1732873772748212200,5.954212158203125,0.8261223223507403,0.9630863224983215,-1.497723068292439
1732873772758207200,5.964207275390625,0.638050066256523,0.951015799345821,-1.229937808535993
1732873772768202200,5.9742021484375,0.5595452693402767,0.9151800774633884,-0.8669510302148759
1732873772778198300,5.9841982421875,0.5675076265215874,0.9330769686818122,-0.4724705412710085
1732873772788193300,5.994193359375,0.4576841467559337,0.8327678978450596,-0.12653974636476487
1732873772798188300,6.004188232421875,0.1415431446313858,0.6302087051063776,0.2636093257786706
1732873772808183300,6.014183349609375,-0.22589608305394648,0.48556204150170085,0.6577890782102942
1732873772818178300,6.02417822265625,-0.5626438198775052,0.3693454996980727,1.0096630724951625
1732873772828174300,6.03417431640625,-0.818058842882514,0.13438742765784262,1.1449659344974905
1732873772838169300,6.04416943359375,-0.9062415687263011,-0.36331294153556226,1.044815269092843
1732873772848164400,6.054164306640625,-0.726184861305356,-1.0442384190529583,0.8957512274373323
1732873772858159400,6.064159423828125,-0.2089075388520956,-1.7252357927627862,0.6995995636533945
1732873772868154400,6.074154296875,0.453729856172204,-2.212361722580343,0.40130083648320286
1732873772878150100,6.084150146484375,1.0952034671366213,-2.3099019132256506,0.03664480977561325
1732873772888145200,6.094145263671875,1.6908792035222053,-2.078790872002393,-0.3613433219630271
1732873772898140200,6.10414013671875,1.686448527598381,-1.4633749546192585,-0.3473503793805837
1732873772908135200,6.11413525390625,0.6100502986967563,-0.7874408556483685,-0.0005583097361959516
1732873772918130200,6.124130126953125,-1.4225807335466145,-0.19695282409898934,0.5167210768099874
1732873772928126200,6.134126220703125,-3.58539881914854,0.3866892870783806,1.2398805258795618
1732873772938121200,6.144121337890625,-5.207348863351345,0.7761333527576177,1.6627470417544246
1732873772948116200,6.1541162109375,-5.748627239117026,0.8855206330630928,1.7214064437329768
1732873772958111200,6.164111328125,-4.8516217007696625,0.806959210588783,1.6064613831698893
1732873772968106200,6.174106201171875,-2.7850872298806904,0.6164411687776445,1.3989428144581615
1732873772978102300,6.184102294921875,-0.6007511399537324,0.33182226312011476,1.2860793824747203
1732873772988097300,6.19409716796875,1.0950000535190105,-0.0585929856788367,1.3220647419609128
1732873772998092300,6.20409228515625,2.2613579548090694,-0.4212672639846802,1.3535849387317895
1732873773008087000,6.214087158203125,3.02494637183547,-0.7707195840805768,1.4723277841426432
1732873773018082000,6.22408203125,3.377586674317717,-0.9859024038098751,1.6134404284022748
1732873773028078300,6.234078369140625,3.4084728109687563,-0.9371835272178053,1.604285792696476
1732873773038073300,6.2440732421875,3.066822689056396,-0.7848942399054766,1.4637408653222024
1732873773048068400,6.254068359375,2.445490533366799,-0.529235617402941,1.2644821754336357
1732873773058063400,6.2640634765625,1.638642820328474,-0.17619097190350294,1.0033537432178854
1732873773068058400,6.274058349609375,0.807700530475378,0.10344956081956624,0.7841966130301355
1732873773078054100,6.28405419921875,0.06336041927635669,0.25078962822668255,0.629382629545778
1732873773088049200,6.294049072265625,-0.48298751483857627,0.36134777894243597,0.44884069589115677
1732873773098044200,6.304044189453125,-0.8083814984768629,0.47135757506042714,0.28630762592945247
1732873773108039200,6.3140390625,-0.9128905052214861,0.5220614149246364,0.17320839416244999
1732873773118034400,6.324034423828125,-0.8987965134173631,0.5106859613642096,0.13304685410331002
1732873773128030200,6.3340302734375,-0.8379413549602032,0.47012759487405414,0.24836784443985668
1732873773138025200,6.344025146484375,-0.7226794835329056,0.4408931709527969,0.37702195261009036
1732873773148020200,6.354020263671875,-0.5965618715703487,0.42913675525076683,0.4690547049455344
1732873773158015200,6.36401513671875,-0.47375674515664573,0.4509763196803629,0.44036381331644947
1732873773168010200,6.37401025390625,-0.320173034119606,0.5252253588482737,0.37248197109289466
1732873773178005200,6.384005126953125,-0.17479542589187622,0.6086413086816668,0.2927534410679713
1732873773188001300,6.394001220703125,0.03161328188180923,0.6516803860716521,0.25670005784686656
1732873773197996000,6.40399609375,0.33580957919061183,0.7223394379235804,0.19351605458334087
1732873773207991300,6.4139912109375,0.6865022547364235,0.7463242707535624,0.1751195432797074
1732873773217986300,6.423986328125,0.9805962602257728,0.7433921628244221,0.2857677468990907
1732873773227981300,6.433981201171875,1.1751713223427533,0.6556276623927056,0.39596787795741106
1732873773237977300,6.443977294921875,1.2243126621305942,0.4923943717397749,0.5546000680230557
1732873773247972400,6.453972412109375,1.1271458348423242,0.4944273388721048,0.6089055856410414
1732873773257967400,6.46396728515625,0.8699176249355077,0.576536736151576,0.5106861805599182
1732873773267962000,6.473962158203125,0.4812397943884134,0.6822953045658767,0.3697657344041392
1732873773277957000,6.48395703125,0.033654432320594785,0.6636556321561337,0.13602681062901392
1732873773287953200,6.493953125,-0.304676774302125,0.5036687760785222,-0.11969621887924149
1732873773297948400,6.503948486328125,-0.28391104964911934,0.36951296521946786,-0.15653945557009427
1732873773307943400,6.513943359375,0.10878653793334961,0.17979323417916893,-0.22405982580380512
1732873773317938400,6.5239384765625,0.7072165414631366,0.0387372885428369,-0.5419534985482692
1732873773327933200,6.53393310546875,1.2261305252075194,0.0037942777164280414,-0.8654628374837339
1732873773337929200,6.54392919921875,1.4676146380156279,0.04642389752268791,-1.1322872893840075
1732873773347924200,6.55392431640625,1.438715875789523,0.2263824052661657,-1.2034764295246452
1732873773357919200,6.563919189453125,0.9384738592892885,0.46569735734164713,-0.9330408744551241
1732873773367914200,6.573914306640625,-0.06661153002679347,0.628501316666603,-0.5444926251044496
1732873773377909200,6.5839091796875,-1.4221429266512393,0.654209977614507,-0.1785711815709248
1732873773387905300,6.5939052734375,-2.6843063037484884,0.4710135839283466,0.10289401842919178
1732873773397900300,6.603900390625,-3.4623996314674614,0.1844626872949302,0.287632408259809
1732873773407895300,6.613895263671875,-3.579640694013238,-0.21219342865496874,0.2997199190797284
1732873773417890300,6.623890380859375,-3.0391841560244557,-0.5882032085478306,0.30924758934900165
1732873773427886300,6.63388623046875,-2.1235323693960906,-0.9639527300693094,0.32467553317062553
1732873773437882000,6.643882080078125,-1.1624082868814467,-1.4545508660420774,0.2769010064902715
1732873773447877000,6.653877197265625,-0.280038007608056,-1.847959816764295,0.24904055606964975
1732873773457872100,6.6638720703125,0.3276613440483808,-2.1286381681025026,0.3179101306889206
1732873773467867100,6.6738671875,0.6219973416000604,-2.210089101473242,0.4934387296935543
1732873773477862100,6.683862060546875,0.6517156035155057,-2.1069228876397013,0.43638519200906156
1732873773487858200,6.693858154296875,0.3026362083852291,-1.6591943177089095,0.17338300181068478
1732873773497853000,6.70385302734375,-0.4011614645451307,-1.0923547266419977,-0.03633545156549662
1732873773507848000,6.713847900390625,-1.2417922047197818,-0.4422603676527738,-0.04344353000503033
1732873773517843000,6.723843017578125,-2.079465264132619,0.18239936155695466,0.07287102881297469
1732873773527838200,6.733838134765625,-2.71641876732409,0.5727026378814131,0.3152968429179862
1732873773537834200,6.743834228515625,-2.8993916544526814,0.69193114791736,0.4520698505381122
1732873773547829200,6.753829345703125,-2.4431495231986045,0.6487070693492889,0.3334197979772463
1732873773557824300,6.76382421875,-1.48877842207551,0.5427675548775122,0.17962386896163224
1732873773567819000,6.773819091796875,-0.4390414056062698,0.3521148903686553,0.11925769959781318
1732873773577815000,6.78381494140625,0.49929216842949387,0.16863419984839856,0.05331139201410114
1732873773587810000,6.79381005859375,1.3024597316503523,-0.027930355585366485,-0.1068841018455103
1732873773597805000,6.80380517578125,1.8794027105152606,-0.18362419064417482,-0.2255539185527712
1732873773607800000,6.813800048828125,2.264865086147189,-0.33113895703107116,-0.29785639023017135
1732873773617795300,6.82379541015625,2.4317156905144452,-0.36043424429409204,-0.3683647084997967
1732873773627791000,6.833791015625,2.464385203450918,-0.2220920145958662,-0.4676202882282436
1732873773637786000,6.8437861328125,2.327941427785158,0.035525852215662596,-0.6605524054437876
1732873773647781000,6.853781005859375,1.6864824298679828,0.30092334005273874,-0.7623967960890382
1732873773657776000,6.863776123046875,0.7459954771906137,0.5042991829365492,-0.7872522742737084
1732873773667771100,6.873771240234375,-0.1624479854941368,0.6941694283634424,-0.6808085731394589
1732873773677767000,6.883766845703125,-0.7454004339069128,0.974081836830452,-0.5417288594795391
1732873773687762000,6.893761962890625,-0.9879442849010228,1.2539707182914017,-0.42608693922609087
1732873773697757000,6.9037568359375,-1.042590651845932,1.476598885590583,-0.4390294229075312
1732873773707752200,6.913752197265625,-0.939761561012268,1.5345412253409623,-0.7771275514267385
1732873773717747200,6.923747314453125,-0.6438111140012741,1.4031681770682334,-1.3055392852261662
1732873773727743200,6.9337431640625,-0.1218622926056385,1.3027752273403108,-1.8219276960156856
1732873773737738200,6.94373828125,0.4833060792684555,1.1502971394576131,-2.2121749678365883
1732873773747733000,6.95373291015625,1.0687316397964954,0.9197656516879796,-2.4274023573599752
1732873773757728000,6.96372802734375,1.3970856422841549,0.7238453124418854,-2.6627204948842524
1732873773767723000,6.973722900390625,1.51947634267807,0.5909565989091992,-2.8741601825624703
1732873773777719000,6.983718994140625,1.5048364074289797,0.5531297032095491,-3.016501491834223
1732873773787714000,6.993714111328125,1.3346809162974356,0.6077770930677652,-3.1107492168053983
1732873773797709300,7.003709228515625,0.9673200145453215,0.6780939073532819,-3.1875197372749446
1732873773807704300,7.013704345703125,0.6007540625631809,0.7056253267489373,-3.13846929064095
1732873773817699000,7.023698974609375,0.3313824103981256,0.7948856186963618,-2.9370643825039267
1732873773827695000,7.033695068359375,0.14053367532789707,0.8400159692771733,-2.6233488539606333
1732873773837690000,7.043690185546875,0.013027239355444907,0.8398372517094016,-2.1229330883286894
1732873773847685000,7.05368505859375,-0.07024667165875434,0.8265272498898207,-1.6195719168946145
1732873773857680100,7.06368017578125,-0.21995266447961329,0.8494486912719905,-1.3105930614843964
1732873773867675100,7.073675048828125,-0.4726403083473444,0.9020030543737113,-1.0689233629763126
1732873773877671200,7.083671142578125,-0.7816951516032219,0.8005329769335686,-0.7845736296489835
1732873773887666200,7.093666259765625,-0.9132312814831733,0.5587272309556603,-0.5100250132374465
1732873773897661200,7.1036611328125,-0.7339461429566144,0.39446006721034643,-0.17775239426763728
1732873773907656200,7.11365625,-0.4597814112961292,0.2588679399378598,0.21872120472220702
1732873773917651200,7.123651123046875,-0.27325287751257415,0.17037337166592478,0.574643725479208
1732873773927647200,7.133647216796875,-0.35832185525000093,0.1413771404147148,0.8182485202357173
1732873773937642000,7.14364208984375,-0.6168886202841997,-0.0583634877718985,1.0605348893374205
1732873773947637000,7.153636962890625,-0.8097901962310076,-0.41644028221964835,1.1927642621785401
1732873773957632000,7.163632080078125,-0.7892898445159197,-0.8295980356372893,1.3450513575337826
1732873773967627000,7.173626953125,-0.5190338107317686,-1.4630753871507942,1.3266349724859
1732873773977623300,7.183623291015625,0.08529226509928703,-2.028066793067753,1.0567487949274479
1732873773987618300,7.193618408203125,0.9895084654778241,-2.322961593545973,0.6662631843060255
1732873773997613300,7.20361328125,1.7462848644018172,-2.2548832058370114,0.06607540472294203
1732873774007608000,7.213608154296875,1.99969673089087,-1.7626051539532839,-0.4801677447101101
1732873774017604000,7.22360400390625,1.6246803459495305,-1.1294791000954807,-0.7168254968076944
1732873774027599000,7.23359912109375,0.5255734416335821,-0.6989367888957262,-0.6013996669903398
1732873774037594000,7.243593994140625,-1.364201609814167,-0.39334019633494316,0.08147730992101132
1732873774047589000,7.253589111328125,-3.370304700616002,-0.3575377922002226,1.0544991163045168
1732873774057584000,7.263584228515625,-4.844003042459487,-0.6073572602204979,1.8238449278138578
1732873774067580200,7.273580078125,-5.543050305992365,-0.9397430024422705,2.349607316148281
1732873774077575200,7.2835751953125,-5.306283869355917,-1.2494928422249854,2.701162453742325
1732873774087570200,7.293570068359375,-4.173270019263029,-1.4742773107752203,2.7237226605966685
1732873774097565200,7.303565185546875,-2.661859494140744,-1.5768278769284485,2.485833065149188
1732873774107560200,7.313560302734375,-1.3192384324938058,-1.5526093814730644,2.187213252798468
1732873774117556000,7.323555908203125,-0.3994271880984306,-1.4782012062206864,1.8984641154684125
1732873774127551000,7.333551025390625,0.09399754960238933,-1.2828045985877514,1.3927461517751216
1732873774137546000,7.3435458984375,0.32047114028334617,-0.9786237911090254,0.617928776986897
1732873774147541000,7.353541015625,0.5743418564558029,-0.6807949830055237,-0.017014719822723418
1732873774157536000,7.363535888671875,0.8936632421821356,-0.2646745073247701,-0.42106805161815136
1732873774167532300,7.3735322265625,1.103951421737671,0.16708141744844615,-0.4320305039308965
1732873774177527300,7.38352734375,1.0656295821279287,0.49168929221034047,0.012036712214443832
1732873774187522000,7.39352197265625,0.980631331539154,0.736925451028347,0.5500025841649622
1732873774197517000,7.40351708984375,1.0419856716901064,0.8165275416620075,0.9875342427954077
1732873774207512000,7.413511962890625,1.280859894260764,0.843662509085983,1.2757808374308048
1732873774217508000,7.423508056640625,1.5415566570609807,0.8270224860608577,1.371540282139182
1732873774227503000,7.433503173828125,1.7223995464235544,0.7663312859937548,1.3625576419994234
1732873774237498000,7.443498046875,1.9493261415690182,0.7097108424969018,1.1462912648171186
1732873774247493000,7.4534931640625,2.2913865978479384,0.6315513518869876,0.7367550628975034
1732873774257489200,7.4634892578125,2.728183439397812,0.5643424404889344,0.20512670513913034
1732873774267484200,7.473484130859375,3.1900258748769756,0.5860090595044195,-0.28534535676855594
1732873774277479200,7.483479248046875,3.519223342451453,0.5852278459988534,-0.5635018249463289
1732873774287474200,7.49347412109375,3.484762269923091,0.5549427439808845,-0.6017480420365929
1732873774297469200,7.50346923828125,3.0215163973867893,0.4168151068814099,-0.4579634020887315
1732873774307465000,7.51346484375,2.2702058626532553,0.18519260900467632,-0.23758089482448994
1732873774317460000,7.5234599609375,1.5000193625360727,-0.007707797898352146,0.029756548099219796
1732873774327455000,7.533455078125,0.859314397856593,-0.12778116126060485,0.08713898894451558
1732873774337450000,7.543449951171875,0.36808570889532566,-0.2562503047853708,-0.04346950469650328
1732873774347445000,7.553445068359375,0.07053484095036983,-0.4171824788890779,-0.28426738880611957
1732873774357441300,7.563441162109375,0.08573241008222103,-0.4253887278288603,-0.6544157293196767
1732873774367436300,7.573436279296875,0.47374739280641076,-0.27647490829899907,-1.1609485165271907
1732873774377431000,7.58343115234375,1.0410177034407853,-0.0866955560259521,-1.7444895054176448
1732873774387426000,7.593426025390625,1.4691530996292828,0.16466215441226958,-2.185829835616052
1732873774397421000,7.603421142578125,1.532245807880163,0.4679089689765125,-2.371188741098344
1732873774407417000,7.6134169921875,0.8694552681207657,0.71993201145567,-2.078001036798954
1732873774417412000,7.623412109375,-0.297809811142087,0.7949901750493794,-1.311807697971165
1732873774427407000,7.633406982421875,-1.5773422561913728,0.6459384083535522,-0.5959161210127174
1732873774437401900,7.64340185546875,-2.5913404352813956,0.1654387648079544,0.09221936094872653
1732873774447396900,7.65339697265625,-3.0353333258152007,-0.3245812424832955,0.4647922251954674
1732873774457392600,7.663392578125,-2.862198526611924,-0.6407379901662469,0.69044156694673
1732873774467387600,7.6733876953125,-2.2980746973097324,-0.7919070412769913,0.9161413967762142
1732873774477382700,7.683382568359375,-1.801459639135003,-0.8216445193495601,1.0742554447192698
1732873774487377700,7.693377685546875,-1.6175620383769274,-0.7551417834594846,1.142046978310868
1732873774497373700,7.703373779296875,-1.911008393612504,-0.541227010904625,1.2526996754422783
1732873774507368700,7.71336865234375,-2.7179654122442005,-0.445721979348734,1.4240706798434257
1732873774517363700,7.72336376953125,-3.883973184922337,-0.5313160038735717,1.6118543282546103
1732873774527358700,7.733358642578125,-4.886728085464239,-0.8180260365914553,1.7201690108925103
1732873774537353700,7.743353759765625,-5.322742252203822,-1.1277954578574747,1.7346452800124883
1732873774547349800,7.753349853515625,-4.989359607899189,-1.2645204616174102,1.593302626389265
1732873774557344800,7.7633447265625,-3.9727737504035234,-1.1174952323131262,1.2592337533861397
1732873774567339800,7.77333984375,-2.6053204453170298,-0.8562102943614125,0.7007393813382834
1732873774577334500,7.78333447265625,-1.2265671630591153,-0.5714520167658105,0.2824111664801836
1732873774587329800,7.793329833984375,-0.18138591019809244,-0.21983243563342839,0.20824483715966344
1732873774597325800,7.803325927734375,0.16436813990175722,0.16586904598399996,0.29932269992306826
1732873774607320800,7.81332080078125,0.10668518173992633,0.2561880532041192,0.18297902460843324
1732873774617315800,7.82331591796875,0.1353466280788183,0.276000422655046,-0.01465907834097743
1732873774627310800,7.833310791015625,0.4262795391887426,0.34249234489016234,-0.3660163552753627
1732873774637306600,7.843306640625,0.9618699324458837,0.40650034135505553,-0.7920393624197691
1732873774647301600,7.853301513671875,1.525636618873477,0.5070473126009106,-1.2180374543186276
1732873774657296600,7.863296630859375,2.0177689786762,0.5661278626009821,-1.6827146017670631
1732873774667291600,7.873291748046875,2.42971078043282,0.7171892155535519,-2.038076730428636
1732873774677287000,7.883286865234375,2.6241239299863577,0.8193198027290404,-2.2874023505173624
1732873774687282700,7.89328271484375,2.5153631110161543,0.8929507099986076,-2.4412486580133437
1732873774697277700,7.903277587890625,2.219178270727396,1.0217857642263173,-2.5018805291086434
1732873774707272700,7.913272705078125,1.8313713777959346,1.0922069156691432,-2.5511352661430835
1732873774717267700,7.923267822265625,1.4395090719938277,1.0156446311227976,-2.4530583382725712
1732873774727262700,7.9332626953125,1.1741413947731256,0.7921905343934893,-2.232816627718508
1732873774737258800,7.9432587890625,1.0088158080160616,0.5060311212956905,-1.893096597085893
1732873774747253800,7.953253662109375,0.9901438407719134,0.2504256902851164,-1.4972364538192748
1732873774757248800,7.963248779296875,1.022163365367055,0.09312938846573234,-1.120152614954114
1732873774767243800,7.973243896484375,0.9766752873897552,0.024706132841855286,-0.8381395078808068
1732873774777238800,7.98323876953125,0.8128145124882459,0.06735124247819185,-0.7778987549949437
1732873774787234800,7.99323486328125,0.6464531529426575,0.21316052012145517,-0.9325633200712501
1732873774797229800,8.003229736328125,0.5856447562366723,0.28685762449502944,-1.1533794695124029
1732873774807224800,8.013224853515625,0.580173631349206,0.3184548320248723,-1.3405473241128028
1732873774817219800,8.0232197265625,0.7706628854572772,0.17569427442774174,-1.4111862099595367
1732873774827215600,8.033215576171875,1.213695406526327,-0.08172390509322285,-1.2783037800371646
1732873774837210600,8.043210693359375,1.6928449506372212,-0.4771414191588759,-0.9154865130640566
1732873774847205600,8.05320556640625,2.142460941749811,-0.8020246767960488,-0.5169844769865274
1732873774857201000,8.063200927734375,2.2882588212162256,-0.8360060029834508,-0.008351137303188443
1732873774867196000,8.07319580078125,1.8515864828288553,-0.7402638016708195,0.5948434137472882
1732873774877191700,8.083191650390624,0.6743243256866932,-0.5556514767721294,1.3120949904799462
1732873774887186700,8.093186767578125,-0.9752817872047423,-0.23270269432887433,2.0119398341313004
1732873774897181700,8.103181640625,-2.930010080078244,0.01731251545920968,2.691159238383174
1732873774907176700,8.1131767578125,-4.821384967938065,0.22956088917180895,3.1896067726820707
1732873774917172700,8.1231728515625,-5.9878860770910975,0.4462956145182252,3.311922362013161
1732873774927167700,8.133167724609375,-5.8177095431715244,0.5431692310135812,3.138900083273649
1732873774937162800,8.143162841796874,-4.400915576332808,0.4079541934251785,2.650553379489481
1732873774947157800,8.15315771484375,-2.2817314652740954,0.13109744620174169,2.0358432722881434
1732873774957152800,8.16315283203125,-0.2864700864821672,-0.10943608788326382,1.4977587241277097
1732873774967148800,8.173148681640624,1.274071257033944,-0.4071124819040298,0.979545509063825
1732873774977143800,8.183143798828125,2.346032380270958,-0.721514823667705,0.5836520845821127
1732873774987138800,8.193138916015625,2.8590269108384847,-1.1368803162626921,0.26362784781605003
1732873774997133800,8.2031337890625,2.765498147791624,-1.3909822108425198,0.21006993369497357
1732873775007128800,8.21312890625,2.0935393821924926,-1.515106018639356,0.24516060936376452
1732873775017124600,8.22312451171875,1.1256477052390574,-1.499937383341044,0.4246640302835032
1732873775027119600,8.23311962890625,0.14843348866701125,-1.3477291984409092,0.6783367761984467
1732873775037115000,8.243114990234375,-0.8422036885797977,-1.0399604494728147,0.8290971003778278
1732873775047110000,8.25310986328125,-1.7773714920610189,-0.6295695304200053,0.7748772152166813
1732873775057105700,8.263105712890624,-2.5112621054381132,-0.1320655605815351,0.59183162817806
1732873775067100700,8.2731005859375,-2.9885125379294157,0.34638460308834906,0.560479737178795
1732873775077095700,8.283095703125,-3.1813860568255183,0.5911025832511484,0.6825908534463495
1732873775087090700,8.293090576171876,-2.9397856241613627,0.691021047335118,0.7927416654702275
1732873775097085700,8.303085693359375,-2.033352332255244,0.7385799402371048,0.9571806786511092
1732873775107081700,8.313081787109375,-0.7675421230882405,0.688027710738033,1.0498204569689928
1732873775117076700,8.32307666015625,0.4483616071373224,0.5638147633530199,1.0792916853208094
1732873775127071700,8.33307177734375,1.3805506870687008,0.45523806877806783,1.1123010246708989
1732873775137066800,8.343066650390625,2.03479668584466,0.3856410931997001,1.0255386139538138
1732873775147061800,8.353061767578126,2.474096450126171,0.41238428482711315,0.8771344244465231
1732873775157057800,8.363057861328125,2.6508161220788953,0.43810953158363697,0.7578630251169204
1732873775167052800,8.373052734375,2.610823134386539,0.5297114182211459,0.8074665755890309
1732873775177047800,8.3830478515625,2.4370763407647607,0.6959140800736844,1.0316302818924188
1732873775187042800,8.393042724609375,2.2834020288348196,0.8143979822874069,1.1852619237244129
1732873775197038600,8.40303857421875,2.2490432476371525,0.8558369310043752,1.2195038005441428
1732873775207033600,8.41303369140625,2.233098659530282,0.7634837876081466,1.1440283613864333
1732873775217028900,8.42302880859375,2.174347195354104,0.650212943867594,1.0853224899176508
1732873775227024000,8.43302392578125,1.982186208641529,0.4843551499299705,0.9545068563319742
1732873775237019000,8.443018798828126,1.7054168474406004,0.2750647492401302,0.8495495943631977
1732873775247014700,8.4530146484375,1.350275375792384,0.13327026019617913,0.6711633774377406
1732873775257009700,8.463009765625,0.9844377380847931,-0.06718479987010359,0.46641186228655274
1732873775267004700,8.473004638671876,0.5184720851957798,-0.49926265007406473,0.16189245223691687
1732873775276999700,8.482999755859375,0.12537468464076518,-0.7969502961412072,-0.08856757870921865
1732873775286995700,8.49299560546875,-0.0962730933189392,-0.8455223116084932,-0.21727338053407147
1732873775296990700,8.50299072265625,-0.04605097255706787,-0.6503698879949749,-0.29796489210594446
1732873775306985700,8.51298583984375,-0.051796238210797305,-0.3255528274618089,-0.17643458966733888
1732873775316980700,8.522980712890625,-0.4467711230754852,0.14333923426792025,-0.07317209411878138
1732873775326975700,8.532975830078126,-1.2815139742553234,0.5969722059369087,0.26327835852494463
1732873775336971800,8.5429716796875,-2.501931382513046,0.8306026826351881,0.7117436634987593
1732873775346966800,8.552966796875,-3.4258722740590573,0.6143937347285449,0.9512295151617377
1732873775356961800,8.5629619140625,-3.3544787704527375,0.12682269149199127,1.0752987432271242
1732873775366956800,8.572956787109375,-2.1816846986353395,-0.5416963089168071,0.9558678424868732
1732873775376951800,8.582951904296875,-0.4045598748117685,-1.1722063350573182,0.6438137443497777
1732873775386947600,8.592947509765626,1.2836363732367753,-1.5851529299423097,0.17289273407571018
1732873775396942800,8.60294287109375,2.4724329008281227,-1.695530828720331,-0.37225166946835814
1732873775406937900,8.612937744140625,3.1217016957134005,-1.5445713287070393,-0.8294757974971085
1732873775416932900,8.622932861328126,3.020604543238878,-0.975966846859455,-1.0400761848069726
1732873775426928600,8.6329287109375,2.1258914997428655,-0.5130738794140517,-1.0610266914423554
1732873775436923000,8.6429228515625,0.3960504051417112,-0.007318067928403615,-0.8176397406876087
1732873775446918000,8.65291796875,-1.640056194257736,0.30578714669682083,-0.5543951200354844
1732873775456912600,8.66291259765625,-3.252091578167677,0.3284052212182432,-0.3359973568476736
1732873775466908000,8.672907958984375,-4.106005578285456,0.13904285224825144,-0.16767717311820016
1732873775476904000,8.682904052734376,-3.831072784861922,-0.10332900317981839,-0.2543222227996215
1732873775486899000,8.69289892578125,-2.57738263707757,-0.4259876435700804,-0.5642145032603293
1732873775496894000,8.70289404296875,-0.8766635920643806,-0.8120076530847697,-0.8980188801083713
1732873775506889000,8.712888916015626,0.6626707127720117,-1.076259039626643,-1.112332296591997
1732873775516884700,8.722884765625,1.6972750420391558,-1.2076472124032676,-1.1885407261993735
1732873775526879700,8.732879638671875,2.2479005073428153,-1.1618140473153442,-1.2146849290203303
1732873775536874800,8.742874755859376,2.292642735388875,-0.9598422990757971,-1.1998371231742202
1732873775546869800,8.752869873046874,1.838936844614148,-0.6737199300527572,-1.1440361793667078
1732873775556865000,8.762864990234375,1.0817460196703672,-0.3363328724123537,-0.9919370808642357
1732873775566860800,8.77286083984375,0.32263562484085556,-0.004306318891793489,-0.7161543195478618
1732873775576855800,8.782855712890624,-0.29570319425165653,0.21587562429904936,-0.42183899945802983
1732873775586850800,8.792850830078125,-0.678075202652812,0.35938444298021494,-0.2523589233700186
1732873775596845800,8.802845703125,-0.7355430567592381,0.491768494926393,-0.0783301527353935
1732873775606841900,8.812841796875,-0.5117512525081634,0.4943693981397897,-0.008321070958487688
1732873775616836900,8.8228369140625,-0.18471534688174723,0.4163995118178427,-0.22023981085792182
1732873775626832000,8.832831787109376,0.08178571828305721,0.322343948417902,-0.513116586044617
1732873775636827000,8.842826904296874,0.28552783719599245,0.1917920072697103,-0.816187715248391
1732873775646822000,8.85282177734375,0.4908610246926546,0.014142214860022068,-1.1076879779174924
1732873775656818000,8.86281787109375,0.6842845786869526,-0.08106967896819114,-1.4402368017464875
1732873775666813000,8.87281298828125,0.9424363331794738,-0.13776377222314476,-1.7413941697508095
1732873775676808000,8.882807861328125,1.1371885054290294,-0.15506342820078134,-1.961235336679965
1732873775686803000,8.892802978515626,1.1433557958871126,-0.17302359391376376,-2.134388840583712
1732873775696798700,8.902798828125,0.9851210441738366,-0.2150286520808935,-2.1849783333532513
1732873775706793700,8.912793701171875,0.7616834601879119,-0.22822437987104058,-2.081223798237741
1732873775716788700,8.922788818359376,0.5535135879606008,-0.15129910723119974,-1.8591601329535246
1732873775726784000,8.932783935546874,0.3166290779024362,-0.03787278066799044,-1.5570947101935744
1732873775736779000,8.942779052734375,0.04409282422661781,0.0933857013143599,-1.2123454532220959
1732873775746774800,8.95277490234375,-0.24301088398396967,0.27722134275212884,-0.9292629633516073
1732873775756769800,8.962769775390624,-0.39437691897153854,0.4130132303804159,-0.7561819401621818
1732873775766764800,8.972764892578125,-0.330855756175518,0.4120522763937711,-0.7219180707063525
1732873775776759800,8.982759765625,-0.10731997251212597,0.3549814587809145,-0.8321280655715614
1732873775786755800,8.992755859375,0.3151063983798027,0.1836484483025968,-1.085078232832998
1732873775796750800,9.002750732421875,0.8139332873851061,0.02295139812901616,-1.236005876403302
1732873775806745900,9.012745849609376,1.1145160703718662,-0.11199512471631169,-1.166586303218454
1732873775816740900,9.022740966796874,1.1829109766840935,-0.19145269231274722,-0.9736608349394053
1732873775826735900,9.03273583984375,0.8356658112436532,-0.052673459436744445,-0.5031505243580788
1732873775836732000,9.04273193359375,-0.03734159640073776,0.1261672963231802,0.08849647710123099
1732873775846727000,9.052726806640624,-1.284209789210558,0.40017997922711074,0.7662562479961663
1732873775856722000,9.062721923828125,-2.549197576078772,0.5089071881886571,1.4655926306687295
1732873775866717000,9.072717041015625,-3.495136948943138,0.46597171730361875,1.8116782508105038
1732873775876712700,9.082712646484374,-3.9589626671940086,0.32032953985556956,2.0262632507771254
1732873775886707700,9.092707763671875,-3.745493519514799,0.2421036329459399,2.218268608536571
1732873775896702700,9.10270263671875,-2.933793690270185,0.13704926727823913,2.0934370908617974
1732873775906698000,9.112697998046874,-1.8718512722223997,0.08327230357900262,1.8577485125899313
1732873775916693000,9.12269287109375,-0.9623872343182563,0.08667239434607327,1.5583732056967914
1732873775926689000,9.13268896484375,-0.4537731107920408,0.16617672369368372,1.3456393865548073
1732873775936683800,9.142683837890624,-0.36442075664699075,0.25735782763585446,1.382105515295267
1732873775946678800,9.1526787109375,-0.6625894642293453,0.2590801944490522,1.6836194416522978
1732873775956673800,9.162673828125,-1.1502274352222681,0.11818192359246313,2.0378153030134736
1732873775966669800,9.172669921875,-1.3189362346768378,-0.06133103234060108,2.247281206400692
1732873775976664800,9.182664794921875,-1.0565770916223525,-0.3339676776509732,2.3657260917782783
1732873775986659800,9.192659912109375,-0.5029086053609848,-0.6013027094218879,2.292383207669854
1732873775996655000,9.202655029296874,0.05148468804359436,-0.8425158232688903,2.087812821239233
1732873776006649900,9.21264990234375,0.534600213176012,-0.9491171991828828,1.8822914176940917
1732873776016646000,9.22264599609375,0.9641396309435367,-0.9728398739453404,1.5577330080971121
1732873776026641000,9.232640869140624,1.1489864952504634,-0.8659002059876918,1.1965689151585102
1732873776036636000,9.242635986328125,1.1996265491634606,-0.5858139753237366,0.927973654193431
1732873776046631000,9.252630859375,1.0110001663178205,-0.29475875300839544,0.8640284207664429
1732873776056626700,9.262626708984374,0.6603653584390878,-0.029821064702793953,0.9570123363468795
1732873776066621700,9.27262158203125,0.2442687750905752,0.24660225953944026,1.0010265423793345
1732873776076616700,9.28261669921875,-0.09146481625437736,0.590264744187519,1.0525121072057635
1732873776086612000,9.292612060546874,-0.4497901786357164,0.9033481853723525,1.1260698761738837
1732873776096608000,9.30260791015625,-0.8136211526960134,1.1353004997253417,1.1045908156197517
1732873776106603000,9.31260302734375,-1.0351537798434496,1.28876584507972,1.207182955892384
1732873776116598000,9.322597900390624,-1.0510077670574187,1.3201616848185658,1.359147249034047
1732873776126592800,9.3325927734375,-0.8159703461706638,1.2155937874935567,1.4082340821556747
1732873776136587800,9.342587890625,-0.366238619723916,1.1128072206273674,1.32863959030658
1732873776146583800,9.352583740234374,0.1466109494149685,1.0390193692304193,1.2967334629580378
1732873776156578800,9.362578857421875,0.5054565362781286,0.9323813876330852,1.3273393213629723
1732873776166573800,9.37257373046875,0.7025000343352555,0.8588800980925559,1.3933078773111105
1732873776176569000,9.382569091796874,0.7498802096694708,0.8170002737402915,1.4443709789417682
1732873776186564900,9.39256494140625,0.7303034025400876,0.8212935870200395,1.4463051618747413
1732873776196560000,9.402559814453125,0.6945920376896858,0.8449522566355764,1.3029720650866627
1732873776206555000,9.412554931640624,0.7134434531539678,0.9423943937338888,1.056651033641398
1732873776216550000,9.4225498046875,0.7627011127978562,1.029844129128009,0.7137026155468076
1732873776226545000,9.432544921875,0.8476286362379789,1.0690209781318902,0.3398673301488161
1732873776236540700,9.442540771484374,0.9779781866818665,1.0704159396216273,-0.003987471334123984
1732873776246535700,9.45253564453125,1.2137094350516795,1.0126647385291754,-0.3046290627028793
1732873776256530700,9.46253076171875,1.493008022469282,0.9122044226534665,-0.5681406637281179
1732873776266526000,9.47252587890625,1.7795903371542692,0.7720955486088991,-0.7357720432095229
1732873776276522000,9.48252197265625,1.9574679469704628,0.3841863643467426,-0.8023973825659603
1732873776286517000,9.49251708984375,1.9796973144352434,-0.07670271593034267,-0.7254035747345536
1732873776296512000,9.502511962890624,1.8880191476911306,-0.19563640773817895,-0.4804419585416093
1732873776306506800,9.5125068359375,1.7875719835579393,-0.23751360174193978,-0.3653722852181643
1732873776316501800,9.522501708984375,1.7240099042296408,-0.008554331725090741,-0.39531942398604003
1732873776326497800,9.532497802734374,1.2874702523112296,0.4868744392745197,-0.35825901914685965
1732873776336492800,9.542492919921875,0.4878068978190422,0.8809240259878337,-0.22726981909256427
1732873776346487800,9.55248779296875,-0.6060328797489404,1.1685647636845706,0.009231306254758966
1732873776356483000,9.562483154296874,-1.7653285875678062,1.2296617680735886,0.19798172875531017
1732873776366478800,9.572478759765625,-2.8155221156328913,0.9564158317584543,0.43406277694348244
1732873776376473900,9.582473876953125,-3.453239004412293,0.3701465869478881,0.4375703466730192
1732873776386468900,9.59246875,-3.3564497782647607,-0.29856428277119995,0.3678443378875032
1732873776396463900,9.6024638671875,-2.4800240866094825,-0.9164317580249159,0.4225967224901542
1732873776406460000,9.6124599609375,-1.3731091388911008,-1.4558154791504143,0.49335327989980576
1732873776416455000,9.622454833984374,-0.2688935132592916,-1.7897849834322928,0.5750230801856145
1732873776426449700,9.63244970703125,0.4567477426886558,-2.0810560404554006,0.618127368298918
1732873776436444700,9.642444580078125,0.8072410962700843,-2.3034698343515396,0.6884596724145114
1732873776446440200,9.652440185546874,0.7397977915942668,-2.301314702144265,0.7011331298962235
1732873776456436200,9.662436279296875,0.3336100233197212,-2.0195818733170627,0.6558198239639401
1732873776466431200,9.67243115234375,-0.3699176004976034,-1.5687679045915603,0.5511937667109071
1732873776476426200,9.68242626953125,-1.1350684445351362,-1.0532537924185394,0.3766751849990338
1732873776486421200,9.692421142578125,-1.7123492770522832,-0.5152496890831738,0.29987772172363475
1732873776496417300,9.702417236328126,-2.169684464240074,-0.008375394961610437,0.32444450089372695
1732873776506412300,9.712412353515624,-2.481093761667609,0.2691015299867838,0.26559531196411695
1732873776516407300,9.7224072265625,-2.505495796996355,0.31302769240960476,0.11062953545153141
1732873776526402300,9.73240234375,-2.0555109725713727,0.15861527546346188,0.019532091204822064
1732873776536398000,9.742398193359374,-1.1506383541107177,-0.12627477528564632,-0.06010114348577335
1732873776546393000,9.75239306640625,-0.030728315740823745,-0.37137064885012805,-0.26428755383379754
1732873776556388000,9.76238818359375,0.975644190776348,-0.5458762249499559,-0.4841277709148824
1732873776566383400,9.77238330078125,1.7524702750384806,-0.6918603477034717,-0.5596788325920701
1732873776576378400,9.78237841796875,2.310938270536065,-0.8229707264520227,-0.6104238812495023
1732873776586374400,9.79237451171875,2.6187299619883295,-0.8551446378912776,-0.6121986723696813
1732873776596369200,9.802369140625,2.6403666242569686,-0.7637977489281446,-0.6373003438677638
1732873776606364200,9.8123642578125,2.3329122019350526,-0.6567074204534292,-0.7153923952646553
1732873776616359200,9.822359130859375,1.7584832517176865,-0.5120432942572981,-0.944430210410431
1732873776626355200,9.832355224609374,1.1621668793410063,-0.3730020494442433,-1.2685630150064826
1732873776636350200,9.84235009765625,0.699009854131937,-0.13420286487117408,-1.4780036378219723
1732873776646345200,9.85234521484375,0.3398848658055067,0.2425830139607191,-1.5379348133020103
1732873776656340500,9.862340576171874,-0.023339959055185315,0.5412023148547858,-1.508328925719857
1732873776666336300,9.872336181640625,-0.4549889163225889,0.7290946112722158,-1.475600083811581
1732873776676331300,9.882331298828126,-0.8288970477610826,0.764885105773434,-1.4901453265145421
1732873776686326300,9.892326171875,-0.998982980787754,0.6914169147849083,-1.5512224571593105
1732873776696321300,9.9023212890625,-0.9118208301633596,0.4965889008201658,-1.5913016618303955
1732873776706316300,9.91231640625,-0.6059785192131996,0.2897596295468509,-1.602733156426996
1732873776716312000,9.92231201171875,-0.21020868457853792,0.1033932275224477,-1.5832421278849242
1732873776726307000,9.93230712890625,0.13596037606298922,-0.03449650916792452,-1.436317582476139
1732873776736302000,9.942302001953125,0.4341927965313196,-0.21570801264718173,-1.1789102896753698
1732873776746297300,9.95229736328125,0.6893617358207702,-0.34330095785930753,-1.0236199939161539
1732873776756293400,9.96229345703125,0.9066285222172736,-0.46401042716801166,-0.9524439324527978
1732873776766288400,9.972288330078126,1.143769052863121,-0.44269656711295247,-0.8694388284426182
1732873776776283400,9.982283447265624,1.2262146963596343,-0.38192733337357637,-0.974021192684397
1732873776786278100,9.992278076171875,1.0908581314086914,-0.225517458999902,-1.1378004998475313
1732873776796274200,10.002274169921876,0.7621130837768316,-0.004677782552689314,-1.0839707830477505
1732873776806269200,10.012269287109374,0.2799561745434999,0.1959716310419142,-0.8871674504220485
1732873776816264200,10.02226416015625,-0.19586977810263634,0.31668519200384615,-0.6801804313037544
1732873776826259200,10.03225927734375,-0.5950853692770004,0.39472544014826416,-0.5166461118776351
1732873776836254500,10.04225439453125,-0.7410480839163065,0.30917540089562534,-0.23652391485115512
1732873776846250200,10.052250244140625,-0.6733838299661874,0.11785218018144368,0.04366120961001142
1732873776856245200,10.062245361328126,-0.3783452371031046,0.008310439966619015,0.4611056456372142
1732873776866240300,10.072240234375,0.07400456288754939,-0.04435103677138686,0.6873479117803275
1732873776876235300,10.0822353515625,0.42211306715905667,0.04615545584484935,0.7243899407126009
1732873776886231300,10.092231201171876,0.4894347912818193,0.09668839612156152,0.7828975131303072
1732873776896226000,10.10222607421875,0.16091595362126826,0.1709818589530885,0.9984494584329425
1732873776906221000,10.112220947265625,-0.5022346516221762,0.2036323749281466,1.1957785684984177
1732873776916216000,10.122216064453125,-1.2323983534306286,0.153632664745301,1.348732822525501
1732873776926212400,10.13221240234375,-1.6872855629444121,0.12877689429968595,1.5282666751161216
1732873776936207400,10.142207275390625,-1.7008716052263975,0.16708835864588617,1.768001313908398
1732873776946202400,10.152202392578126,-1.4531255094140767,0.2913311166472733,1.8591390901654958
1732873776956197400,10.162197265625,-1.0624889460146427,0.339570977550745,1.5699685125529765
1732873776966193200,10.172193115234375,-0.5601853208094835,0.39551615213453767,1.1533707016840578
1732873776976188200,10.182188232421876,-0.1564315016835928,0.3413188441313803,0.6655566434718668
1732873776986183200,10.19218310546875,0.10246493369638919,0.05920943707674741,0.34814448890034105
1732873776996178200,10.20217822265625,0.1456207693338394,-0.2407953998915851,0.30626853700559586
1732873777006173200,10.212173095703125,-0.06255611715614795,-0.4958354521043598,0.4308263888381421
1732873777016169200,10.222169189453124,-0.4826028994351625,-0.720643886052072,0.6625465018704533
1732873777026164200,10.232164306640625,-0.9265472746521234,-0.8282659102506935,0.8951444206506013
1732873777036159200,10.2421591796875,-1.3910305800288916,-0.8209889049850404,1.1296392590932547
1732873777046154200,10.252154296875,-1.801120031917095,-0.8583104815110564,1.1993323885224758
1732873777056150300,10.262150390625,-2.0450503688335417,-0.8873283400721848,1.1586122555993497
1732873777066145300,10.272145263671876,-1.9257874450713395,-0.8667366568118333,0.8686781462684273
1732873777076140300,10.282140380859374,-1.4252268641412258,-0.8310347904421389,0.3650549628973007
1732873777086135000,10.292135009765625,-0.6438520305335521,-0.7542645622335374,-0.03858717601504177
1732873777096131300,10.30213134765625,0.12918342927396298,-0.7076428040511906,-0.21462547810748217
1732873777106126300,10.312126220703124,0.9454571423053741,-0.6808508048459887,-0.274707021843642
1732873777116121300,10.322121337890625,1.584557594397664,-0.6067141400113701,-0.21284305167011916
1732873777126116400,10.332116455078125,1.993100401365757,-0.4164500729613006,0.052907122062146664
1732873777136112000,10.342112060546874,2.1878712783157823,-0.2054902777545154,0.3496642092809081
1732873777146107100,10.352107177734375,2.142225963950157,-0.027721827401220797,0.5946250948214903
1732873777156102100,10.36210205078125,1.9760528204530476,0.17776903487518428,0.7327592712596058
1732873777166097200,10.37209716796875,1.7160984004527329,0.4021329399257898,0.7780287380501627
1732873777176092200,10.382092041015625,1.443378606903553,0.6432607866421342,0.761879275020957
1732873777186088400,10.39208837890625,1.2433096235454082,0.8772554204776882,0.7154782469172031
1732873777196083200,10.402083251953124,0.9836872119784354,1.107712089445442,0.6745569653987884
1732873777206078200,10.412078125,0.7157248420894146,1.2388570280507205,0.7263029347270726
1732873777216073200,10.4220732421875,0.5329612137973309,1.2002763913743197,0.7954353615336119
1732873777226069200,10.4320693359375,0.6354688175916672,1.0378967949412763,0.8211715680755675
1732873777236064300,10.442064208984375,1.0076409190177917,0.8339365032330155,0.8922301406390964
1732873777246059300,10.452059326171875,1.4583423672795295,0.5982917641028761,0.9195935830567031
1732873777256054300,10.46205419921875,1.8799281956940888,0.36139658652022477,0.8652592046704143
1732873777266050300,10.47205029296875,2.11594235265851,0.14789821274653076,0.7601097811304033
1732873777276045300,10.48204541015625,2.065313404661417,0.06294657777845859,0.6536497133832424
1732873777286040300,10.492040283203124,1.769409134879708,0.012261369549483061,0.5741795785661786
1732873777296035300,10.502035400390625,1.3657540999531745,-0.17005276140943168,0.5255741357533261
1732873777306031000,10.512031005859376,0.9294681305348873,-0.5962571895353496,0.4801808233873918
1732873777316026000,10.522026123046874,0.5953460660398006,-0.7816457595035433,0.3624742987543344
1732873777326021000,10.532021240234375,0.44073593456447124,-0.6308413039214908,0.24478527324534952
1732873777336016100,10.54201611328125,0.5751654477983713,-0.37807226538062094,0.18785415636412797
1732873777346011100,10.55201123046875,0.7760854950278997,0.021181611977517605,0.16119820462875067
1732873777356007400,10.56200732421875,0.7299597036689519,0.3425543772757053,0.2623065360844135
1732873777366002400,10.57200244140625,0.3662327745050192,0.44259566402174527,0.3556333468183875
1732873777375997200,10.5819970703125,-0.14914718989431858,0.19800189476050437,0.28526545993275937
1732873777385992200,10.5919921875,-0.4839233343839645,-0.4104245290614664,0.05138298123478889
1732873777395988200,10.60198828125,-0.41734570662677284,-1.004945030997321,-0.21777678174525497
1732873777405983200,10.611983154296874,-0.03297580240666866,-1.2933251158192753,-0.5053489842504263
1732873777415978200,10.621978271484375,0.06671440587937831,-1.0637323702044785,-0.6859486394416541
1732873777425973200,10.63197314453125,-0.3854208745777607,-0.4755677401013672,-0.7683291087474674
1732873777435969300,10.64196923828125,-1.4032786517053841,0.25518402726072814,-0.4777286444623023
1732873777445964000,10.651964111328125,-3.33914325415492,0.7992395761221647,0.1540936333205551
1732873777455959000,10.661958984375,-5.653632495170831,0.7741206977609545,0.5507467535957694
1732873777465954000,10.6719541015625,-7.6096642718583345,0.3129443980403244,0.869906957411021
1732873777475950300,10.681950439453125,-8.404640345317125,-0.4195844985295087,0.9036552785601466
1732873777485945300,10.6919453125,-7.66569654020369,-1.274536390327662,0.9435268318299204
1732873777495940000,10.701940185546874,-5.5625990560710425,-1.8544602846994995,1.1231406908541917
1732873777505935000,10.71193505859375,-3.010707418602705,-2.235502213540673,1.1111720206409692
1732873777515930000,10.72193017578125,-0.9462532611191272,-2.433189270198345,1.155223270748183
1732873777525926100,10.731926025390624,0.3874631940603256,-2.294591969760507,1.3012497713387012
1732873777535921200,10.741921142578125,1.0342810886621474,-1.911969493729621,1.400250243794918
1732873777545916200,10.751916259765625,1.1599597246855498,-1.4069517872601747,1.1419074967749416
1732873777555911200,10.7619111328125,1.0624667341828347,-0.9369908541899173,0.8235564173854887
1732873777565907200,10.7719072265625,0.9951976170301436,-0.6068498221550136,0.5658117093238979
1732873777575902200,10.781902099609376,1.1251648901581763,-0.2694109977947548,0.3275611716095358
1732873777585897200,10.791897216796874,1.4224854564785956,-0.004220394174009562,0.10553177392110227
1732873777595892200,10.801892333984375,1.777130669042468,0.08412278292849659,-0.20805209106653927
1732873777605888300,10.81188818359375,2.1187971575677396,0.1146274094486609,-0.4383169637892395
1732873777615883000,10.821883056640624,2.3351509207725525,0.1138287698842585,-0.5116692002478986
1732873777625878000,10.8318779296875,2.2533196097820998,0.07352309951353818,-0.5547513130620122
1732873777635873000,10.841873046875,1.854118047133088,0.0022311565855517982,-0.5240084573391824
1732873777645869300,10.851869384765624,1.3428057705640792,0.022014153811521827,-0.40291013484336435
1732873777655864300,10.8618642578125,0.9366887294381856,0.132040572270751,-0.4387371619626879
1732873777665859300,10.871859375,0.7196136662214994,0.12909571445789186,-0.5669483121383935
1732873777675854000,10.88185400390625,0.6814712748318911,0.08606357826534658,-0.7327174048792571
1732873777685849000,10.89184912109375,0.7436696645915508,0.013227255439572035,-0.9756362997308373
1732873777695845000,10.90184521484375,0.8671873231887817,-0.08546316468678414,-1.2504282233789563
1732873777705840000,10.911840087890624,0.9363619817018508,-0.14389007308371365,-1.3841615710422397
1732873777715835100,10.921835205078125,0.905943462562561,-0.14567418002150953,-1.4358163549557328
1732873777725830100,10.931830078125,0.6870061126053333,-0.0902729030560702,-1.4840174912840127
1732873777735826200,10.941826171875,0.38680209980309005,0.017293591563031077,-1.5502902908757328
1732873777745821200,10.9518212890625,0.03604921850264072,0.16477613618075845,-1.6150032938048242
1732873777755816200,10.961816162109375,-0.2959849338024855,0.25411446180045605,-1.610453813806921
1732873777765811200,10.971811279296874,-0.48038756147325035,0.30785357770733535,-1.713282173988223
1732873777775807200,10.98180712890625,-0.4832517187327146,0.23313933218047023,-1.9276593764230607
1732873777785802200,10.99180224609375,-0.30043314538300037,0.13443141293004154,-2.108736659063399
1732873777795797000,11.001796875,-0.066079030585289,0.10594495783187448,-2.2931153213366864
1732873777805792000,11.0117919921875,0.007169160977005958,0.11009937409758568,-2.415848259297013
1732873777815788300,11.021788330078126,-0.1694406208604574,0.11011632523238658,-2.4334864995792507
1732873777825783300,11.031783203125,-0.4316442810922861,0.2613714471913874,-2.2489828957520426
1732873777835778300,11.0417783203125,-0.8392682196497917,0.5082454363442958,-1.9778642537891864
1732873777845773300,11.051773193359375,-1.3311772920906544,0.7588051282726228,-1.6907406718343496
1732873777855769000,11.06176904296875,-1.8692162475436924,0.913678952185437,-1.4983749563299118
1732873777865764000,11.07176416015625,-2.357151155656576,0.9646111209128051,-1.5313048737682402
1732873777875759000,11.081759033203125,-2.4616660076200962,0.9282665727254003,-1.6269745943665503
1732873777885754000,11.091754150390624,-1.9826158322304486,0.7453013574466109,-1.6927451435245573
1732873777895749000,11.1017490234375,-1.078680202358961,0.48939277877099807,-1.7204563034012912
1732873777905745200,11.1117451171875,-0.03453121515512466,0.23148170116655528,-1.6257333621338008
1732873777915740200,11.121740234375,0.9735995332062244,0.06116831605955958,-1.3858536157824097
1732873777925735200,11.131735107421875,1.786978109318018,0.030165713422000407,-1.0141578266311437
1732873777935730200,11.141730224609375,2.3758336442947385,0.12994798390567303,-0.3818334445450455
1732873777945726200,11.151726318359374,2.780057419019937,0.2472919223040342,0.2172099416427314
1732873777955721200,11.16172119140625,2.848895977446437,0.4097860850274563,0.6293249080091714
1732873777965716200,11.17171630859375,2.5254689099669454,0.5031799696482717,0.9486272967740893
1732873777975711200,11.181711181640624,1.9137761047601698,0.5248718692354858,1.2190534264281392
1732873777985707300,11.191707275390625,1.216978081458807,0.4006745578110218,1.3151143383011221
1732873777995702300,11.201702392578126,0.7185013210654259,0.10079714661464094,1.2779919376090167
1732873778005697300,11.211697265625,0.5823030445933342,-0.32231019227877256,1.2729207718245685
1732873778015692300,11.2216923828125,0.7588117041438818,-0.7971665692403912,1.4025836551785469
1732873778025688000,11.23168798828125,1.1092775851964949,-1.3590188003487884,1.5512874852195382
1732873778035683000,11.24168310546875,1.3862567897558211,-1.7046967164725064,1.6226546853408217
1732873778045678000,11.251677978515625,1.316017132359743,-1.6786945524707435,1.6682685816548763
1732873778055673000,11.261673095703125,0.7664841384679079,-1.4349144376799463,1.8518541938543318
1732873778065669000,11.271669189453124,-0.23067338045835495,-1.1038627936061471,2.612716985309124
1732873778075664400,11.281664306640625,-1.7403589814841747,-0.7068324375163764,3.6563176909804342
1732873778085659400,11.291659423828126,-3.5877351531416175,-0.3476862602714449,4.42557450903207
1732873778095654100,11.301654052734374,-5.225753704091907,-0.10955244427192956,4.711207267907262
1732873778105650200,11.311650146484375,-6.1710313981771465,0.006053235624358058,4.557597837907076
1732873778115645200,11.321645263671876,-6.099917880555987,0.13831325933206826,4.081341969411075
1732873778125640200,11.33164013671875,-5.101811098080873,0.1488185059292242,3.31299642098546
1732873778135635200,11.34163525390625,-3.6651626762151714,-0.02084120104201138,2.384749648939073
1732873778145631000,11.351630859375,-2.174919442284107,-0.3935235170125961,1.6519389397531747
1732873778155626000,11.3616259765625,-0.9138625651240349,-0.8051959272433071,1.0712176844585686
1732873778165621200,11.371621337890625,0.09181962104141711,-1.1609370452851056,0.6334992710843682
1732873778175616300,11.3816162109375,0.9498620992660521,-1.408186005230248,0.34708917116113003
1732873778185612300,11.3916123046875,1.5767372760355471,-1.6247808837145565,0.12493337061405181
1732873778195607300,11.401607177734375,1.8847662833750247,-1.724298365782201,0.00395925901979208
1732873778205602000,11.41160205078125,1.9004940138608215,-1.6574319842115044,0.049340954013168806
1732873778215597000,11.42159716796875,1.6684452533960341,-1.5281675986558199,0.16040880781672895
1732873778225592000,11.431592041015625,1.2778671421855687,-1.3631149836212395,0.236146806900762
1732873778235588000,11.441588134765626,0.9161316790997982,-1.1813305756248533,0.35430918554253876
1732873778245583000,11.4515830078125,0.6214315244108438,-1.0239541212413459,0.3432091513900086
1732873778255578400,11.461578369140625,0.5029758253782988,-0.8777747681766748,0.263089612753503
1732873778265574100,11.47157421875,0.5843646532982587,-0.7332086224623025,0.3118922221062705
1732873778275569200,11.481569091796874,0.7760510082364082,-0.5974200227696448,0.38667745051011443
1732873778285564200,11.491564208984375,1.0442308202683925,-0.45027584326080977,0.2848031396506354
1732873778295559200,11.50155908203125,1.3674585657835006,-0.25935133954063055,0.06348276701439172
1732873778305554200,11.51155419921875,1.6382523597061633,-0.0658691141616553,-0.003266673645749688
1732873778315550200,11.52155029296875,1.5815192496150732,0.007527253699675202,-0.049561318765580654
1732873778325545000,11.531544921875,0.9537795649707317,0.35602804522439835,-0.4344452003898099
1732873778335540000,11.5415400390625,0.49539749907851216,0.6437648637067526,-0.6717115128397941
1732873778345535200,11.55153515625,0.6392541813492775,0.30378771650791164,0.6635704380907118
1732873778355531300,11.56153125,0.3687105627954006,0.1309286655060947,1.0753121141653508
1732873778365526300,11.5715263671875,0.19295710552632808,-0.28070165914855894,1.3861485070757567
1732873778375521300,11.581521240234375,0.20527941148281095,-0.35822745496481656,1.682447036872059
1732873778385516300,11.591516357421876,0.34752456690371036,-0.2880286410357803,1.6804925418034196
1732873778395512000,11.601511962890624,0.5533978526264429,-0.10484152663461864,1.473184108711034
1732873778405507000,11.611507080078125,0.7059200719118118,-0.03928783509768546,1.094028505073115
1732873778415502000,11.621502197265626,0.7579565486192703,0.053011093893274665,0.7712488686516881
1732873778425497000,11.6314970703125,0.6997463517129421,0.10568732980899512,0.5118162075031548
1732873778435493000,11.6414931640625,0.558341738769412,0.14937193856090306,0.39428387039322405
1732873778445489200,11.6514892578125,0.34630993041694164,0.20416545889154075,0.5845500563351437
1732873778455484200,11.661484130859375,-0.058680737027525895,0.2729316827341914,0.6160504158943891
1732873778465479200,11.671479248046875,-0.6740209588259458,0.3541650278314948,0.5585910373553633
1732873778475475200,11.68147509765625,-1.2325474065124988,0.2689601487547159,0.5096580065559595
1732873778485470000,11.691469970703125,-1.5407482632875442,0.2254032580357045,0.47135545616857705
1732873778495465000,11.70146484375,-1.6065958232045172,0.10444755888096988,0.51231012849994
1732873778505460000,11.7114599609375,-1.4529992526859044,-0.046169776631146665,0.558839751419425
1732873778515456300,11.721456298828125,-1.1439473320394753,-0.07292129769548773,0.618616393924877
1732873778525451300,11.731451171875,-0.7034907989382744,-0.010311623721197247,0.34929245335906745
1732873778535446300,11.7414462890625,-0.23974048401117323,0.20382892041355372,-0.20969331893492488
1732873778545441000,11.75144091796875,-0.038676059874892234,0.47754868478551504,-0.8555910664845258
1732873778555437000,11.76143701171875,-0.11158405969738959,0.7567704075746238,-1.3874139969669281
1732873778565432000,11.77143212890625,-0.3203045515447855,0.9380795992746949,-1.820274960372597
1732873778575427000,11.781427001953125,-0.46661564123034477,0.8827643931575119,-2.0829288485899564
1732873778585422000,11.791422119140625,-0.3251607594043016,0.638794454883039,-1.9998206495314836
1732873778595418000,11.801418212890624,0.08194470823705195,0.1652251951225102,-1.8519168838270008
1732873778605413000,11.8114130859375,0.6367272932201623,-0.45829102660790083,-1.715773698543012
1732873778615408000,11.821408203125,1.2983031964927911,-1.008064551257342,-1.4296899810299277
1732873778625403100,11.831403076171876,1.8911767349392175,-1.4922373303577303,-1.0094834781445563
1732873778635399200,11.841399169921875,2.186260920509696,-1.6571641270555555,-0.5772157313916831
1732873778645394200,11.851394287109375,2.021377816823125,-1.4618177883051335,-0.10243553407196886
1732873778655389200,11.86138916015625,1.2013017888993025,-1.0016080685943365,0.37505814172383395
1732873778665384000,11.871384033203125,-0.16918226218521595,-0.3941998819041997,0.5367850098691881
1732873778675380200,11.881380126953125,-1.9112194060146808,0.27672325703687967,0.3298889569699764
1732873778685375200,11.891375244140624,-3.7722529316246507,0.7318697750739753,-0.11589183076075278
1732873778695370200,11.901370361328125,-5.015026548597216,0.7940491678722202,-0.7762379091106355
1732873778705365200,11.911365234375,-5.0444297532141205,0.9456337409812956,-1.0800712183259427
1732873778715361000,11.921361083984374,-3.9035236885666844,0.7506975904669613,-1.2180085204850881
1732873778725356000,11.93135595703125,-2.097829772862792,0.26969087418206034,-1.162054212746769
1732873778735351000,11.94135107421875,-0.18149930744469164,-0.31029147237874566,-0.7112505462195724
1732873778745346000,11.951345947265626,1.491092544236779,-0.8115393779858946,-0.2746562597707845
1732873778755342000,11.961342041015625,2.6144460010588166,-1.0731642154164611,-0.2199131909857504
1732873778765337300,11.97133740234375,3.24253698335886,-1.2433699754305183,-0.17438777667274696
1732873778775332000,11.98133203125,3.4320021551162,-1.3609260952748357,-0.013801767391897738
1732873778785327000,11.9913271484375,3.2541116858184336,-1.4031727071128786,0.16296243782229722
1732873778795323100,12.0013232421875,2.8049866930931806,-1.4470768768995999,0.20434293435029685
1732873778805318100,12.011318115234374,2.2985481600403785,-1.4713655149817466,0.19091548016350715
1732873778815313200,12.021313232421875,1.846342736956477,-1.470133635099232,0.18710205935519186
1732873778825308200,12.03130810546875,1.4992928018271923,-1.421128050520271,0.14812617628350852
1732873778835304000,12.041303955078124,1.1259370435744522,-1.2990573758609592,-0.032140337963216005
1732873778845299000,12.051298828125,0.660818362903595,-1.1168087113536893,-0.25878537622094155
1732873778855294200,12.061294189453125,0.07676058359742165,-0.9060160163421184,-0.3151044986836612
1732873778865289200,12.071289306640624,-0.7283230423778295,-0.7237287733901292,-0.28431203166544433
1732873778875285200,12.08128515625,-1.6090397092252968,-0.5759428619116544,-0.31780374770499764
1732873778885280300,12.0912802734375,-2.2118121258735655,-0.41848567044213414,-0.4031140964502469
1732873778895275000,12.10127490234375,-2.3464947370857,-0.3105868020635098,-0.2165077481901273
1732873778905270000,12.11127001953125,-2.0109604677051305,-0.2791445658996701,0.10272164840381592
1732873778915266000,12.12126611328125,-1.462261586549878,-0.47705746720246966,0.4849492433656007
1732873778925261000,12.131260986328124,-0.8438421034365892,-0.6892771993424743,0.8382610153686255
1732873778935256000,12.141256103515625,-0.27434008822739125,-0.8353255464386194,0.9358718600973487
1732873778945251300,12.151251220703125,0.18392624233067034,-0.9820384949233383,0.9411868445750325
1732873778955247000,12.1612470703125,0.5049918413758278,-1.0203284050248562,0.9716182962611317
1732873778965242000,12.1712421875,0.5813403370410204,-0.9305589214462786,1.0340864428728818
1732873778975237000,12.181237060546875,0.4531231224507093,-0.8549757841303944,1.0385429108250885
1732873778985232100,12.191232177734374,0.30800738002955913,-0.6597366320814937,1.100056752386689
1732873778995228200,12.201228271484375,0.08489420569241046,-0.47729427163302895,1.0850256258629263
1732873779005223000,12.211222900390625,-0.1162806930810213,-0.41772447681128977,1.055000343824923
1732873779015218000,12.221218017578124,-0.12613982379436492,-0.48136985050886866,1.0701258706338703
1732873779025213200,12.231213134765625,0.030875615257024765,-0.6066628482155502,0.983611516393721
1732873779035209200,12.241209228515626,0.33407471822202206,-0.7148252629011869,0.8053552094582468
1732873779045204200,12.251204345703124,0.6457008732706307,-0.7330877725616097,0.6538419480197131
1732873779055199200,12.26119921875,0.8601730605125427,-0.77112407322824,0.45926334223877635
1732873779065194200,12.2711943359375,0.9089005588024854,-0.7434360019661486,0.3394799017338082
1732873779075190000,12.28118994140625,0.8489829734563827,-0.6211435012497007,0.27251404184401035
1732873779085185000,12.29118505859375,0.6891168211489915,-0.45415758006498214,0.24159637754354624
1732873779095180000,12.301179931640625,0.44295653322339057,-0.39112317787259815,0.3517064556982368
1732873779105175000,12.311175048828124,0.19033377128541468,-0.41056642175018787,0.4537636853765696
1732873779115171000,12.321171142578125,-0.019341244807839393,-0.4004728977590799,0.435019858472608
1732873779125166000,12.331166015625,-0.17677987770736217,-0.4845147244058549,0.23003460763078182
1732873779135161000,12.3411611328125,-0.16571487833559512,-0.6579495294690132,-0.1888789328346029
1732873779145156000,12.351156005859375,0.07647182978391646,-0.781574593963474,-0.6710171008348464
1732873779155152100,12.361152099609376,0.40026071631312365,-0.8322866901993751,-1.0486642726711928
1732873779165147100,12.371147216796874,0.6344231079310179,-0.8465982702769339,-1.3473960209637879
1732873779175142100,12.38114208984375,0.642567251420021,-0.8453785192236304,-1.5963946010552346
1732873779185137200,12.39113720703125,0.4798106383681297,-0.8472798228003084,-1.728979801596701
1732873779195133200,12.40113330078125,0.2053431243687868,-0.8064761032469571,-1.7872240469031035
1732873779205128200,12.411128173828125,-0.07673135750293732,-0.7077962410472333,-1.7222966705709695
1732873779215123200,12.421123291015626,-0.2735655967235565,-0.59267100161165,-1.5462483220085501
1732873779225118200,12.4311181640625,-0.5129857627391815,-0.47701793890967964,-1.3073489649966359
1732873779235114000,12.441114013671875,-0.7872603845149279,-0.35305209815353156,-1.1418618310023099
1732873779245109000,12.45110888671875,-0.9940461089074611,-0.26572277426868673,-0.968363386118412
1732873779255104000,12.46110400390625,-1.0474866071939468,-0.2781136154167354,-0.7686642589859664
1732873779265099000,12.47109912109375,-0.9258546162128448,-0.3905867329083383,-0.5971954567661508
1732873779275095300,12.48109521484375,-0.6009317572176456,-0.5536825147867203,-0.46488476231712844
1732873779285090300,12.49109033203125,-0.07975918089151382,-0.6043455111838877,-0.42557913583442564
1732873779295085300,12.501085205078125,0.4522130218684673,-0.7012056106105446,-0.5038763544145971
1732873779305080000,12.511080078125,0.9151105193585157,-0.7835626990407705,-0.663338967422396
1732873779315076000,12.521076171875,1.2544061870992183,-0.7450960441328585,-0.93917725831829
1732873779325071000,12.531071044921875,1.3486480668514966,-0.8009187613807618,-0.9093165922574699
1732873779335066000,12.541066162109376,1.1203227108240126,-0.6677301881186664,-0.818455002593249
1732873779345061000,12.55106103515625,0.684434800812602,-0.4532496714398265,-0.7153380347289144
1732873779355057200,12.56105712890625,0.19581249495744704,-0.2010420661740005,-0.5433027577327564
1732873779365052200,12.57105224609375,-0.33020810592174527,0.07516118557676672,-0.4117664817223325
1732873779375047200,12.581047119140624,-0.6872270618796348,0.22568448612987993,-0.3393554351039231
1732873779385042200,12.591042236328125,-0.720052642160654,0.26889906621724363,-0.3393260994115844
