time,seconds_elapsed,z,y,x
1732873766921038000,0.1270380859375,0.05914895609021187,-0.18385006487369537,0.04855721443891525
1732873766931033000,0.137033203125,0.05155741050839424,-0.23526015877723694,0.04492047429084778
1732873766941028400,0.1470283203125,0.05365518480539322,-0.28196054697036743,0.017179924994707108
1732873766951023400,0.1570234375,0.061788953840732574,-0.32523083686828613,-0.009077874943614006
1732873766961018400,0.167018310546875,0.0637357234954834,-0.3658381700515747,-0.03610922768712044
1732873766971014100,0.17701416015625,0.04654921963810921,-0.3879515528678894,-0.06783713400363922
1732873766981009200,0.187009033203125,0.01888536661863327,-0.38574084639549255,-0.0899224653840065
1732873766991004200,0.197004150390625,-0.016589952632784843,-0.3819762170314789,-0.1127740740776062
1732873767000999200,0.206999267578125,-0.046919893473386765,-0.3775436580181122,-0.14315594732761383
1732873767010994200,0.216994140625,-0.055928997695446014,-0.3419449031352997,-0.16027718782424927
1732873767020989200,0.2269892578125,-0.05005912482738495,-0.3191322684288025,-0.17268112301826477
1732873767030984200,0.236984130859375,-0.021697789430618286,-0.2709996700286865,-0.17298874258995056
1732873767040979200,0.246979248046875,-0.008892245590686798,-0.21264207363128662,-0.12162914127111435
1732873767050974200,0.25697412109375,-0.02525464817881584,-0.16163787245750427,-0.04319069907069206
1732873767060969500,0.266969482421875,-0.05377417430281639,-0.10226429998874664,0.0577353797852993
1732873767070965200,0.27696533203125,-0.06713078916072845,-0.06850795447826385,0.13787007331848145
1732873767080960300,0.286960205078125,-0.06837926805019379,-0.010654245503246784,0.18796971440315247
1732873767090955300,0.296955322265625,-0.07348423451185226,0.05440284684300423,0.199050173163414
1732873767100950300,0.3069501953125,-0.08394433557987213,0.0887051597237587,0.1816573292016983
1732873767110945300,0.3169453125,-0.08633115887641907,0.07114217430353165,0.14950159192085266
1732873767120940300,0.326940185546875,-0.1044185534119606,0.02181537076830864,0.11861797422170639
1732873767130935300,0.336935302734375,-0.10867413133382797,-0.0057673379778862,0.10303108394145966
1732873767140930000,0.346929931640625,-0.0818457081913948,0.000546750845387578,0.0973401740193367
1732873767150925000,0.356925048828125,-0.04550580680370331,0.0289118904620409,0.09920836240053177
1732873767160920000,0.366920166015625,-0.016488801687955856,0.05519436299800873,0.11594712734222412
1732873767170916400,0.376916259765625,0.000947281252592802,-0.016947051510214806,0.20627298951148987
1732873767180911400,0.386911376953125,0.04071865975856781,-0.15162603557109833,0.369930624961853
1732873767190906400,0.39690625,0.09926910698413849,-0.14513403177261353,0.4775296449661255
1732873767200901400,0.4069013671875,0.13591209053993225,-0.07883889228105545,0.5092571973800659
1732873767210896100,0.416896240234375,0.15170952677726746,-0.025592327117919922,0.4534492790699005
1732873767220891100,0.42689111328125,0.15463021397590637,-0.0022854069247841835,0.3633534908294678
1732873767230886100,0.43688623046875,0.14350363612174988,0.010925553739070892,0.28983286023139954
1732873767240881200,0.446881103515625,0.11032011359930038,0.01675095409154892,0.21598181128501892
1732873767250876200,0.456876220703125,0.0707431435585022,-0.00949103757739067,0.148636594414711
1732873767260872400,0.46687255859375,0.046054042875766754,-0.05923888832330704,0.09531717002391815
1732873767270867500,0.476867431640625,0.03296215832233429,-0.09977374225854874,0.06058996543288231
1732873767280862200,0.4868623046875,0.025135396048426628,-0.10166245698928833,0.042088985443115234
1732873767290857200,0.496857177734375,0.02507845312356949,-0.06255117058753967,0.03390761464834213
1732873767300852200,0.506852294921875,0.030297981575131416,-0.018766144290566444,0.01819336600601673
1732873767310847200,0.51684716796875,0.0365120954811573,0.006905276328325272,0.013861781917512417
1732873767320842200,0.52684228515625,0.04002773389220238,0.01174077857285738,0.022472048178315163
1732873767330837200,0.536837158203125,0.038477182388305664,0.006342412903904915,0.03402794897556305
1732873767340832300,0.546832275390625,0.03671736642718315,-0.004830612801015377,0.03775370866060257
1732873767350828300,0.556828369140625,0.03139536455273628,-0.003764526452869177,0.036138866096735
1732873767360823000,0.566822998046875,0.02656145952641964,-0.01105146761983633,0.030989110469818115
1732873767370818000,0.576818115234375,0.0271675493568182,-0.009128648787736893,0.017900075763463974
1732873767380813300,0.586813232421875,0.02560533955693245,0.004417785909026861,0.0032300532329827547
1732873767390808300,0.596808349609375,0.01760764606297016,0.017243552953004837,-0.014873452484607697
1732873767400803300,0.60680322265625,0.009060496464371681,0.016041401773691177,-0.027255021035671234
1732873767410798300,0.61679833984375,0.0034825156908482313,0.01076134480535984,-0.0377388522028923
1732873767420793300,0.62679345703125,-0.004539191722869873,0.005151129327714443,-0.043333351612091064
1732873767430789000,0.6367890625,-0.006264013703912497,0.00004395516589283943,-0.042499568313360214
1732873767440784100,0.6467841796875,-0.010219872929155827,-0.005973191000521183,-0.03256784379482269
1732873767450779100,0.656779052734375,-0.010969127528369427,-0.017603717744350433,-0.018769418820738792
1732873767460774100,0.666774169921875,-0.0032944302074611187,-0.017799194902181625,-0.00470313522964716
1732873767470769200,0.67676904296875,0.00013294827658683062,-0.012392794713377953,0.011678297072649002
1732873767480764200,0.68676416015625,-0.001228193286806345,-0.01754254847764969,0.022521622478961945
1732873767490759200,0.69675927734375,-0.00020974851213395596,-0.02348533272743225,0.026055481284856796
1732873767500754400,0.70675439453125,-0.002999675925821066,-0.024960190057754517,0.02005964145064354
1732873767510749400,0.71674951171875,-0.008183133788406849,-0.02836248278617859,0.001580681186169386
1732873767520745200,0.7267451171875,-0.012705447152256966,-0.023351479321718216,-0.004644990898668766
1732873767530740200,0.736740234375,-0.0179030429571867,-0.016802988946437836,0.0001787678338587284
1732873767540735200,0.7467353515625,-0.019940894097089767,-0.006678183563053608,0.025476133450865746
1732873767550730200,0.756730224609375,-0.023416806012392044,0.002885858528316021,0.06907380372285843
1732873767560725200,0.766725341796875,-0.024879679083824158,-0.0055419811978936195,0.10757512599229813
1732873767570720300,0.77672021484375,-0.028224654495716095,-0.0009818340186029673,0.13338714838027954
1732873767580715300,0.78671533203125,-0.03900646045804024,0.009332056157290936,0.14122483134269714
1732873767590711300,0.796711181640625,-0.04848624765872955,0.017876656726002693,0.13224145770072937
1732873767600706300,0.806706298828125,-0.0513928197324276,0.02249324694275856,0.1047096848487854
1732873767610701300,0.816701416015625,-0.05322801321744919,0.02835516631603241,0.06574445962905884
1732873767620696300,0.8266962890625,-0.0473024807870388,0.038387563079595566,0.03622332215309143
1732873767630691300,0.83669140625,-0.03706342726945877,0.06597672402858734,0.012470860034227371
1732873767640686300,0.846686279296875,-0.027937306091189384,0.07999960333108902,-0.011703450232744217
1732873767650681300,0.856681396484375,-0.02096754126250744,0.07889595627784729,-0.037896718829870224
1732873767660676400,0.86667626953125,-0.027086952701210976,0.08382733166217804,-0.0805714800953865
1732873767670672100,0.876672119140625,-0.023483170196413994,0.09488363564014435,-0.11807728558778763
1732873767680667100,0.886667236328125,-0.018899869173765182,0.09164229780435562,-0.12307551503181458
1732873767690662100,0.896662109375,-0.014827447012066841,0.08316480368375778,-0.09496743977069855
1732873767700657400,0.906657470703125,-0.009789545089006424,0.08713105320930481,-0.060412660241127014
1732873767710652400,0.91665234375,-0.007693439722061157,0.11944415420293808,-0.027815910056233406
1732873767720647400,0.9266474609375,-0.008779210969805717,0.14283841848373413,-0.001071115955710411
1732873767730642400,0.936642333984375,-0.013111854903399944,0.1466798186302185,0.014636317268013954
1732873767740637200,0.94663720703125,-0.02311042696237564,0.12071267515420914,0.007893193513154984
1732873767750633200,0.95663330078125,-0.04227687045931816,0.07025523483753204,-0.008714191615581512
1732873767760628200,0.966628173828125,-0.05766541138291359,0.029890500009059906,-0.02771717682480812
1732873767770623200,0.976623291015625,-0.06596744805574417,0.013172207400202751,-0.03110077977180481
1732873767780618200,0.9866181640625,-0.07485014945268631,0.006251450162380934,-0.012622966431081295
1732873767790613200,0.99661328125,-0.08066350966691971,0.0069825127720832825,0.019478604197502136
1732873767800608300,1.006608154296875,-0.08061663806438446,-0.003721264423802495,0.054254431277513504
1732873767810603300,1.016603271484375,-0.07471810281276703,-0.014926484785974026,0.07896115630865097
1732873767820599300,1.026599365234375,-0.07059686630964279,-0.02628220245242119,0.08856451511383057
1732873767830594300,1.03659423828125,-0.07089126855134964,-0.03921163082122803,0.09467335790395737
1732873767840589300,1.04658935546875,-0.07382766902446747,-0.06005299836397171,0.10569404810667038
1732873767850584300,1.056584228515625,-0.085628442466259,-0.07896606624126434,0.1096913293004036
1732873767860579300,1.066579345703125,-0.09863825142383575,-0.07685045152902603,0.10240305960178375
1732873767870574300,1.07657421875,-0.12236642837524414,-0.061739232391119,0.08931505680084229
1732873767880569300,1.0865693359375,-0.14136487245559692,-0.06224976107478142,0.0823650062084198
1732873767890564000,1.096564208984375,-0.16719937324523926,-0.06434260308742523,0.07595251500606537
1732873767900560100,1.10656005859375,-0.18875473737716675,-0.08055300265550613,0.04735415801405907
1732873767910555400,1.116555419921875,-0.21086716651916504,-0.08300711214542389,0.023676075041294098
1732873767920550400,1.12655029296875,-0.22566501796245575,-0.11527983099222183,-0.01067071408033371
1732873767930545400,1.13654541015625,-0.24055315554141998,-0.06826948374509811,-0.005477829836308956
1732873767940540400,1.14654052734375,-0.24407091736793518,-0.03755152225494385,0.018249869346618652
1732873767950535400,1.156535400390625,-0.2542088031768799,-0.011827460490167141,0.024353185668587685
1732873767960530200,1.1665302734375,-0.26983436942100525,-0.008455632254481316,0.011216077953577042
1732873767970525200,1.176525146484375,-0.2924448251724243,-0.026937339454889297,-0.021135345101356506
1732873767980521200,1.186521240234375,-0.31777817010879517,-0.0535375252366066,-0.07008131593465805
1732873767990516200,1.19651611328125,-0.3381195366382599,-0.07326678931713104,-0.12484315037727356
1732873768000511200,1.20651123046875,-0.34454813599586487,-0.0828871950507164,-0.17641952633857727
1732873768010506200,1.21650634765625,-0.32272884249687195,-0.07540745288133621,-0.22642797231674194
1732873768020501200,1.226501220703125,-0.28153958916664124,-0.025527510792016983,-0.27745890617370605
1732873768030496300,1.236496337890625,-0.23439256846904755,0.05240236595273018,-0.3187382221221924
1732873768040491300,1.2464912109375,-0.19714292883872986,0.14093036949634552,-0.34173622727394104
1732873768050486300,1.256486328125,-0.18308889865875244,0.21975328028202057,-0.3363683521747589
1732873768060482300,1.266482421875,-0.1762419044971466,0.3138592541217804,-0.2950533926486969
1732873768070477300,1.276477294921875,-0.16239036619663239,0.3705395758152008,-0.22388330101966858
1732873768080472300,1.286472412109375,-0.1558999866247177,0.3445172905921936,-0.13077200949192047
1732873768090467300,1.29646728515625,-0.1424855887889862,0.2938854694366455,0.012891520746052265
1732873768100462000,1.306462158203125,-0.11032818257808685,0.276064932346344,0.19019733369350433
1732873768110457000,1.31645703125,-0.07634387910366058,0.2683374881744385,0.36239150166511536
1732873768120452000,1.3264521484375,-0.048242997378110886,0.2728017568588257,0.48183107376098633
1732873768130448400,1.336448486328125,-0.02216041274368763,0.2918849289417267,0.5359267592430115
1732873768140443400,1.346443359375,0.02321532554924488,0.2849101126194,0.5373366475105286
1732873768150438400,1.3564384765625,0.05557594448328018,0.2386445552110672,0.49277764558792114
1732873768160433400,1.366433349609375,0.07627270370721817,0.20734921097755432,0.41570204496383667
1732873768170428200,1.37642822265625,0.09866642206907272,0.2131449282169342,0.3276403546333313
1732873768180423200,1.386423095703125,0.1484888345003128,0.23794056475162506,0.25748389959335327
1732873768190418200,1.396418212890625,0.1794617772102356,0.24084097146987915,0.24076053500175476
1732873768200413200,1.4064130859375,0.19198502600193024,0.2643212676048279,0.28509417176246643
1732873768210409200,1.4164091796875,0.18196125328540802,0.2528384029865265,0.3502403795719147
1732873768220404200,1.426404296875,0.14965124428272247,0.25443655252456665,0.39135825634002686
1732873768230399200,1.436399169921875,0.14943890273571014,0.2467358559370041,0.39332103729248047
1732873768240394200,1.446394287109375,0.14722901582717896,0.15197046101093292,0.38052240014076233
1732873768250389200,1.45638916015625,0.15998323261737823,0.037738241255283356,0.39954134821891785
1732873768260384300,1.46638427734375,0.1297646164894104,-0.02758137881755829,0.4018106460571289
1732873768270379300,1.476379150390625,0.1346306949853897,-0.07861468195915222,0.37597227096557617
1732873768280374300,1.486374267578125,0.11879207193851471,-0.1297585517168045,0.3680647909641266
1732873768290370300,1.496370361328125,0.09247168898582458,-0.09195338934659958,0.38643935322761536
1732873768300365300,1.506365234375,0.0865219235420227,-0.009348263032734394,0.3971899747848511
1732873768310360300,1.5163603515625,0.06311993300914764,0.04303143545985222,0.3639923632144928
1732873768320355000,1.52635498046875,0.06339450925588608,0.13405081629753113,0.32308700680732727
1732873768330350000,1.53635009765625,0.06574505567550659,0.2079368233680725,0.2734854519367218
1732873768340345000,1.546344970703125,0.0782850831747055,0.19145505130290985,0.23284189403057098
1732873768350340400,1.55634033203125,0.09924184530973434,0.14172370731830597,0.20149576663970947
1732873768360336400,1.56633642578125,0.11219971626996994,0.05659390240907669,0.14796702563762665
1732873768370331400,1.576331298828125,0.10715597867965698,-0.07432708144187927,0.07596941292285919
1732873768380326100,1.586326171875,0.09425695985555649,-0.2455747276544571,-0.020128091797232628
1732873768390321200,1.596321044921875,0.06755249202251434,-0.44440317153930664,-0.14515450596809387
1732873768400316200,1.606316162109375,-0.0022260600235313177,-0.6211107969284058,-0.30521607398986816
1732873768410311200,1.616311279296875,-0.06135290488600731,-0.662068247795105,-0.4627264142036438
1732873768420306200,1.62630615234375,-0.10698350518941879,-0.5663073658943176,-0.53062504529953
1732873768430301200,1.63630126953125,-0.10730874538421631,-0.3990383446216583,-0.4202403128147125
1732873768440297500,1.64629736328125,-0.07134488224983215,-0.27352702617645264,-0.12317214906215668
1732873768450292200,1.656292236328125,-0.022035816684365273,-0.25006672739982605,0.25045278668403625
1732873768460287200,1.666287353515625,0.03497633710503578,-0.3095462918281555,0.5248957872390747
1732873768470282200,1.6762822265625,0.06423797458410263,-0.47640982270240784,0.5781132578849792
1732873768480277200,1.68627734375,0.050320565700531006,-0.6362255811691284,0.4523579776287079
1732873768490272300,1.696272216796875,-0.008263750933110714,-0.6955722570419312,0.2110024094581604
1732873768500267300,1.706267333984375,-0.10237187892198563,-0.7097029685974121,-0.06586620211601257
1732873768510262300,1.71626220703125,-0.14897654950618744,-0.5859754681587219,-0.3360261023044586
1732873768520258300,1.72625830078125,-0.1828295886516571,-0.363303542137146,-0.5475721955299377
1732873768530253000,1.736253173828125,-0.20852085947990417,-0.14436563849449158,-0.6282358169555664
1732873768540248000,1.746248046875,-0.20656344294548035,0.016530301421880722,-0.5327801704406738
1732873768550243000,1.7562431640625,-0.19346009194850922,0.0866321474313736,-0.29938116669654846
1732873768560238300,1.76623828125,-0.19092555344104767,0.06810054183006287,-0.01033443957567215
1732873768570233300,1.7762333984375,-0.2043953537940979,-0.014146951958537102,0.24509136378765106
1732873768580228400,1.786228271484375,-0.22224199771881104,-0.1245536208152771,0.41534140706062317
1732873768590224400,1.796224365234375,-0.2434292882680893,-0.21077844500541687,0.47212421894073486
1732873768600219100,1.80621923828125,-0.2645697295665741,-0.1982131153345108,0.42721959948539734
1732873768610214100,1.816214111328125,-0.26707133650779724,-0.09197615832090378,0.3200484812259674
1732873768620209200,1.826209228515625,-0.250125914812088,0.049630504101514816,0.19320182502269745
1732873768630204200,1.8362041015625,-0.22356878221035004,0.17604508996009827,0.08260951936244965
1732873768640199200,1.84619921875,-0.2147553265094757,0.2505166530609131,0.0025295987725257874
1732873768650194200,1.856194091796875,-0.2152554988861084,0.24718496203422546,-0.026069147512316704
1732873768660190500,1.8661904296875,-0.17284253239631653,0.1912337988615036,-0.051878638565540314
1732873768670185200,1.876185302734375,-0.13785599172115326,0.11242636293172836,-0.10066179186105728
1732873768680180200,1.88618017578125,-0.13368867337703705,-0.006498957052826881,-0.15322700142860413
1732873768690175200,1.89617529296875,-0.13734562695026398,-0.142034649848938,-0.1889253705739975
1732873768700170200,1.906170166015625,-0.1488635390996933,-0.26099565625190735,-0.22103217244148254
1732873768710165200,1.916165283203125,-0.16603046655654907,-0.3234601318836212,-0.25126034021377563
1732873768720160300,1.92616015625,-0.19637931883335114,-0.32333284616470337,-0.2789979577064514
1732873768730155300,1.9361552734375,-0.22315827012062073,-0.2622540295124054,-0.2805250883102417
1732873768740151000,1.946151123046875,-0.23120154440402985,-0.1735827475786209,-0.24539850652217865
1732873768750146000,1.95614599609375,-0.22573302686214447,-0.09132817387580872,-0.1854051947593689
1732873768760141000,1.96614111328125,-0.20139174163341522,-0.02292061597108841,-0.11905334144830704
1732873768770136300,1.97613623046875,-0.16020548343658447,0.009296484291553497,-0.07332392781972885
1732873768780131300,1.98613134765625,-0.12207595258951187,0.020548872649669647,-0.054169412702322006
1732873768790126300,1.996126220703125,-0.08723212033510208,0.03098995052278042,-0.06096237152814865
1732873768800121300,2.006121337890625,-0.06671112775802612,0.03900499641895294,-0.08327753096818924
1732873768810117000,2.0161171875,-0.059959527105093,0.04629850387573242,-0.0933459997177124
1732873768820112100,2.026112060546875,-0.054016150534152985,0.03058292530477047,-0.09706270694732666
1732873768830107100,2.036107177734375,-0.04607357084751129,0.025582827627658844,-0.08677300065755844
1732873768840102100,2.04610205078125,-0.038027361035346985,0.046116333454847336,-0.07533818483352661
1732873768850097200,2.05609716796875,-0.02502083219587803,0.0677267462015152,-0.07505135238170624
1732873768860092200,2.066092041015625,-0.012591859325766563,0.0640726238489151,-0.08635034412145615
1732873768870087200,2.076087158203125,0.00015950959641486406,0.03759884834289551,-0.10369119048118591
1732873768880082200,2.086082275390625,0.011564230546355247,0.02757045067846775,-0.12214743345975876
1732873768890078200,2.096078125,0.022253738716244698,0.04126717522740364,-0.1282155066728592
1732873768900073200,2.1060732421875,0.02388439141213894,0.07011640071868896,-0.10500365495681763
1732873768910068200,2.116068115234375,0.024937842041254044,0.11238981783390045,-0.05818258225917816
1732873768920063200,2.126063232421875,0.016578977927565575,0.15428906679153442,-0.0016609840095043182
1732873768930058200,2.136058349609375,0.009493094868957996,0.17795288562774658,0.05990998446941376
1732873768940053200,2.14605322265625,-0.0032562557607889175,0.15022671222686768,0.10255225002765656
1732873768950048300,2.15604833984375,-0.027163190767169,0.14280197024345398,0.06725125759840012
1732873768960044000,2.1660439453125,-0.0786902979016304,0.20352523028850555,-0.07738421857357025
1732873768970039300,2.176039306640625,-0.1629871279001236,0.3059605062007904,-0.30536502599716187
1732873768980034300,2.186034423828125,-0.292721688747406,0.4235539734363556,-0.5670781135559082
1732873768990029300,2.196029296875,-0.49024271965026855,0.3936423659324646,-0.7744745016098022
1732873769000024300,2.2060244140625,-0.593313992023468,0.421486496925354,-0.9512439370155334
1732873769010019300,2.216019287109375,-0.6535650491714478,0.4577174186706543,-1.0556281805038452
1732873769020014300,2.226014404296875,-0.6707091331481934,0.42664310336112976,-1.0526736974716187
1732873769030009300,2.23600927734375,-0.7062065005302429,0.30039748549461365,-0.97336745262146
1732873769040005000,2.246005126953125,-0.7584007382392883,0.005910192616283894,-0.90389084815979
1732873769050000100,2.256000244140625,-0.9056771993637085,-0.3217201828956604,-0.9625915288925171
1732873769059995100,2.2659951171875,-1.0121068954467773,-0.4980158507823944,-1.181986689567566
1732873769069990100,2.275990234375,-0.9810064435005188,-0.6763799786567688,-1.351426601409912
1732873769079985200,2.285985107421875,-0.8350721597671509,-0.6658303737640381,-1.1893625259399414
1732873769089980400,2.29598046875,-0.600210964679718,-0.5092718601226807,-0.6328292489051819
1732873769099976200,2.30597607421875,-0.37271732091903687,-0.25268688797950745,0.16444768011569977
1732873769109971200,2.31597119140625,-0.2747645676136017,-0.2193804830312729,0.9743106365203857
1732873769119966200,2.32596630859375,-0.18207724392414093,-0.3002513647079468,1.5311768054962158
1732873769129961200,2.335961181640625,-0.10463965684175491,-0.3934520483016968,1.7847026586532593
1732873769139956200,2.345956298828125,-0.07496325671672821,-0.5073533058166504,1.7776135206222534
1732873769149951200,2.355951171875,-0.0781136006116867,-0.5751360654830933,1.5613020658493042
1732873769159946200,2.3659462890625,-0.1126105859875679,-0.6580285429954529,1.1952745914459229
1732873769169941200,2.375941162109375,-0.11916118860244751,-0.6651175022125244,0.7200417518615723
1732873769179937300,2.385937255859375,-0.10866673290729523,-0.6013931035995483,0.22778016328811646
1732873769189932300,2.395932373046875,-0.13407033681869507,-0.4868338108062744,-0.17790450155735016
1732873769199927300,2.40592724609375,-0.2071051448583603,-0.3037867844104767,-0.41959649324417114
1732873769209922300,2.41592236328125,-0.31399041414260864,-0.08251415938138962,-0.4782496392726898
1732873769219917300,2.425917236328125,-0.34614330530166626,0.11156503856182098,-0.3771570920944214
1732873769229912300,2.435912353515625,-0.4205789864063263,0.19596339762210846,-0.16271573305130005
1732873769239907300,2.4459072265625,-0.5138319134712219,0.2622736990451813,0.07482970505952835
1732873769249903000,2.455903076171875,-0.5645768046379089,0.32757699489593506,0.28236088156700134
1732873769259898000,2.465898193359375,-0.581379771232605,0.36894547939300537,0.4282749593257904
1732873769269893000,2.47589306640625,-0.5742421746253967,0.36296847462654114,0.4761121869087219
1732873769279888100,2.48588818359375,-0.5361906290054321,0.3106195330619812,0.4488659203052521
1732873769289883100,2.495883056640625,-0.47742384672164917,0.25659286975860596,0.40542837977409363
1732873769299878400,2.50587841796875,-0.40938088297843933,0.1944946050643921,0.3582896292209625
1732873769309873400,2.515873291015625,-0.32779932022094727,0.1264648288488388,0.3135373592376709
1732873769319869200,2.525869140625,-0.24959826469421387,0.06580813229084015,0.29892221093177795
1732873769329864200,2.5358642578125,-0.17016077041625977,0.01163746602833271,0.3174138069152832
1732873769339859200,2.545859130859375,-0.09627429395914078,-0.03501605615019798,0.34307870268821716
1732873769349854200,2.555854248046875,-0.034735675901174545,-0.09837768971920013,0.3539702892303467
1732873769359849200,2.56584912109375,0.013167135417461395,-0.18224675953388214,0.357382595539093
1732873769369844200,2.57584423828125,0.04322465881705284,-0.2589067220687866,0.3764984607696533
1732873769379839200,2.585839111328125,0.03785492852330208,-0.32717764377593994,0.3832186758518219
1732873769389835300,2.595835205078125,0.030885640531778336,-0.3304656147956848,0.3689485788345337
1732873769399830300,2.605830322265625,0.04410663619637489,-0.28562408685684204,0.3577140271663666
1732873769409825300,2.6158251953125,0.07855129987001419,-0.20538604259490967,0.35253557562828064
1732873769419820300,2.6258203125,0.1259896606206894,-0.10924272984266281,0.3596382141113281
1732873769429815300,2.635815185546875,0.19491516053676605,-0.04774606227874756,0.3907443583011627
1732873769439810800,2.645810791015625,0.2464262843132019,-0.05720267817378044,0.43636804819107056
1732873769449805800,2.655805908203125,0.29002153873443604,-0.1476997286081314,0.4757404029369354
1732873769459801600,2.665801513671875,0.31828755140304565,-0.1918187290430069,0.46178704500198364
1732873769469796900,2.675796875,0.360036164522171,0.062031663954257965,0.2515738308429718
1732873769479791900,2.6857919921875,0.4697954058647156,-0.012947242707014084,0.12893126904964447
1732873769489787000,2.695786865234375,0.3759401738643646,-0.22068655490875244,0.16466721892356873
1732873769499782000,2.705781982421875,0.3598964810371399,-0.24936720728874207,0.14678649604320526
1732873769509777000,2.71577685546875,0.3783581852912903,-0.14708030223846436,0.04288772493600845
1732873769519772000,2.72577197265625,0.37416183948516846,0.006859984248876572,-0.06028180196881294
1732873769529767700,2.735767578125,0.32906004786491394,0.1546405702829361,-0.15162017941474915
1732873769539762700,2.7457626953125,0.25770729780197144,0.19921043515205383,-0.28530633449554443
1732873769549757700,2.7557578125,0.15769179165363312,0.10606496036052704,-0.4670336842536926
1732873769559752700,2.765752685546875,0.03459808975458145,-0.050128377974033356,-0.6595847606658936
1732873769569747700,2.775747802734375,-0.09791026264429092,-0.27484625577926636,-0.8324315547943115
1732873769579743000,2.785742919921875,-0.21256041526794434,-0.45587435364723206,-0.948428213596344
1732873769589738000,2.795738037109375,-0.29020336270332336,-0.43405017256736755,-0.938427209854126
1732873769599733800,2.805733642578125,-0.27006879448890686,-0.19194859266281128,-0.7397689819335938
1732873769609728800,2.815728759765625,-0.15813198685646057,0.1484992951154709,-0.3692534565925598
1732873769619723800,2.825723876953125,-0.07527998834848404,0.4276587665081024,0.10737355798482895
1732873769629718800,2.83571875,-0.03504544496536255,0.44420894980430603,0.6079356074333191
1732873769639713800,2.8457138671875,0.0240386463701725,0.25990116596221924,0.9560189843177795
1732873769649708800,2.855708740234375,0.007022666744887829,0.06933726370334625,1.0555375814437866
1732873769659704600,2.86570458984375,0.02709544450044632,-0.12589161098003387,0.8987612128257751
1732873769669699800,2.875699951171875,0.06529618054628372,-0.29468607902526855,0.5721652507781982
1732873769679694800,2.88569482421875,0.03304583579301834,-0.45453593134880066,0.15068407356739044
1732873769689689900,2.89568994140625,-0.13107408583164215,-0.6901521682739258,-0.27934762835502625
1732873769699684900,2.905684814453125,-0.20391419529914856,-0.789662778377533,-0.6588385105133057
1732873769709679900,2.915679931640625,-0.22710561752319336,-0.6887968182563782,-0.962408185005188
1732873769719675000,2.9256748046875,-0.23519763350486755,-0.48686742782592773,-1.1199547052383423
1732873769729670700,2.935670654296875,-0.2279628962278366,-0.24420739710330963,-1.0481425523757935
1732873769739665700,2.945665771484375,-0.2438686192035675,-0.014943315647542477,-0.7506415843963623
1732873769749660700,2.95566064453125,-0.33133354783058167,0.1566074937582016,-0.3592952489852905
1732873769759655700,2.96565576171875,-0.3452778458595276,0.23657023906707764,-0.004663118161261082
1732873769769650700,2.975650634765625,-0.34806621074676514,0.21017393469810486,0.21594277024269104
1732873769779645700,2.985645751953125,-0.3656417429447174,0.1522216796875,0.3160177171230316
1732873769789642000,2.99564208984375,-0.32422199845314026,0.14825975894927979,0.3259213864803314
1732873769799636700,3.00563671875,-0.21105550229549408,0.14860276877880096,0.23507510125637054
1732873769809631700,3.0156318359375,-0.0485738180577755,0.21858333051204681,0.120032899081707
1732873769819626800,3.025626708984375,0.1223348081111908,0.31388401985168457,0.04843568429350853
1732873769829621800,3.035621826171875,0.2956773340702057,0.38881081342697144,0.025737538933753967
1732873769839616800,3.04561669921875,0.4526139497756958,0.4057498574256897,0.025967903435230255
1732873769849611800,3.05561181640625,0.5677668452262878,0.3670130968093872,0.06080714985728264
1732873769859607800,3.06560791015625,0.6099464893341064,0.25270676612854004,0.10599806159734726
1732873769869602600,3.0756025390625,0.5805927515029907,0.09302190691232681,0.13170108199119568
1732873769879597800,3.085597900390625,0.4598487615585327,-0.044399868696928024,0.11573862284421921
1732873769889592800,3.0955927734375,0.3020091950893402,-0.12242243438959122,0.05419064313173294
1732873769899587800,3.105587890625,0.11958400160074234,-0.17487658560276031,-0.06320735812187195
1732873769909582800,3.115582763671875,0.03371133282780647,-0.18941329419612885,-0.19062091410160065
1732873769919579000,3.125578857421875,0.008699722588062286,-0.16632476449012756,-0.2741062343120575
1732873769929574000,3.135573974609375,0.0007673397194594145,-0.09917905181646347,-0.2638552486896515
1732873769939568600,3.145568603515625,0.019961806014180183,-0.014325674623250961,-0.11471182852983475
1732873769949563600,3.155563720703125,0.15328846871852875,0.12526240944862366,0.11042512208223343
1732873769959558700,3.16555859375,0.2655779719352722,0.307768315076828,0.38526469469070435
1732873769969553700,3.1755537109375,0.33032047748565674,0.5956287384033203,0.6800089478492737
1732873769979548700,3.185548583984375,0.32221460342407227,0.8804972171783447,0.9359206557273865
1732873769989545000,3.195544921875,0.17440612614154816,0.9677410125732422,1.0258580446243286
1732873769999540000,3.2055400390625,-0.04938302934169769,0.9625204205513,0.8911961317062378
1732873770009534700,3.21553466796875,-0.2025824934244156,0.8498367667198181,0.5933656096458435
1732873770019529700,3.22552978515625,-0.3155180811882019,0.6482261419296265,0.2506863474845886
1732873770029524700,3.235524658203125,-0.2627272605895996,0.3786409795284271,-0.08270137012004852
1732873770039519700,3.245519775390625,-0.2543705105781555,0.4253008961677551,-0.47510164976119995
1732873770049515800,3.255515869140625,-0.26747995615005493,0.1303354650735855,-0.7499266862869263
1732873770059510800,3.2655107421875,-0.31352975964546204,-0.21963000297546387,-0.8679102659225464
1732873770069505800,3.275505859375,-0.24585680663585663,-0.5206969976425171,-0.9426066279411316
1732873770079500800,3.285500732421875,-0.2545059621334076,-0.7843899130821228,-1.0212047100067139
1732873770089495800,3.295495849609375,-0.36154574155807495,-1.021889567375183,-1.0206117630004883
1732873770099490800,3.30549072265625,-0.5264619588851929,-1.2356269359588623,-0.9622195363044739
1732873770109485800,3.31548583984375,-0.6645069718360901,-1.321588397026062,-0.8147270083427429
1732873770119481900,3.32548193359375,-0.7216200232505798,-1.1950205564498901,-0.5229678153991699
1732873770129476900,3.335476806640625,-0.664190411567688,-0.8625690340995789,-0.09766922891139984
1732873770139472000,3.345471923828125,-0.5388002395629883,-0.4063809812068939,0.36426058411598206
1732873770149467000,3.355466796875,-0.36478906869888306,-0.015196943655610085,0.7020341157913208
1732873770159461600,3.365461669921875,-0.2102666050195694,0.21688424050807953,0.8392236828804016
1732873770169456600,3.37545654296875,-0.0965484008193016,0.3649466931819916,0.7937582731246948
1732873770179453000,3.385452880859375,-0.03205382451415062,0.367786705493927,0.5990055799484253
1732873770189448000,3.395447998046875,-0.030549734830856323,0.2654413878917694,0.26162979006767273
1732873770199443000,3.40544287109375,-0.05748867616057396,0.05507482588291168,-0.15032179653644562
1732873770209438000,3.41543798828125,-0.16810837388038635,-0.196232408285141,-0.5527172088623047
1732873770219432700,3.4254326171875,-0.26394781470298767,-0.3844859302043915,-0.8353619575500488
1732873770229427700,3.435427734375,-0.308914452791214,-0.4501831531524658,-0.935278594493866
1732873770239423700,3.445423828125,-0.3232848644256592,-0.4382268786430359,-0.8304949402809143
1732873770249418800,3.455418701171875,-0.320387601852417,-0.3614010810852051,-0.5263693928718567
1732873770259413800,3.465413818359375,-0.29671797156333923,-0.2554032802581787,-0.11784473061561584
1732873770269408800,3.47540869140625,-0.27802273631095886,-0.15462768077850342,0.251095712184906
1732873770279403800,3.48540380859375,-0.27302026748657227,-0.08211860060691833,0.45918285846710205
1732873770289398800,3.495398681640625,-0.2491980493068695,0.02739531546831131,0.4910075068473816
1732873770299394800,3.505394775390625,-0.2003953605890274,0.11086810380220413,0.3938383460044861
1732873770309389800,3.515389892578125,-0.16025634109973907,0.15436971187591553,0.25053492188453674
1732873770319384800,3.525384765625,-0.12293879687786102,0.15112625062465668,0.12390880286693573
1732873770329379800,3.5353798828125,-0.061833370476961136,0.1052226722240448,0.04085226356983185
1732873770339374800,3.545374755859375,0.014394288882613182,0.03795734792947769,-0.0021474002860486507
1732873770349369900,3.555369873046875,0.08901949971914291,-0.029847199097275734,-0.01186311338096857
1732873770359364900,3.56536474609375,0.14466729760169983,-0.09175557643175125,-0.00854907650500536
1732873770369360600,3.575360595703125,0.19282469153404236,-0.15963643789291382,-0.012370036914944649
1732873770379356000,3.58535595703125,0.22495944797992706,-0.2133721113204956,-0.03287744149565697
1732873770389351000,3.595350830078125,0.2524360716342926,-0.24231895804405212,-0.06209898367524147
1732873770399346000,3.605345947265625,0.2881709039211273,-0.27445346117019653,-0.09425878524780273
1732873770409341000,3.6153408203125,0.4031013548374176,-0.22226975858211517,-0.12737417221069336
1732873770419336000,3.6253359375,0.49553993344306946,-0.13113345205783844,-0.18290135264396667
1732873770429331700,3.635331787109375,0.5900396108627319,0.038907893002033234,-0.24959973990917206
1732873770439326200,3.645326171875,0.6416034698486328,0.2636374235153198,-0.34447193145751953
1732873770449321200,3.6553212890625,0.6210756897926331,0.2587333023548126,-0.5379998683929443
1732873770459316200,3.665316162109375,0.5322776436805725,-0.07449154555797577,-0.6269569396972656
1732873770469311200,3.675311279296875,0.5115159153938293,-0.1437254697084427,-0.4837060570716858
1732873770479306200,3.68530615234375,0.602634608745575,-0.13899782299995422,-0.2365409880876541
1732873770489302300,3.69530224609375,0.7334455847740173,-0.13402360677719116,-0.014233443886041641
1732873770499297300,3.70529736328125,0.8530536890029907,-0.12339440733194351,0.1596086472272873
1732873770509292300,3.715292236328125,0.9753188490867615,-0.1069846823811531,0.3309957683086395
1732873770519287300,3.725287353515625,1.1124231815338135,-0.03610758110880852,0.5259972214698792
1732873770529282300,3.7352822265625,1.2381255626678467,0.06909450143575668,0.6904925107955933
1732873770539277300,3.74527734375,1.3090524673461914,0.12137261778116226,0.7686381936073303
1732873770549273300,3.7552734375,1.2968649864196777,0.11092127859592438,0.7181895971298218
1732873770559268400,3.765268310546875,1.1782573461532593,0.15552257001399994,0.41204968094825745
1732873770569263000,3.77526318359375,1.0381332635879517,0.26380398869514465,-0.15559735894203186
1732873770579258000,3.785258056640625,0.8841099143028259,0.33914268016815186,-0.8206528425216675
1732873770589253000,3.795253173828125,0.7799534201622009,0.3563491404056549,-1.36362886428833
1732873770599248400,3.805248291015625,0.7735453248023987,0.31856369972229004,-1.548560380935669
1732873770609244400,3.815244384765625,0.7846632599830627,0.20959438383579254,-1.3037747144699097
1732873770619239400,3.825239501953125,0.7938607335090637,0.05762988328933716,-0.7395609617233276
1732873770629234400,3.835234375,0.8043503165245056,-0.048089176416397095,-0.11183440685272217
1732873770639229200,3.845229248046875,0.7981656193733215,0.03634368255734444,0.38585421442985535
1732873770649224200,3.85522412109375,0.7747272849082947,0.21706070005893707,0.6623721718788147
1732873770659219200,3.86521923828125,0.7116639018058777,0.2937176525592804,0.6213650703430176
1732873770669215200,3.87521533203125,0.6162987947463989,0.3627191185951233,0.36281540989875793
1732873770679210200,3.885210205078125,0.5380548238754272,0.3916298449039459,0.029822275042533875
1732873770689205500,3.89520556640625,0.4927983582019806,0.35576361417770386,-0.25446099042892456
1732873770699200500,3.905200439453125,0.46452757716178894,0.26918983459472656,-0.42957767844200134
1732873770709195300,3.9151953125,0.43773752450942993,0.16856138408184052,-0.49211323261260986
1732873770719190300,3.925190185546875,0.412440687417984,0.08480282127857208,-0.44000130891799927
1732873770729186300,3.935186279296875,0.39514994621276855,0.05914735421538353,-0.30207955837249756
1732873770739181300,3.945181396484375,0.40590938925743103,0.10202664881944656,-0.10293928533792496
1732873770749176300,3.95517626953125,0.4347059726715088,0.1977841854095459,0.11430788785219193
1732873770759171300,3.96517138671875,0.45560115575790405,0.28024017810821533,0.3100251853466034
1732873770769166300,3.975166259765625,0.4612671434879303,0.3131633400917053,0.44423434138298035
1732873770779161000,3.9851611328125,0.4464453160762787,0.3100506365299225,0.5097388029098511
1732873770789157400,3.995157470703125,0.4175587296485901,0.2821889817714691,0.5198855996131897
1732873770799152400,4.00515234375,0.3792446553707123,0.22221647202968597,0.4713902175426483
1732873770809147400,4.0151474609375,0.33885079622268677,0.14158222079277039,0.38230061531066895
1732873770819142400,4.025142333984375,0.3050802946090698,0.06517532467842102,0.2791704833507538
1732873770829137400,4.035137451171875,0.2722319960594177,0.013923447579145432,0.1778070330619812
1732873770839132400,4.04513232421875,0.23643912374973297,0.00034505315124988556,0.08472981303930283
1732873770849128200,4.055128173828125,0.19861531257629395,0.006427713204175234,0.0014703471679240465
1732873770859123200,4.065123291015625,0.15377673506736755,0.013265378773212433,-0.059095799922943115
1732873770869118200,4.0751181640625,0.10166095197200775,0.013192173093557358,-0.08876654505729675
1732873770879113200,4.08511328125,0.04822356626391411,-0.01309056393802166,-0.09447450190782547
1732873770889108200,4.095108154296875,-0.004589055199176073,-0.060945555567741394,-0.10274015367031097
1732873770899103500,4.105103515625,-0.05401413142681122,-0.12458845227956772,-0.14456455409526825
1732873770909099300,4.115099365234375,-0.10939081013202667,-0.20776046812534332,-0.2476472705602646
1732873770919094300,4.12509423828125,-0.17346352338790894,-0.29776227474212646,-0.38534310460090637
1732873770929089300,4.13508935546875,-0.24592064321041107,-0.3750704228878021,-0.5354150533676147
1732873770939084300,4.145084228515625,-0.3174539804458618,-0.4199334979057312,-0.6712325215339661
1732873770949079300,4.155079345703125,-0.37306585907936096,-0.40927428007125854,-0.7738122940063477
1732873770959075300,4.165075439453125,-0.40136808156967163,-0.33742696046829224,-0.8342005610466003
1732873770969070000,4.175070068359375,-0.4168090224266052,-0.23553496599197388,-0.8622664213180542
1732873770979065000,4.185065185546875,-0.4322545528411865,-0.1351625621318817,-0.8905404210090637
1732873770989060400,4.195060302734375,-0.469700425863266,-0.06799565255641937,-0.9210989475250244
1732873770999055400,4.205055419921875,-0.5398704409599304,-0.022649478167295456,-0.9388595819473267
1732873771009050400,4.21505029296875,-0.6127886772155762,0.046208444982767105,-0.8695470690727234
1732873771019046400,4.22504638671875,-0.6193858981132507,0.1900750696659088,-0.6340240240097046
1732873771029041400,4.23504150390625,-0.5643120408058167,0.3631977140903473,-0.20757944881916046
1732873771039036200,4.2450361328125,-0.4653623402118683,0.4822535216808319,0.34705448150634766
1732873771049031200,4.25503125,-0.3605833947658539,0.5402805805206299,0.8361162543296814
1732873771059026200,4.265026123046875,-0.2787170112133026,0.5102529525756836,1.1353198289871216
1732873771069021200,4.275021240234375,-0.23808325827121735,0.4554775357246399,1.1709394454956055
1732873771079017500,4.285017578125,-0.21806800365447998,0.4026510715484619,0.9744529724121094
1732873771089012500,4.295012451171875,-0.20809867978096008,0.3476963937282562,0.5883354544639587
1732873771099007500,4.305007568359375,-0.19586384296417236,0.27556440234184265,0.0953233540058136
1732873771109002200,4.315002197265625,-0.1559666395187378,0.21907642483711243,-0.4168481230735779
1732873771118997200,4.324997314453125,-0.09470833092927933,0.15729428827762604,-0.7961600422859192
1732873771128992300,4.3349921875,0.015416733920574188,0.12198638170957565,-0.9338326454162598
1732873771138988300,4.34498828125,0.16735592484474182,0.09927148371934891,-0.8527185916900635
1732873771148983300,4.3549833984375,0.3400399386882782,0.09823225438594818,-0.6300307512283325
1732873771158978300,4.364978271484375,0.507599413394928,0.1040952056646347,-0.37231025099754333
1732873771168973300,4.374973388671875,0.6475244760513306,0.1279522031545639,-0.1829390674829483
1732873771178968000,4.384968017578125,0.7218753695487976,0.1435098499059677,-0.10318858921527863
1732873771188963000,4.394963134765625,0.7408058643341064,0.12815311551094055,-0.0817493125796318
1732873771198959400,4.40495947265625,0.7053107023239136,0.15241104364395142,-0.060963600873947144
1732873771208954400,4.414954345703125,0.6608121395111084,0.16841214895248413,-0.026948321610689163
1732873771218949400,4.424949462890625,0.605182945728302,0.18510884046554565,0.03238104656338692
1732873771228944400,4.4349443359375,0.5420487523078918,0.15319085121154785,0.11017677932977676
1732873771238939400,4.444939453125,0.507300078868866,0.06969621777534485,0.18459509313106537
1732873771248935200,4.45493505859375,0.49976909160614014,-0.024632882326841354,0.25758397579193115
1732873771258930200,4.46493017578125,0.516356348991394,-0.10285764187574387,0.3319162428379059
1732873771268925200,4.47492529296875,0.5439245700836182,-0.16282270848751068,0.3846937119960785
1732873771278920200,4.484920166015625,0.5468314290046692,-0.21322542428970337,0.42229515314102173
1732873771288915500,4.49491552734375,0.509218156337738,-0.25150033831596375,0.43513113260269165
1732873771298910500,4.504910400390625,0.4292285144329071,-0.2683703899383545,0.4154972434043884
1732873771308906200,4.51490625,0.3110129237174988,-0.2573246955871582,0.4153749644756317
1732873771318901200,4.5249013671875,0.1934567540884018,-0.1640259027481079,0.491561621427536
1732873771328896300,4.534896240234375,0.07407023012638092,-0.006886285729706287,0.5716758370399475
1732873771338891300,4.544891357421875,-0.04079190641641617,0.08587667346000671,0.631328821182251
1732873771348886300,4.55488623046875,-0.14393854141235352,0.11241321265697479,0.7042689919471741
1732873771358881300,4.56488134765625,-0.283066064119339,0.045498888939619064,0.8271975517272949
1732873771368877000,4.574876953125,-0.34546101093292236,-0.11862663924694061,0.9699664115905762
1732873771378872300,4.584872314453125,-0.33672958612442017,-0.2604852318763733,1.07587730884552
1732873771388867300,4.594867431640625,-0.22878392040729523,-0.287350058555603,1.1279535293579102
1732873771398862300,4.6048623046875,-0.08115663379430771,-0.2560131549835205,1.1105161905288696
1732873771408857300,4.614857421875,0.0907876044511795,-0.20146629214286804,0.9890806078910828
1732873771418852400,4.624852294921875,0.19281011819839478,-0.05041687190532684,0.7282599210739136
1732873771428848400,4.634848388671875,0.15175190567970276,0.27321043610572815,0.3701161742210388
1732873771438844000,4.644843994140625,0.05488688126206398,0.4960227310657501,-0.054104097187519073
1732873771448839000,4.6548388671875,-0.16158390045166016,0.714611291885376,-0.40103593468666077
1732873771458834000,4.664833984375,-0.14866970479488373,0.6449688076972961,-0.5469817519187927
1732873771468829000,4.674828857421875,-0.031142128631472588,0.48455747961997986,-0.5130335092544556
1732873771478825000,4.684824951171875,0.23889175057411194,0.25470882654190063,-0.30469629168510437
1732873771488819700,4.69481982421875,0.5757321715354919,-0.00847033690661192,0.008594311773777008
1732873771498814700,4.704814697265625,0.6386309862136841,-0.0405542366206646,0.23821845650672913
1732873771508809700,4.714809814453125,0.5651475787162781,0.01563650742173195,0.33739545941352844
1732873771518805000,4.724804931640625,0.4520953297615051,0.039147160947322845,0.3015096187591553
1732873771528800000,4.734800048828125,0.3247644305229187,0.1305326521396637,0.17571045458316803
1732873771538796000,4.744796142578125,0.20127499103546143,0.2806382477283478,0.013000104576349258
1732873771548791000,4.754791015625,0.11577161401510239,0.44097375869750977,-0.1646861881017685
1732873771558785800,4.764785888671875,0.07440633326768875,0.5416734218597412,-0.31945231556892395
1732873771568780800,4.77478076171875,0.07233456522226334,0.5525547862052917,-0.42233777046203613
1732873771578775800,4.78477587890625,0.1003614068031311,0.4742570221424103,-0.4472769498825073
1732873771588770800,4.794770751953125,0.14944887161254883,0.35420718789100647,-0.37664663791656494
1732873771598766800,4.804766845703125,0.20554222166538239,0.22380365431308746,-0.2507163882255554
1732873771608762000,4.81476220703125,0.2549515664577484,0.12006103247404099,-0.1006469801068306
1732873771618757000,4.824757080078125,0.2911956012248993,0.08180339634418488,0.02786998078227043
1732873771628752000,4.834751953125,0.30943867564201355,0.08230394870042801,0.10755260288715363
1732873771638747000,4.844746826171875,0.31915149092674255,0.0864960327744484,0.13198630511760712
1732873771648743000,4.854742919921875,0.3220064043998718,0.07016419619321823,0.11810138821601868
1732873771658738000,4.864738037109375,0.319490522146225,0.03244984522461891,0.07854438573122025
1732873771668733000,4.87473291015625,0.30896440148353577,-0.014537017792463303,0.03915807977318764
1732873771678728000,4.88472802734375,0.29207515716552734,-0.03739386424422264,0.006547672674059868
1732873771688723000,4.894722900390625,0.27714186906814575,-0.031468894332647324,-0.02895510010421276
1732873771698718000,4.904718017578125,0.27569976449012756,-0.004820503294467926,-0.056905776262283325
1732873771708714000,4.9147138671875,0.2756370007991791,0.006505683530122042,-0.0676235780119896
1732873771718709000,4.924708984375,0.27241402864456177,0.009202932938933372,-0.06766991317272186
1732873771728704000,4.9347041015625,0.2704907953739166,0.011819960549473763,-0.06579086184501648
1732873771738699000,4.944698974609375,0.24955172836780548,-0.019438093528151512,-0.07107590138912201
1732873771748694000,4.954694091796875,0.2105080634355545,-0.079939104616642,-0.08076149970293045
1732873771758689800,4.964689697265625,0.16740746796131134,-0.10361753404140472,-0.1116722822189331
1732873771768684800,4.974684814453125,0.12959973514080048,-0.08942422270774841,-0.16892921924591064
1732873771778679800,4.9846796875,0.0976915955543518,-0.06496335566043854,-0.23528480529785156
1732873771788674800,4.9946748046875,0.06990636885166168,-0.03442630544304848,-0.27911075949668884
1732873771798669800,5.004669921875,0.04592646285891533,-0.002610051305964589,-0.2835310697555542
1732873771808664800,5.014664794921875,0.02751944400370121,0.03070869669318199,-0.24850793182849884
1732873771818660900,5.024660888671875,0.018815968185663223,0.05868014320731163,-0.177961066365242
1732873771828655900,5.03465576171875,0.012457347474992275,0.09057478606700897,-0.09232588857412338
1732873771838651000,5.04465087890625,0.011359591968357563,0.12759777903556824,-0.012454232200980186
1732873771848646000,5.05464599609375,0.011962872929871082,0.1351255178451538,0.04486335813999176
1732873771858641000,5.064640869140625,0.023377448320388794,0.11547750234603882,0.0641758069396019
1732873771868637000,5.074636962890625,0.03349725529551506,0.1055479347705841,0.02536896802484989
1732873771878632000,5.0846318359375,0.06118001788854599,0.1277049034833908,-0.0466756671667099
1732873771888626700,5.094626708984375,0.09671790152788162,0.17142143845558167,-0.11798518151044846
1732873771898621700,5.10462158203125,0.13749940693378448,0.22171522676944733,-0.17363326251506805
1732873771908617000,5.114616943359375,0.15793092548847198,0.24752753973007202,-0.18728356063365936
1732873771918612000,5.124612060546875,0.1700533628463745,0.19769872725009918,-0.1417485624551773
1732873771928608000,5.13460791015625,0.17972533404827118,0.10411630570888519,-0.05440589785575867
1732873771938603000,5.14460302734375,0.17805179953575134,-0.0038873921148478985,0.07255604863166809
1732873771948598000,5.154597900390625,0.16966843605041504,-0.103677898645401,0.21192485094070435
1732873771958592800,5.1645927734375,0.15300796926021576,-0.17211981117725372,0.3406903147697449
1732873771968587800,5.174587890625,0.14276407659053802,-0.1975518763065338,0.4103606045246124
1732873771978583800,5.184583740234375,0.13286511600017548,-0.1752164661884308,0.4169040024280548
1732873771988578800,5.194578857421875,0.11875785142183304,-0.12849749624729156,0.3803141415119171
1732873771998574000,5.204573974609375,0.10827911645174026,-0.08351483941078186,0.32796838879585266
1732873772008569000,5.214569091796875,0.10462334752082825,-0.06369752436876297,0.25911569595336914
1732873772018564000,5.224564208984375,0.09524662047624588,-0.07604313641786575,0.1780346930027008
1732873772028560000,5.234559814453125,0.07263229787349701,-0.10450433939695358,0.09282822161912918
1732873772038555000,5.244554931640625,0.05123300105333328,-0.1399344950914383,0.01651667430996895
1732873772048550000,5.2545498046875,0.03946108743548393,-0.16687433421611786,-0.027054669335484505
1732873772058545000,5.264544921875,0.029296068474650383,-0.1673571616411209,-0.029771625995635986
1732873772068540000,5.274539794921875,0.024854497984051704,-0.16105979681015015,0.01614857092499733
1732873772078535000,5.284534912109375,0.01144175324589014,-0.13353708386421204,0.08618465065956116
1732873772088531000,5.294531005859375,-0.006112491711974144,-0.0982658788561821,0.15284065902233124
1732873772098526000,5.30452587890625,-0.027838293462991714,-0.08247973024845123,0.19522060453891754
1732873772108521000,5.31452099609375,-0.052055474370718,-0.08265351504087448,0.2103007435798645
1732873772118516000,5.324515869140625,-0.07035884261131287,-0.07115504890680313,0.21085894107818604
1732873772128511000,5.334510986328125,-0.08714234083890915,-0.05124620720744133,0.19055207073688507
1732873772138507000,5.344507080078125,-0.10134631395339966,-0.05704177916049957,0.139394611120224
1732873772148501800,5.354501708984375,-0.1299186497926712,-0.07394101470708847,0.0671357661485672
1732873772158496800,5.364496826171875,-0.16554880142211914,-0.11214964836835861,-0.01871548779308796
1732873772168491800,5.37449169921875,-0.20793068408966064,-0.17195472121238708,-0.09282204508781433
1732873772178486800,5.38448681640625,-0.2521441876888275,-0.20794041454792023,-0.14077547192573547
1732873772188481800,5.394481689453125,-0.29239413142204285,-0.21204331517219543,-0.17684373259544373
1732873772198478000,5.40447802734375,-0.3296040892601013,-0.18674248456954956,-0.211062952876091
1732873772208473000,5.41447314453125,-0.3666076958179474,-0.16513659060001373,-0.2540073096752167
1732873772218467800,5.4244677734375,-0.3993033468723297,-0.14445580542087555,-0.29928267002105713
1732873772228462800,5.434462890625,-0.42931661009788513,-0.12904131412506104,-0.35196200013160706
1732873772238457900,5.444457763671875,-0.45207810401916504,-0.11141545325517654,-0.39095252752304077
1732873772248454000,5.454453857421875,-0.47584396600723267,-0.09438829123973846,-0.42621755599975586
1732873772258449000,5.464448974609375,-0.4986664652824402,-0.11040933430194855,-0.45978909730911255
1732873772268444000,5.47444384765625,-0.5145469903945923,-0.1377551108598709,-0.4887779653072357
1732873772278439000,5.48443896484375,-0.5206360220909119,-0.14163774251937866,-0.5157009363174438
1732873772288434000,5.494433837890625,-0.5327447056770325,-0.13111792504787445,-0.5554714798927307
1732873772298430000,5.504429931640625,-0.5481609106063843,-0.11723912507295609,-0.5965315699577332
1732873772308425000,5.514425048828125,-0.5718642473220825,-0.09114692360162735,-0.608790934085846
1732873772318420000,5.524419921875,-0.5933655500411987,-0.0527753010392189,-0.5719884634017944
1732873772328415000,5.5344150390625,-0.6041769981384277,-0.004777833819389343,-0.5036712884902954
1732873772338410000,5.544409912109375,-0.6116032004356384,0.027517519891262054,-0.4296303391456604
1732873772348405800,5.55440576171875,-0.6104419827461243,0.04846946522593498,-0.37260082364082336
1732873772358400800,5.56440087890625,-0.605009913444519,0.05708026513457298,-0.3321191668510437
1732873772368395800,5.574395751953125,-0.5873269438743591,0.06191340088844299,-0.28746265172958374
1732873772378391000,5.58439111328125,-0.5674302577972412,0.060483284294605255,-0.22998763620853424
1732873772388386000,5.594385986328125,-0.5430945158004761,0.05717185139656067,-0.14508302509784698
1732873772398381000,5.604381103515625,-0.5025463104248047,0.05127907544374466,-0.04270977899432182
1732873772408376800,5.614376953125,-0.4429720938205719,0.057762034237384796,0.05849070101976395
1732873772418371800,5.624371826171875,-0.3739272654056549,0.07585475593805313,0.14451852440834045
1732873772428366800,5.634366943359375,-0.3069722056388855,0.09601304680109024,0.18743646144866943
1732873772438361000,5.644361083984375,-0.2229212373495102,0.1227613091468811,0.17782670259475708
1732873772448356000,5.654356201171875,-0.13529205322265625,0.15377354621887207,0.12357290089130402
1732873772458352400,5.664352294921875,-0.04972068592905998,0.16479769349098206,0.056116361171007156
1732873772468347400,5.674347412109375,0.023275144398212433,0.14287202060222626,0.008545294404029846
1732873772478342400,5.68434228515625,0.08067851513624191,0.09953226894140244,-0.006146300584077835
1732873772488337200,5.694337158203125,0.13470704853534698,0.046198055148124695,-0.0057921865954995155
1732873772498332200,5.704332275390625,0.18482108414173126,0.02787657454609871,0.039378754794597626
1732873772508328200,5.714328125,0.229563906788826,0.05534503981471062,0.12490930408239365
1732873772518323200,5.7243232421875,0.28024330735206604,0.11132735013961792,0.24295684695243835
1732873772528318200,5.734318115234375,0.33157098293304443,0.17571136355400085,0.37314972281455994
1732873772538313200,5.744313232421875,0.37492111325263977,0.24313993752002716,0.496428519487381
1732873772548308200,5.75430810546875,0.3987743556499481,0.2931171953678131,0.6050827503204346
1732873772558303200,5.76430322265625,0.3994351029396057,0.33794966340065,0.6810126900672913
1732873772568299300,5.77429931640625,0.39073309302330017,0.3796694576740265,0.7125405669212341
1732873772578294300,5.784294189453125,0.3748942017555237,0.41424262523651123,0.6923969984054565
1732873772588289300,5.794289306640625,0.3391679525375366,0.4357337951660156,0.6089426875114441
1732873772598284300,5.8042841796875,0.2773381471633911,0.43212494254112244,0.4736926853656769
1732873772608279300,5.814279296875,0.21232596039772034,0.4102417528629303,0.3215944468975067
1732873772618275000,5.824275146484375,0.16608868539333344,0.3962007761001587,0.18513460457324982
1732873772628270000,5.83427001953125,0.15194542706012726,0.4046197235584259,0.09522070735692978
1732873772638265000,5.84426513671875,0.1614377349615097,0.4074128270149231,0.057894907891750336
1732873772648260400,5.85426025390625,0.1816861629486084,0.3890394866466522,0.05198846757411957
1732873772658255400,5.86425537109375,0.21192555129528046,0.3492307960987091,0.0868990421295166
1732873772668251400,5.87425146484375,0.2418173849582672,0.305700421333313,0.1584147959947586
1732873772678246100,5.88424609375,0.2588600218296051,0.26586538553237915,0.2474818229675293
1732873772688241200,5.8942412109375,0.26309242844581604,0.19541899859905243,0.32015302777290344
1732873772698236200,5.904236083984375,0.26304981112480164,0.11073792725801468,0.33349519968032837
1732873772708231200,5.914231201171875,0.2619616389274597,0.013335773721337318,0.2746529281139374
1732873772718227200,5.924227294921875,0.2824200391769409,-0.08836901187896729,0.17346373200416565
1732873772728222200,5.93422216796875,0.3317492604255676,-0.17396093904972076,0.06829387694597244
1732873772738217500,5.944217529296875,0.39920714497566223,-0.21287904679775238,-0.007953224703669548
1732873772748212200,5.954212158203125,0.4809662997722626,-0.20687922835350037,-0.06980492919683456
1732873772758207200,5.964207275390625,0.5709151029586792,-0.1700304001569748,-0.13634027540683746
1732873772768202200,5.9742021484375,0.6501535177230835,-0.11116147041320801,-0.22488906979560852
1732873772778198300,5.9841982421875,0.7035035490989685,-0.07267320156097412,-0.344694584608078
1732873772788193300,5.994193359375,0.7324845790863037,-0.1093379482626915,-0.42980557680130005
1732873772798188300,6.004188232421875,0.7486150860786438,-0.20270304381847382,-0.4538256824016571
1732873772808183300,6.014183349609375,0.7645226120948792,-0.3314664363861084,-0.40885183215141296
1732873772818178300,6.02417822265625,0.7989892363548279,-0.4809209108352661,-0.30877208709716797
1732873772828174300,6.03417431640625,0.8319870829582214,-0.6332644820213318,-0.17244072258472443
1732873772838169300,6.04416943359375,0.8352124094963074,-0.7477537393569946,-0.032808512449264526
1732873772848164400,6.054164306640625,0.7982451319694519,-0.808122992515564,0.043160680681467056
1732873772858159400,6.064159423828125,0.7264886498451233,-0.8199032545089722,0.0194028839468956
1732873772868154400,6.074154296875,0.626358151435852,-0.7709906697273254,-0.1174149364233017
1732873772878150100,6.084150146484375,0.4561656415462494,-0.6281842589378357,-0.43310311436653137
1732873772888145200,6.094145263671875,0.2377195954322815,-0.3843410313129425,-0.9149366021156311
1732873772898140200,6.10414013671875,0.011660092510282993,-0.11054089665412903,-1.413860559463501
1732873772908135200,6.11413525390625,-0.18968750536441803,0.12275855988264084,-1.7051304578781128
1732873772918130200,6.124130126953125,-0.3293495178222656,0.26898154616355896,-1.667899489402771
1732873772928126200,6.134126220703125,-0.3853480815887451,0.31482014060020447,-1.2921439409255981
1732873772938121200,6.144121337890625,-0.3876088559627533,0.30333951115608215,-0.6637397408485413
1732873772948116200,6.1541162109375,-0.36297807097435,0.2594730257987976,0.02510898932814598
1732873772958111200,6.164111328125,-0.3392799496650696,0.19186708331108093,0.5603106617927551
1732873772968106200,6.174106201171875,-0.3337711691856384,0.13013844192028046,0.8432222008705139
1732873772978102300,6.184102294921875,-0.3270653486251831,0.11133439838886261,0.9241091012954712
1732873772988097300,6.19409716796875,-0.3200860023498535,0.13185830414295197,0.8741253018379211
1732873772998092300,6.20409228515625,-0.31407150626182556,0.16182951629161835,0.7378721237182617
1732873773008087000,6.214087158203125,-0.29427769780158997,0.17981967329978943,0.5501924157142639
1732873773018082000,6.22408203125,-0.2673078775405884,0.1878317892551422,0.3336145579814911
1732873773028078300,6.234078369140625,-0.23639173805713654,0.1715955138206482,0.1174008846282959
1732873773038073300,6.2440732421875,-0.21545423567295074,0.1411135047674179,-0.0681932121515274
1732873773048068400,6.254068359375,-0.1932355761528015,0.10272166877985,-0.2013741135597229
1732873773058063400,6.2640634765625,-0.17522010207176208,0.09130789339542389,-0.28680220246315
1732873773068058400,6.274058349609375,-0.15441203117370605,0.08884595334529877,-0.30778804421424866
1732873773078054100,6.28405419921875,-0.13229048252105713,0.0876840129494667,-0.27242738008499146
1732873773088049200,6.294049072265625,-0.11571971327066422,0.10030212998390198,-0.20332065224647522
1732873773098044200,6.304044189453125,-0.11183442920446396,0.1179458349943161,-0.1294616013765335
1732873773108039200,6.3140390625,-0.12130305916070938,0.1281665414571762,-0.06093659624457359
1732873773118034400,6.324034423828125,-0.13764101266860962,0.13070613145828247,0.0018666023388504982
1732873773128030200,6.3340302734375,-0.15604308247566223,0.13238295912742615,0.050032470375299454
1732873773138025200,6.344025146484375,-0.169213205575943,0.13475370407104492,0.08771033585071564
1732873773148020200,6.354020263671875,-0.1802390217781067,0.13376003503799438,0.13503383100032806
1732873773158015200,6.36401513671875,-0.19305388629436493,0.1360948383808136,0.183365136384964
1732873773168010200,6.37401025390625,-0.19210588932037354,0.1421428769826889,0.23313167691230774
1732873773178005200,6.384005126953125,-0.18963314592838287,0.153265580534935,0.28528541326522827
1732873773188001300,6.394001220703125,-0.18698671460151672,0.16272199153900146,0.3339987099170685
1732873773197996000,6.40399609375,-0.18617898225784302,0.16239069402217865,0.3662770390510559
1732873773207991300,6.4139912109375,-0.17448419332504272,0.14645186066627502,0.3634462058544159
1732873773217986300,6.423986328125,-0.17853273451328278,0.1007794588804245,0.3212425708770752
1732873773227981300,6.433981201171875,-0.1768655925989151,0.02767248824238777,0.2413424253463745
1732873773237977300,6.443977294921875,-0.16120567917823792,-0.05332862213253975,0.13584156334400177
1732873773247972400,6.453972412109375,-0.14988790452480316,-0.11589621752500534,0.034923262894153595
1732873773257967400,6.46396728515625,-0.14100971817970276,-0.1647505760192871,-0.056484416127204895
1732873773267962000,6.473962158203125,-0.1299716830253601,-0.19507110118865967,-0.10864990949630737
1732873773277957000,6.48395703125,-0.12713807821273804,-0.2008237987756729,-0.10486555844545364
1732873773287953200,6.493953125,-0.12160834670066833,-0.18765491247177124,-0.05957727134227753
1732873773297948400,6.503948486328125,-0.09565264731645584,-0.20047856867313385,-0.025202251970767975
1732873773307943400,6.513943359375,-0.07563889771699905,-0.24400648474693298,-0.05332235246896744
1732873773317938400,6.5239384765625,-0.06176089867949486,-0.2956680953502655,-0.16953524947166443
1732873773327933200,6.53393310546875,-0.057953789830207825,-0.32299283146858215,-0.3485359251499176
1732873773337929200,6.54392919921875,-0.06375469267368317,-0.3206830620765686,-0.5759360790252686
1732873773347924200,6.55392431640625,-0.06810654699802399,-0.2719649374485016,-0.8246433734893799
1732873773357919200,6.563919189453125,-0.06285985559225082,-0.23277704417705536,-1.030410647392273
1732873773367914200,6.573914306640625,-0.04097190871834755,-0.23179882764816284,-1.110759973526001
1732873773377909200,6.5839091796875,-0.0035305283963680267,-0.2781010866165161,-1.0270425081253052
1732873773387905300,6.5939052734375,0.04724181070923805,-0.38251227140426636,-0.798683762550354
1732873773397900300,6.603900390625,0.11559956520795822,-0.5191243886947632,-0.4832935929298401
1732873773407895300,6.613895263671875,0.18392077088356018,-0.6106683611869812,-0.17634814977645874
1732873773417890300,6.623890380859375,0.2298421859741211,-0.6288551092147827,0.04516906663775444
1732873773427886300,6.63388623046875,0.2533380389213562,-0.593932569026947,0.1476229429244995
1732873773437882000,6.643882080078125,0.2501840591430664,-0.5326972007751465,0.14352433383464813
1732873773447877000,6.653877197265625,0.22545434534549713,-0.4642091393470764,0.062192924320697784
1732873773457872100,6.6638720703125,0.19531162083148956,-0.3963344693183899,-0.06390535086393356
1732873773467867100,6.6738671875,0.1596994400024414,-0.325771301984787,-0.24724049866199493
1732873773477862100,6.683862060546875,0.1209120899438858,-0.2846113443374634,-0.4536498486995697
1732873773487858200,6.693858154296875,0.08611386269330978,-0.22754479944705963,-0.6102259755134583
1732873773497853000,6.70385302734375,0.08398040384054184,-0.15802697837352753,-0.6727516651153564
1732873773507848000,6.713847900390625,0.10709089785814285,-0.08867630362510681,-0.6180366277694702
1732873773517843000,6.723843017578125,0.1582757979631424,-0.021061843261122704,-0.44323864579200745
1732873773527838200,6.733838134765625,0.2229364812374115,0.046728476881980896,-0.15768878161907196
1732873773537834200,6.743834228515625,0.27839043736457825,0.08840668201446533,0.1738116443157196
1732873773547829200,6.753829345703125,0.31181037425994873,0.10886198282241821,0.46461808681488037
1732873773557824300,6.76382421875,0.3272652328014374,0.13385042548179626,0.6773418188095093
1732873773567819000,6.773819091796875,0.3279777765274048,0.1955370157957077,0.7977397441864014
1732873773577815000,6.78381494140625,0.31508007645606995,0.304582804441452,0.8268616795539856
1732873773587810000,6.79381005859375,0.29918012022972107,0.4643780589103699,0.7810616493225098
1732873773597805000,6.80380517578125,0.2794458270072937,0.6758495569229126,0.6736263036727905
1732873773607800000,6.813800048828125,0.25170138478279114,0.9039031863212585,0.5128461122512817
1732873773617795300,6.82379541015625,0.2095739096403122,1.096023678779602,0.3249755799770355
1732873773627791000,6.833791015625,0.14984025061130524,1.1335171461105347,0.11504030972719193
1732873773637786000,6.8437861328125,0.07362670451402664,1.007529377937317,-0.07468115538358688
1732873773647781000,6.853781005859375,0.009561456739902496,0.8026753664016724,-0.16771350800991058
1732873773657776000,6.863776123046875,-0.021684346720576286,0.5911343693733215,-0.12883561849594116
1732873773667771100,6.873771240234375,-0.0031523429788649082,0.4175739884376526,0.0011369662825018167
1732873773677767000,6.883766845703125,0.06835752725601196,0.30253636837005615,0.16905859112739563
1732873773687762000,6.893761962890625,0.19261527061462402,0.25766268372535706,0.33526846766471863
1732873773697757000,6.9037568359375,0.3396015167236328,0.2578757405281067,0.4937500059604645
1732873773707752200,6.913752197265625,0.4622350037097931,0.2625889778137207,0.643810510635376
1732873773717747200,6.923747314453125,0.5337275266647339,0.24750402569770813,0.7532863616943359
1732873773727743200,6.9337431640625,0.5442838668823242,0.21876931190490723,0.7797794938087463
1732873773737738200,6.94373828125,0.5131983757019043,0.15983249247074127,0.7243345975875854
1732873773747733000,6.95373291015625,0.45974966883659363,0.08928949385881424,0.6249092817306519
1732873773757728000,6.96372802734375,0.393600732088089,0.031075449660420418,0.5072819590568542
1732873773767723000,6.973722900390625,0.3347506523132324,-0.0029480252414941788,0.3888685703277588
1732873773777719000,6.983718994140625,0.2836957275867462,-0.02258271351456642,0.26767662167549133
1732873773787714000,6.993714111328125,0.244902566075325,-0.006186224520206451,0.1655399650335312
1732873773797709300,7.003709228515625,0.21531778573989868,0.026098212227225304,0.09072459489107132
1732873773807704300,7.013704345703125,0.19940155744552612,0.04715012013912201,0.046699658036231995
1732873773817699000,7.023698974609375,0.1932656317949295,0.05185405910015106,0.013773399405181408
1732873773827695000,7.033695068359375,0.1976807415485382,0.031945835798978806,-0.026191115379333496
1732873773837690000,7.043690185546875,0.21827788650989532,-0.01706884615123272,-0.07502949237823486
1732873773847685000,7.05368505859375,0.24077348411083221,-0.08809556066989899,-0.12533599138259888
1732873773857680100,7.06368017578125,0.26513874530792236,-0.17277635633945465,-0.1575639843940735
1732873773867675100,7.073675048828125,0.3004429042339325,-0.24292875826358795,-0.15280476212501526
1732873773877671200,7.083671142578125,0.33582645654678345,-0.28506767749786377,-0.11303605139255524
1732873773887666200,7.093666259765625,0.3637063205242157,-0.31270724534988403,-0.06807219237089157
1732873773897661200,7.1036611328125,0.3840339779853821,-0.29942020773887634,-0.0717521458864212
1732873773907656200,7.11365625,0.39181599020957947,-0.2694701552391052,-0.12871527671813965
1732873773917651200,7.123651123046875,0.37673959136009216,-0.23561657965183258,-0.19612470269203186
1732873773927647200,7.133647216796875,0.35074281692504883,-0.20338670909404755,-0.2253427505493164
1732873773937642000,7.14364208984375,0.3185907304286957,-0.20843712985515594,-0.18044984340667725
1732873773947637000,7.153636962890625,0.28104108572006226,-0.2514745891094208,-0.08693525940179825
1732873773957632000,7.163632080078125,0.24837927520275116,-0.31128865480422974,0.02141784504055977
1732873773967627000,7.173626953125,0.20948076248168945,-0.36716124415397644,0.10383675992488861
1732873773977623300,7.183623291015625,0.16179926693439484,-0.4108775556087494,0.06604544073343277
1732873773987618300,7.193618408203125,0.09554272890090942,-0.4309055805206299,-0.11672504246234894
1732873773997613300,7.20361328125,0.012576735578477383,-0.3864203989505768,-0.41753068566322327
1732873774007608000,7.213608154296875,-0.08958292007446289,-0.2585543096065521,-0.8081977367401123
1732873774017604000,7.22360400390625,-0.20318672060966492,-0.0991997942328453,-1.2103086709976196
1732873774027599000,7.23359912109375,-0.30323484539985657,0.06927003711462021,-1.4639769792556763
1732873774037594000,7.243593994140625,-0.34509599208831787,0.20468351244926453,-1.4625492095947266
1732873774047589000,7.253589111328125,-0.33859941363334656,0.2836616039276123,-1.209863305091858
1732873774057584000,7.263584228515625,-0.31636813282966614,0.3137763738632202,-0.7812003493309021
1732873774067580200,7.273580078125,-0.2761571705341339,0.33023080229759216,-0.290697306394577
1732873774077575200,7.2835751953125,-0.25018441677093506,0.36248356103897095,0.1325298398733139
1732873774087570200,7.293570068359375,-0.24987241625785828,0.370272159576416,0.4113146662712097
1732873774097565200,7.303565185546875,-0.2665102481842041,0.33940237760543823,0.5427587032318115
1732873774107560200,7.313560302734375,-0.27901187539100647,0.30843523144721985,0.5642253160476685
1732873774117556000,7.323555908203125,-0.2693136930465698,0.28257113695144653,0.5518442988395691
1732873774127551000,7.333551025390625,-0.2578960955142975,0.270754873752594,0.5662603378295898
1732873774137546000,7.3435458984375,-0.2674107551574707,0.2799939215183258,0.596879243850708
1732873774147541000,7.353541015625,-0.2985590398311615,0.27891555428504944,0.6233458518981934
1732873774157536000,7.363535888671875,-0.35983651876449585,0.2620081901550293,0.6179556250572205
1732873774167532300,7.3735322265625,-0.41098257899284363,0.2522642910480499,0.5994645953178406
1732873774177527300,7.38352734375,-0.44841623306274414,0.28161126375198364,0.6005493402481079
1732873774187522000,7.39352197265625,-0.4627760946750641,0.3349136710166931,0.6019302606582642
1732873774197517000,7.40351708984375,-0.4604695439338684,0.3682958781719208,0.5934334397315979
1732873774207512000,7.413511962890625,-0.4374046325683594,0.3561951518058777,0.5632191300392151
1732873774217508000,7.423508056640625,-0.39509472250938416,0.3170320391654968,0.5296811461448669
1732873774227503000,7.433503173828125,-0.3436823785305023,0.27888810634613037,0.5069220662117004
1732873774237498000,7.443498046875,-0.29267963767051697,0.24461907148361206,0.48388224840164185
1732873774247493000,7.4534931640625,-0.25626954436302185,0.21881704032421112,0.4389788806438446
1732873774257489200,7.4634892578125,-0.24902573227882385,0.20229238271713257,0.3475959599018097
1732873774267484200,7.473484130859375,-0.2741425037384033,0.1956883668899536,0.17427316308021545
1732873774277479200,7.483479248046875,-0.32174810767173767,0.22585079073905945,-0.05031494051218033
1732873774287474200,7.49347412109375,-0.37744998931884766,0.2840059995651245,-0.26697906851768494
1732873774297469200,7.50346923828125,-0.4421243369579315,0.3506585359573364,-0.4298396110534668
1732873774307465000,7.51346484375,-0.49624955654144287,0.38696274161338806,-0.5064393877983093
1732873774317460000,7.5234599609375,-0.5260705351829529,0.37142160534858704,-0.5146389603614807
1732873774327455000,7.533455078125,-0.5331124067306519,0.3089536130428314,-0.4704117476940155
1732873774337450000,7.543449951171875,-0.514334499835968,0.20236322283744812,-0.37788712978363037
1732873774347445000,7.553445068359375,-0.47183671593666077,0.10359696298837662,-0.2760063707828522
1732873774357441300,7.563441162109375,-0.4241938292980194,0.029630064964294434,-0.219087153673172
1732873774367436300,7.573436279296875,-0.3911968767642975,0.002443311270326376,-0.2602912485599518
1732873774377431000,7.58343115234375,-0.38923147320747375,0.026776080951094627,-0.41915467381477356
1732873774387426000,7.593426025390625,-0.4159006178379059,0.08625402301549911,-0.6722376942634583
1732873774397421000,7.603421142578125,-0.48717454075813293,0.16889376938343048,-0.9415346384048462
1732873774407417000,7.6134169921875,-0.5461541414260864,0.21894708275794983,-1.1142491102218628
1732873774417412000,7.623412109375,-0.5823656916618347,0.20800229907035828,-1.1294491291046143
1732873774427407000,7.633406982421875,-0.5718615651130676,0.12737108767032623,-0.9968410134315491
1732873774437401900,7.64340185546875,-0.5279393792152405,0.010419445112347603,-0.770308256149292
1732873774447396900,7.65339697265625,-0.45489832758903503,-0.09861971437931061,-0.5528412461280823
1732873774457392600,7.663392578125,-0.3499143719673157,-0.14699044823646545,-0.4391530156135559
1732873774467387600,7.6733876953125,-0.23110157251358032,-0.11006634682416916,-0.45516255497932434
1732873774477382700,7.683382568359375,-0.1374501734972,-0.027843907475471497,-0.5824488401412964
1732873774487377700,7.693377685546875,-0.07640289515256882,0.0330980122089386,-0.7379193902015686
1732873774497373700,7.703373779296875,-0.034495387226343155,0.029899820685386658,-0.836520254611969
1732873774507368700,7.71336865234375,-0.005077299661934376,-0.029045935720205307,-0.7811461687088013
1732873774517363700,7.72336376953125,0.030141938477754593,-0.13429805636405945,-0.5541782975196838
1732873774527358700,7.733358642578125,0.08930344134569168,-0.24941733479499817,-0.18117952346801758
1732873774537353700,7.743353759765625,0.16773007810115814,-0.30171647667884827,0.22993770241737366
1732873774547349800,7.753349853515625,0.27805855870246887,-0.25421956181526184,0.5863218903541565
1732873774557344800,7.7633447265625,0.36554792523384094,-0.1260080635547638,0.8062920570373535
1732873774567339800,7.77333984375,0.4191262722015381,0.04354437440633774,0.8706996440887451
1732873774577334500,7.78333447265625,0.44167017936706543,0.20449809730052948,0.8005256056785583
1732873774587329800,7.793329833984375,0.4713548719882965,0.31801849603652954,0.7043115496635437
1732873774597325800,7.803325927734375,0.4954005777835846,0.34170567989349365,0.6752354502677917
1732873774607320800,7.81332080078125,0.5156397223472595,0.2610369622707367,0.7501389980316162
1732873774617315800,7.82331591796875,0.5454686880111694,0.138823464512825,0.8781062960624695
1732873774627310800,7.833310791015625,0.570121705532074,0.04972173273563385,0.9863134026527405
1732873774637306600,7.843306640625,0.5870514512062073,0.02246987074613571,1.0283193588256836
1732873774647301600,7.853301513671875,0.5888145565986633,0.0700763538479805,0.9887009859085083
1732873774657296600,7.863296630859375,0.5622804164886475,0.16500286757946014,0.8625417351722717
1732873774667291600,7.873291748046875,0.5187530517578125,0.24495743215084076,0.6711139678955078
1732873774677287000,7.883286865234375,0.4647824764251709,0.28695711493492126,0.4740144610404968
1732873774687282700,7.89328271484375,0.41996634006500244,0.27385905385017395,0.31748273968696594
1732873774697277700,7.903277587890625,0.38129404187202454,0.20811064541339874,0.22645749151706696
1732873774707272700,7.913272705078125,0.36043593287467957,0.09776171296834946,0.19775059819221497
1732873774717267700,7.923267822265625,0.3627883195877075,-0.03592683747410774,0.20527055859565735
1732873774727262700,7.9332626953125,0.38549426198005676,-0.15670695900917053,0.23166589438915253
1732873774737258800,7.9432587890625,0.4134010076522827,-0.24812263250350952,0.24882303178310394
1732873774747253800,7.953253662109375,0.453926146030426,-0.27829113602638245,0.23754170536994934
1732873774757248800,7.963248779296875,0.5000078678131104,-0.24482133984565735,0.19184212386608124
1732873774767243800,7.973243896484375,0.5398701429367065,-0.2027222216129303,0.17274057865142822
1732873774777238800,7.98323876953125,0.561817467212677,-0.19416414201259613,0.18449977040290833
1732873774787234800,7.99323486328125,0.5553882718086243,-0.2117539942264557,0.2224406749010086
1732873774797229800,8.003229736328125,0.5258687138557434,-0.22227586805820465,0.2942520081996918
1732873774807224800,8.013224853515625,0.48072853684425354,-0.23746371269226074,0.3828890025615692
1732873774817219800,8.0232197265625,0.4193054139614105,-0.2948548197746277,0.432149201631546
1732873774827215600,8.033215576171875,0.3617355525493622,-0.37936487793922424,0.39444059133529663
1732873774837210600,8.043210693359375,0.3048296570777893,-0.45560452342033386,0.2301667034626007
1732873774847205600,8.05320556640625,0.24362511932849884,-0.45795387029647827,-0.058654021471738815
1732873774857201000,8.063200927734375,0.18181979656219482,-0.3668553829193115,-0.43156951665878296
1732873774867196000,8.07319580078125,0.11386831104755402,-0.20699083805084229,-0.8071205019950867
1732873774877191700,8.083191650390624,0.02201029285788536,-0.048395607620477676,-1.0966942310333252
1732873774887186700,8.093186767578125,-0.08127307891845703,0.012534765526652336,-1.2142984867095947
1732873774897181700,8.103181640625,-0.1633988469839096,-0.05465838685631752,-1.0792416334152222
1732873774907176700,8.1131767578125,-0.21435430645942688,-0.16028830409049988,-0.6929507851600647
1732873774917172700,8.1231728515625,-0.22184045612812042,-0.22677652537822723,-0.18220891058444977
1732873774927167700,8.133167724609375,-0.19741672277450562,-0.2383914738893509,0.28661537170410156
1732873774937162800,8.143162841796874,-0.17012092471122742,-0.21528561413288116,0.5911438465118408
1732873774947157800,8.15315771484375,-0.14466451108455658,-0.16192950308322906,0.7039063572883606
1732873774957152800,8.16315283203125,-0.11583979427814484,-0.08808083832263947,0.6680905222892761
1732873774967148800,8.173148681640624,-0.08479175716638565,-0.027094068005681038,0.5189454555511475
1732873774977143800,8.183143798828125,-0.07010602205991745,0.008529437705874443,0.2786913216114044
1732873774987138800,8.193138916015625,-0.06517881900072098,-0.0009110854007303715,0.01332164742052555
1732873774997133800,8.2031337890625,-0.08103634417057037,-0.015711601823568344,-0.21899200975894928
1732873775007128800,8.21312890625,-0.11411546915769577,-0.01074343640357256,-0.3800971508026123
1732873775017124600,8.22312451171875,-0.15286287665367126,0.0003592821303755045,-0.47625455260276794
1732873775027119600,8.23311962890625,-0.19837000966072083,0.018043193966150284,-0.5184353590011597
1732873775037115000,8.243114990234375,-0.24899722635746002,0.04088032990694046,-0.48848679661750793
1732873775047110000,8.25310986328125,-0.3019518256187439,0.056386798620224,-0.3764064610004425
1732873775057105700,8.263105712890624,-0.3471193015575409,0.056899189949035645,-0.19757626950740814
1732873775067100700,8.2731005859375,-0.3724333643913269,0.04243434593081474,0.029776152223348618
1732873775077095700,8.283095703125,-0.370077520608902,0.030551321804523468,0.30568575859069824
1732873775087090700,8.293090576171876,-0.3428761661052704,0.03691663220524788,0.5649681091308594
1732873775097085700,8.303085693359375,-0.3175140917301178,0.03148884326219559,0.7420123815536499
1732873775107081700,8.313081787109375,-0.3041824400424957,0.0009581537451595068,0.8205970525741577
1732873775117076700,8.32307666015625,-0.30321118235588074,-0.03293163701891899,0.8208391070365906
1732873775127071700,8.33307177734375,-0.3171970546245575,-0.06038397178053856,0.7628199458122253
1732873775137066800,8.343066650390625,-0.35148099064826965,-0.08096327632665634,0.6635740399360657
1732873775147061800,8.353061767578126,-0.38763904571533203,-0.09980635344982147,0.5383673906326294
1732873775157057800,8.363057861328125,-0.41569092869758606,-0.1065119281411171,0.4098981022834778
1732873775167052800,8.373052734375,-0.42137569189071655,-0.1036461591720581,0.30483654141426086
1732873775177047800,8.3830478515625,-0.40393197536468506,-0.08861660957336426,0.22479069232940674
1732873775187042800,8.393042724609375,-0.37178850173950195,-0.09406451135873795,0.1555916666984558
1732873775197038600,8.40303857421875,-0.337344765663147,-0.1594211459159851,0.08521711081266403
1732873775207033600,8.41303369140625,-0.29817312955856323,-0.2640219032764435,0.0075115300714969635
1732873775217028900,8.42302880859375,-0.26763173937797546,-0.3699970543384552,-0.07658444344997406
1732873775227024000,8.43302392578125,-0.23656457662582397,-0.4685315787792206,-0.15449084341526031
1732873775237019000,8.443018798828126,-0.2165522426366806,-0.5336690545082092,-0.2196914255619049
1732873775247014700,8.4530146484375,-0.20592698454856873,-0.5418564677238464,-0.27451807260513306
1732873775257009700,8.463009765625,-0.2005378007888794,-0.5256586074829102,-0.3171675205230713
1732873775267004700,8.473004638671876,-0.20558670163154602,-0.48396429419517517,-0.3356505036354065
1732873775276999700,8.482999755859375,-0.20171579718589783,-0.3931041657924652,-0.34295928478240967
1732873775286995700,8.49299560546875,-0.1997722089290619,-0.25645074248313904,-0.39964759349823
1732873775296990700,8.50299072265625,-0.19181227684020996,-0.11212392151355743,-0.5426321625709534
1732873775306985700,8.51298583984375,-0.19966095685958862,0.0070266700349748135,-0.7187338471412659
1732873775316980700,8.522980712890625,-0.21899950504302979,0.053093764930963516,-0.842757523059845
1732873775326975700,8.532975830078126,-0.21171613037586212,0.02982020191848278,-0.7978441119194031
1732873775336971800,8.5429716796875,-0.19129954278469086,-0.04889192432165146,-0.5353874564170837
1732873775346966800,8.552966796875,-0.16256651282310486,-0.15647967159748077,-0.13083451986312866
1732873775356961800,8.5629619140625,-0.11304529756307602,-0.24150986969470978,0.2615625560283661
1732873775366956800,8.572956787109375,-0.04820167273283005,-0.2551378011703491,0.4883320927619934
1732873775376951800,8.582951904296875,0.019038885831832886,-0.17549917101860046,0.49778124690055847
1732873775386947600,8.592947509765626,0.06692355871200562,-0.044808994978666306,0.31787821650505066
1732873775396942800,8.60294287109375,0.07841189950704575,0.08183710277080536,-0.007965932600200176
1732873775406937900,8.612937744140625,0.07153604179620743,0.1702931821346283,-0.41975516080856323
1732873775416932900,8.622932861328126,0.040482789278030396,0.20893777906894684,-0.8572872281074524
1732873775426928600,8.6329287109375,0.01813642308115959,0.1926354467868805,-1.1612988710403442
1732873775436923000,8.6429228515625,0.02083180844783783,0.15098600089550018,-1.2130606174468994
1732873775446918000,8.65291796875,0.04301946237683296,0.051806069910526276,-0.9932815432548523
1732873775456912600,8.66291259765625,0.0833628922700882,-0.06343875825405121,-0.5744595527648926
1732873775466908000,8.672907958984375,0.12724687159061432,-0.13635380566120148,-0.08062364906072617
1732873775476904000,8.682904052734376,0.15559250116348267,-0.14267028868198395,0.32720059156417847
1732873775486899000,8.69289892578125,0.14535628259181976,-0.09754648804664612,0.5639753341674805
1732873775496894000,8.70289404296875,0.1207374855875969,-0.05284266173839569,0.6161253452301025
1732873775506889000,8.712888916015626,0.09326350688934326,-0.021040912717580795,0.5381642580032349
1732873775516884700,8.722884765625,0.07032570242881775,-0.003398003289476037,0.3759452700614929
1732873775526879700,8.732879638671875,0.05166046321392059,0.01361258514225483,0.18016095459461212
1732873775536874800,8.742874755859376,0.0317101925611496,0.021708860993385315,0.004387000575661659
1732873775546869800,8.752869873046874,0.00933615118265152,0.03711420297622681,-0.10302306711673737
1732873775556865000,8.762864990234375,-0.009351249784231186,0.07178296893835068,-0.12897583842277527
1732873775566860800,8.77286083984375,-0.015157796442508698,0.11013193428516388,-0.09490466117858887
1732873775576855800,8.782855712890624,-0.010398461483418941,0.12725527584552765,-0.0021954961121082306
1732873775586850800,8.792850830078125,0.010193750262260437,0.1344023197889328,0.10636168718338013
1732873775596845800,8.802845703125,0.05241044610738754,0.12658275663852692,0.19224144518375397
1732873775606841900,8.812841796875,0.09799795597791672,0.08791956305503845,0.24549677968025208
1732873775616836900,8.8228369140625,0.13448166847229004,0.04440298303961754,0.27398061752319336
1732873775626832000,8.832831787109376,0.1578429639339447,0.016009338200092316,0.2861281931400299
1732873775636827000,8.842826904296874,0.16433335840702057,0.0031547914259135723,0.3004927635192871
1732873775646822000,8.85282177734375,0.1592167615890503,0.013045825995504856,0.3044598698616028
1732873775656818000,8.86281787109375,0.14239250123500824,0.04046706110239029,0.2917797565460205
1732873775666813000,8.87281298828125,0.11674711108207703,0.0675569623708725,0.24798484146595
1732873775676808000,8.882807861328125,0.08899537473917007,0.08660601824522018,0.18372249603271484
1732873775686803000,8.892802978515626,0.06508997827768326,0.09706730395555496,0.11403585970401764
1732873775696798700,8.902798828125,0.04873524233698845,0.10489806532859802,0.061917535960674286
1732873775706793700,8.912793701171875,0.043975818902254105,0.11398434638977051,0.01594356819987297
1732873775716788700,8.922788818359376,0.04949575290083885,0.12443006783723831,-0.02835385501384735
1732873775726784000,8.932783935546874,0.06393123418092728,0.12822559475898743,-0.05355751886963844
1732873775736779000,8.942779052734375,0.08775107562541962,0.11207485944032669,-0.04445110261440277
1732873775746774800,8.95277490234375,0.11168503761291504,0.061768218874931335,0.0070357173681259155
1732873775756769800,8.962769775390624,0.12552176415920258,-0.04053498059511185,0.08686716109514236
1732873775766764800,8.972764892578125,0.12615874409675598,-0.15693984925746918,0.1744852066040039
1732873775776759800,8.982759765625,0.12008672952651978,-0.254851758480072,0.21292845904827118
1732873775786755800,8.992755859375,0.09844911843538284,-0.318949431180954,0.1777704507112503
1732873775796750800,9.002750732421875,0.06423255801200867,-0.3300105929374695,0.05047028139233589
1732873775806745900,9.012745849609376,0.010314827784895897,-0.3043067157268524,-0.15152467787265778
1732873775816740900,9.022740966796874,-0.06405367702245712,-0.2502916753292084,-0.41318264603614807
1732873775826735900,9.03273583984375,-0.13750043511390686,-0.19790732860565186,-0.6555446982383728
1732873775836732000,9.04273193359375,-0.2067415565252304,-0.1747809648513794,-0.8129848837852478
1732873775846727000,9.052726806640624,-0.24470046162605286,-0.16214653849601746,-0.8386830687522888
1732873775856722000,9.062721923828125,-0.24971172213554382,-0.2150861918926239,-0.7205401659011841
1732873775866717000,9.072717041015625,-0.2492671012878418,-0.28788700699806213,-0.48882246017456055
1732873775876712700,9.082712646484374,-0.23663759231567383,-0.3200100362300873,-0.22519561648368835
1732873775886707700,9.092707763671875,-0.22508329153060913,-0.2839463949203491,-0.016237828880548477
1732873775896702700,9.10270263671875,-0.23733863234519958,-0.19078850746154785,0.08361074328422546
1732873775906698000,9.112697998046874,-0.27697569131851196,-0.08323894441127777,0.06992563605308533
1732873775916693000,9.12269287109375,-0.34494462609291077,0.00834742747247219,-0.016462786123156548
1732873775926689000,9.13268896484375,-0.42079296708106995,0.05939280241727829,-0.1219603568315506
1732873775936683800,9.142683837890624,-0.4831383526325226,0.06997939944267273,-0.18767917156219482
1732873775946678800,9.1526787109375,-0.5045512914657593,0.0495845265686512,-0.16115862131118774
1732873775956673800,9.162673828125,-0.4872889220714569,0.02990056946873665,-0.04600273445248604
1732873775966669800,9.172669921875,-0.4422682523727417,0.030398055911064148,0.0896371603012085
1732873775976664800,9.182664794921875,-0.38821113109588623,0.035546209663152695,0.19606399536132812
1732873775986659800,9.192659912109375,-0.3404393494129181,0.03983131796121597,0.2673923671245575
1732873775996655000,9.202655029296874,-0.2982218563556671,0.05737169459462166,0.3008081018924713
1732873776006649900,9.21264990234375,-0.2704879343509674,0.07291974127292633,0.29098957777023315
1732873776016646000,9.22264599609375,-0.26184889674186707,0.08563181012868881,0.2591418921947479
1732873776026641000,9.232640869140624,-0.27753543853759766,0.09804758429527283,0.20414066314697266
1732873776036636000,9.242635986328125,-0.30662915110588074,0.11119347810745239,0.14145039021968842
1732873776046631000,9.252630859375,-0.33466413617134094,0.11887902766466141,0.09487897157669067
1732873776056626700,9.262626708984374,-0.3626294434070587,0.11887636035680771,0.07923130691051483
1732873776066621700,9.27262158203125,-0.39432641863822937,0.11305301636457443,0.0723612830042839
1732873776076616700,9.28261669921875,-0.4114372134208679,0.096674844622612,0.0810069665312767
1732873776086612000,9.292612060546874,-0.4182228744029999,0.08009544759988785,0.1222880557179451
1732873776096608000,9.30260791015625,-0.41406911611557007,0.0770764872431755,0.19611166417598724
1732873776106603000,9.31260302734375,-0.3881688714027405,0.08318933099508286,0.2865104675292969
1732873776116598000,9.322597900390624,-0.35505592823028564,0.08792975544929504,0.3845621943473816
1732873776126592800,9.3325927734375,-0.3324134051799774,0.07990804314613342,0.4543033838272095
1732873776136587800,9.342587890625,-0.32391366362571716,0.06083395332098007,0.4756321310997009
1732873776146583800,9.352583740234374,-0.3244951665401459,0.0344822071492672,0.4576978385448456
1732873776156578800,9.362578857421875,-0.32612448930740356,0.0011703253258019686,0.4220229387283325
1732873776166573800,9.37257373046875,-0.32036158442497253,-0.020882662385702133,0.38494473695755005
1732873776176569000,9.382569091796874,-0.30013754963874817,-0.04577603191137314,0.35482439398765564
1732873776186564900,9.39256494140625,-0.280695378780365,-0.0784803256392479,0.3444218039512634
1732873776196560000,9.402559814453125,-0.25627151131629944,-0.11703251302242279,0.34591612219810486
1732873776206555000,9.412554931640624,-0.24071285128593445,-0.16676470637321472,0.34726008772850037
1732873776216550000,9.4225498046875,-0.23829656839370728,-0.2116360366344452,0.35518378019332886
1732873776226545000,9.432544921875,-0.23417913913726807,-0.24574796855449677,0.3649154305458069
1732873776236540700,9.442540771484374,-0.23268350958824158,-0.2634883522987366,0.3642411231994629
1732873776246535700,9.45253564453125,-0.23470883071422577,-0.2745456099510193,0.3418741524219513
1732873776256530700,9.46253076171875,-0.2560409903526306,-0.2847748100757599,0.2721046507358551
1732873776266526000,9.47252587890625,-0.289804071187973,-0.28117406368255615,0.1639222800731659
1732873776276522000,9.48252197265625,-0.32992246747016907,-0.2721198499202728,0.02477397583425045
1732873776286517000,9.49251708984375,-0.3653251826763153,-0.2657651901245117,-0.11870144307613373
1732873776296512000,9.502511962890624,-0.3910318911075592,-0.258463054895401,-0.27255702018737793
1732873776306506800,9.5125068359375,-0.42897531390190125,-0.24680431187152863,-0.48803484439849854
1732873776316501800,9.522501708984375,-0.45417413115501404,-0.20553383231163025,-0.7407296895980835
1732873776326497800,9.532497802734374,-0.4703475534915924,-0.14660632610321045,-0.9934434294700623
1732873776336492800,9.542492919921875,-0.4637455940246582,-0.11130452901124954,-1.155905842781067
1732873776346487800,9.55248779296875,-0.45831137895584106,-0.10959593951702118,-1.1957290172576904
1732873776356483000,9.562483154296874,-0.4261571764945984,-0.20316451787948608,-1.0768873691558838
1732873776366478800,9.572478759765625,-0.37626123428344727,-0.3574146032333374,-0.7996425628662109
1732873776376473900,9.582473876953125,-0.30979540944099426,-0.49392130970954895,-0.43860337138175964
1732873776386468900,9.59246875,-0.22215701639652252,-0.5596293807029724,-0.12493474036455154
1732873776396463900,9.6024638671875,-0.12952721118927002,-0.48672959208488464,0.0692879930138588
1732873776406460000,9.6124599609375,-0.04235906898975372,-0.32843515276908875,0.0882401317358017
1732873776416455000,9.622454833984374,0.028464501723647118,-0.12726981937885284,-0.02178197354078293
1732873776426449700,9.63244970703125,0.08317440748214722,0.059036895632743835,-0.1966928243637085
1732873776436444700,9.642444580078125,0.11120950430631638,0.16636815667152405,-0.38498684763908386
1732873776446440200,9.652440185546874,0.11841490864753723,0.16746771335601807,-0.537319540977478
1732873776456436200,9.662436279296875,0.1137881949543953,0.09467419236898422,-0.6388200521469116
1732873776466431200,9.67243115234375,0.11016368120908737,0.014077677391469479,-0.6550090312957764
1732873776476426200,9.68242626953125,0.12009461224079132,-0.05166325345635414,-0.6091305017471313
1732873776486421200,9.692421142578125,0.15823468565940857,-0.10420458763837814,-0.5031509399414062
1732873776496417300,9.702417236328126,0.2299690544605255,-0.11105823516845703,-0.3334157466888428
1732873776506412300,9.712412353515624,0.30954504013061523,-0.09725018590688705,-0.09804006665945053
1732873776516407300,9.7224072265625,0.38643771409988403,-0.06574738770723343,0.16458383202552795
1732873776526402300,9.73240234375,0.4494665265083313,-0.027982518076896667,0.3967098295688629
1732873776536398000,9.742398193359374,0.4837573766708374,-0.0025714337825775146,0.5457225441932678
1732873776546393000,9.75239306640625,0.4808478057384491,0.011885665357112885,0.6058481931686401
1732873776556388000,9.76238818359375,0.45995476841926575,0.04236234724521637,0.5822318196296692
1732873776566383400,9.77238330078125,0.4277636706829071,0.08293233811855316,0.49905896186828613
1732873776576378400,9.78237841796875,0.3908970057964325,0.11936864256858826,0.3779352009296417
1732873776586374400,9.79237451171875,0.3541370630264282,0.16172471642494202,0.23007667064666748
1732873776596369200,9.802369140625,0.3350003659725189,0.205733984708786,0.0794147253036499
1732873776606364200,9.8123642578125,0.3226318061351776,0.24152828752994537,-0.03175796940922737
1732873776616359200,9.822359130859375,0.3078262209892273,0.24711240828037262,-0.08876772969961166
1732873776626355200,9.832355224609374,0.28619489073753357,0.2219628393650055,-0.09889568388462067
1732873776636350200,9.84235009765625,0.2703578770160675,0.17523501813411713,-0.08604513853788376
1732873776646345200,9.85234521484375,0.27246788144111633,0.12087389826774597,-0.0691218227148056
1732873776656340500,9.862340576171874,0.2895669937133789,0.07766171544790268,-0.03288179636001587
1732873776666336300,9.872336181640625,0.31801584362983704,0.04678398743271828,0.04841684550046921
1732873776676331300,9.882331298828126,0.3451228439807892,0.018057800829410553,0.16600553691387177
1732873776686326300,9.892326171875,0.3694958984851837,0.004522320348769426,0.2936006188392639
1732873776696321300,9.9023212890625,0.3883153796195984,-0.00026284740306437016,0.40142160654067993
1732873776706316300,9.91231640625,0.3988608419895172,0.00938181858509779,0.47500506043434143
1732873776716312000,9.92231201171875,0.40378451347351074,0.04457922279834747,0.5069392919540405
1732873776726307000,9.93230712890625,0.41355180740356445,0.08651600778102875,0.5121036171913147
1732873776736302000,9.942302001953125,0.4319649040699005,0.10105659812688828,0.508503794670105
1732873776746297300,9.95229736328125,0.4506993293762207,0.09752772003412247,0.49206697940826416
1732873776756293400,9.96229345703125,0.4785274863243103,0.07841820269823074,0.4499048888683319
1732873776766288400,9.972288330078126,0.5098507404327393,0.0481439083814621,0.3768098056316376
1732873776776283400,9.982283447265624,0.528029203414917,0.017178000882267952,0.2904893159866333
1732873776786278100,9.992278076171875,0.5487629771232605,0.00777044240385294,0.20618705451488495
1732873776796274200,10.002274169921876,0.57606041431427,0.02831459790468216,0.15063326060771942
1732873776806269200,10.012269287109374,0.6046613454818726,0.043376624584198,0.1327115297317505
1732873776816264200,10.02226416015625,0.6241043210029602,0.04055047780275345,0.16469930112361908
1732873776826259200,10.03225927734375,0.6347007751464844,0.0061415727250278,0.223044753074646
1732873776836254500,10.04225439453125,0.6507034301757812,-0.057721830904483795,0.29265284538269043
1732873776846250200,10.052250244140625,0.6734083890914917,-0.12175942957401276,0.33466973900794983
1732873776856245200,10.062245361328126,0.7018381953239441,-0.15506359934806824,0.30480238795280457
1732873776866240300,10.072240234375,0.715355634689331,-0.16528530418872833,0.1963423192501068
1732873776876235300,10.0822353515625,0.6920545697212219,-0.16460219025611877,0.03100476786494255
1732873776886231300,10.092231201171876,0.647941529750824,-0.1771620362997055,-0.1475404053926468
1732873776896226000,10.10222607421875,0.5867796540260315,-0.19212447106838226,-0.27015209197998047
1732873776906221000,10.112220947265625,0.5061402320861816,-0.20522937178611755,-0.2928089499473572
1732873776916216000,10.122216064453125,0.40926241874694824,-0.21451421082019806,-0.22537130117416382
1732873776926212400,10.13221240234375,0.3179061710834503,-0.20956380665302277,-0.1320650726556778
1732873776936207400,10.142207275390625,0.2685500681400299,-0.1708238571882248,-0.05079738050699234
1732873776946202400,10.152202392578126,0.24805641174316406,-0.11009996384382248,0.0031134351156651974
1732873776956197400,10.162197265625,0.2450273334980011,-0.05077564716339111,0.006669820286333561
1732873776966193200,10.172193115234375,0.24652622640132904,0.005374351516366005,-0.042729854583740234
1732873776976188200,10.182188232421876,0.22567154467105865,0.03091060370206833,-0.13236120343208313
1732873776986183200,10.19218310546875,0.18564251065254211,0.02697155252099037,-0.23866893351078033
1732873776996178200,10.20217822265625,0.12389793246984482,0.033073119819164276,-0.34671416878700256
1732873777006173200,10.212173095703125,0.04392469674348831,0.042772646993398666,-0.4227588176727295
1732873777016169200,10.222169189453124,-0.0568101704120636,0.05320132151246071,-0.4680056571960449
1732873777026164200,10.232164306640625,-0.1536092460155487,0.060412511229515076,-0.453104704618454
1732873777036159200,10.2421591796875,-0.24298067390918732,0.055358897894620895,-0.3711453974246979
1732873777046154200,10.252154296875,-0.2964090406894684,0.04248124733567238,-0.2130565345287323
1732873777056150300,10.262150390625,-0.3079330623149872,0.02353924885392189,0.003283218014985323
1732873777066145300,10.272145263671876,-0.2988172471523285,0.01468656212091446,0.22663089632987976
1732873777076140300,10.282140380859374,-0.2915832996368408,-0.0007965231779962778,0.40398332476615906
1732873777086135000,10.292135009765625,-0.291336327791214,0.0189401563256979,0.516639232635498
1732873777096131300,10.30213134765625,-0.3160666823387146,0.04481329768896103,0.555803120136261
1732873777106126300,10.312126220703124,-0.363899290561676,0.03874054178595543,0.5277295708656311
1732873777116121300,10.322121337890625,-0.4243676960468292,0.02538718655705452,0.44761961698532104
1732873777126116400,10.332116455078125,-0.4746015965938568,0.009068566374480724,0.32955530285835266
1732873777136112000,10.342112060546874,-0.5069510340690613,-0.023501094430685043,0.20114967226982117
1732873777146107100,10.352107177734375,-0.5288102030754089,-0.0695057064294815,0.08578533679246902
1732873777156102100,10.36210205078125,-0.5402527451515198,-0.11538878083229065,-0.007092402782291174
1732873777166097200,10.37209716796875,-0.5500470995903015,-0.1432034820318222,-0.07367963343858719
1732873777176092200,10.382092041015625,-0.5689566135406494,-0.15396957099437714,-0.1266363263130188
1732873777186088400,10.39208837890625,-0.5987869501113892,-0.15046732127666473,-0.16205145418643951
1732873777196083200,10.402083251953124,-0.6344234943389893,-0.14722785353660583,-0.16437506675720215
1732873777206078200,10.412078125,-0.6736592054367065,-0.1631271094083786,-0.11564179509878159
1732873777216073200,10.4220732421875,-0.7104923129081726,-0.19055020809173584,-0.03481592237949371
1732873777226069200,10.4320693359375,-0.7415164113044739,-0.2241382598876953,0.0260592233389616
1732873777236064300,10.442064208984375,-0.7599745392799377,-0.250907838344574,0.039506588131189346
1732873777246059300,10.452059326171875,-0.760455846786499,-0.27013465762138367,-0.005739272106438875
1732873777256054300,10.46205419921875,-0.753944456577301,-0.2944013774394989,-0.10118936002254486
1732873777266050300,10.47205029296875,-0.7452526688575745,-0.3233474791049957,-0.22138647735118866
1732873777276045300,10.48204541015625,-0.737454354763031,-0.35116660594940186,-0.3327668011188507
1732873777286040300,10.492040283203124,-0.7293577194213867,-0.37418803572654724,-0.41824620962142944
1732873777296035300,10.502035400390625,-0.7148892879486084,-0.4145383834838867,-0.4647197127342224
1732873777306031000,10.512031005859376,-0.6767966747283936,-0.46698254346847534,-0.4585454761981964
1732873777316026000,10.522026123046874,-0.6313626170158386,-0.4726254940032959,-0.43536078929901123
1732873777326021000,10.532021240234375,-0.5868008732795715,-0.4252595901489258,-0.43818530440330505
1732873777336016100,10.54201611328125,-0.5513978600502014,-0.3536407947540283,-0.5066421031951904
1732873777346011100,10.55201123046875,-0.5292893648147583,-0.2840314209461212,-0.6221752166748047
1732873777356007400,10.56200732421875,-0.5070852637290955,-0.26532456278800964,-0.7300816774368286
1732873777366002400,10.57200244140625,-0.4836498498916626,-0.3117746114730835,-0.7687395215034485
1732873777375997200,10.5819970703125,-0.4525095224380493,-0.40145203471183777,-0.7437090277671814
1732873777385992200,10.5919921875,-0.4235907793045044,-0.48642203211784363,-0.7224295735359192
1732873777395988200,10.60198828125,-0.40911197662353516,-0.5179557800292969,-0.801276445388794
1732873777405983200,10.611983154296874,-0.40170425176620483,-0.452373743057251,-1.0086628198623657
1732873777415978200,10.621978271484375,-0.38984227180480957,-0.3433218002319336,-1.3121814727783203
1732873777425973200,10.63197314453125,-0.3892817795276642,-0.2703252136707306,-1.6845818758010864
1732873777435969300,10.64196923828125,-0.3649929463863373,-0.24806466698646545,-1.9374732971191406
1732873777445964000,10.651964111328125,-0.320698618888855,-0.24652744829654694,-1.9365531206130981
1732873777455959000,10.661958984375,-0.24669471383094788,-0.2824931740760803,-1.5879902839660645
1732873777465954000,10.6719541015625,-0.16151461005210876,-0.325631707906723,-0.9361211061477661
1732873777475950300,10.681950439453125,-0.10426225513219833,-0.30516186356544495,-0.1760624200105667
1732873777485945300,10.6919453125,-0.07102537900209427,-0.18725736439228058,0.44260236620903015
1732873777495940000,10.701940185546874,-0.07863722741603851,-0.02324952371418476,0.7720969319343567
1732873777505935000,10.71193505859375,-0.10991933941841125,0.11501413583755493,0.8412262201309204
1732873777515930000,10.72193017578125,-0.1259307861328125,0.2305993288755417,0.7494459748268127
1732873777525926100,10.731926025390624,-0.09367731213569641,0.29041430354118347,0.5993207097053528
1732873777535921200,10.741921142578125,-0.036125339567661285,0.29471585154533386,0.47999879717826843
1732873777545916200,10.751916259765625,0.012587449513375759,0.24376583099365234,0.42817071080207825
1732873777555911200,10.7619111328125,0.05956907197833061,0.1589268296957016,0.4469587802886963
1732873777565907200,10.7719072265625,0.09447403252124786,0.11802070587873459,0.5027447938919067
1732873777575902200,10.781902099609376,0.12716273963451385,0.12130065262317657,0.5451197028160095
1732873777585897200,10.791897216796874,0.1521201878786087,0.14329083263874054,0.5480698943138123
1732873777595892200,10.801892333984375,0.15958981215953827,0.19135530292987823,0.49268677830696106
1732873777605888300,10.81188818359375,0.15114115178585052,0.23488807678222656,0.3789220154285431
1732873777615883000,10.821883056640624,0.1350487470626831,0.25692811608314514,0.23656195402145386
1732873777625878000,10.8318779296875,0.11416589468717575,0.23721155524253845,0.11562191694974899
1732873777635873000,10.841873046875,0.11638564616441727,0.19345848262310028,0.04663512855768204
1732873777645869300,10.851869384765624,0.1351623237133026,0.15732115507125854,0.03029380552470684
1732873777655864300,10.8618642578125,0.16581344604492188,0.13136546313762665,0.05022090673446655
1732873777665859300,10.871859375,0.19829297065734863,0.11207674443721771,0.0873480886220932
1732873777675854000,10.88185400390625,0.22922451794147491,0.10624442249536514,0.12252765148878098
1732873777685849000,10.89184912109375,0.23772211372852325,0.10347799211740494,0.13884125649929047
1732873777695845000,10.90184521484375,0.2301851063966751,0.10877395421266556,0.12611454725265503
1732873777705840000,10.911840087890624,0.21638670563697815,0.1362704336643219,0.08834533393383026
1732873777715835100,10.921835205078125,0.1977781355381012,0.17210540175437927,0.040717631578445435
1732873777725830100,10.931830078125,0.17915916442871094,0.1948564350605011,0.012357499450445175
1732873777735826200,10.941826171875,0.1552911102771759,0.196544349193573,0.018439892679452896
1732873777745821200,10.9518212890625,0.13760285079479218,0.17649507522583008,0.0597386471927166
1732873777755816200,10.961816162109375,0.1291361302137375,0.1495702564716339,0.13917382061481476
1732873777765811200,10.971811279296874,0.1222362294793129,0.12264159321784973,0.22894106805324554
1732873777775807200,10.98180712890625,0.10971617698669434,0.1139487698674202,0.29513394832611084
1732873777785802200,10.99180224609375,0.09432077407836914,0.1360795497894287,0.29920682311058044
1732873777795797000,11.001796875,0.06943033635616302,0.17899133265018463,0.2372928410768509
1732873777805792000,11.0117919921875,0.0314045175909996,0.21636217832565308,0.14661122858524323
1732873777815788300,11.021788330078126,-0.005573741160333157,0.22938451170921326,0.05820306017994881
1732873777825783300,11.031783203125,-0.03192269429564476,0.22574302554130554,-0.015249630436301231
1732873777835778300,11.0417783203125,-0.043747927993535995,0.19725865125656128,-0.06213591620326042
1732873777845773300,11.051773193359375,-0.031122606247663498,0.1347130686044693,-0.03785005956888199
1732873777855769000,11.06176904296875,-0.008764304220676422,0.045435644686222076,0.09746702015399933
1732873777865764000,11.07176416015625,0.02271226979792118,-0.04088762030005455,0.32968538999557495
1732873777875759000,11.081759033203125,0.04709004983305931,-0.09220273792743683,0.5908182263374329
1732873777885754000,11.091754150390624,0.06676290929317474,-0.10661160945892334,0.8099495768547058
1732873777895749000,11.1017490234375,0.06787531077861786,-0.09522712975740433,0.9374939203262329
1732873777905745200,11.1117451171875,0.05986322835087776,-0.0872902199625969,0.957280158996582
1732873777915740200,11.121740234375,0.05490522086620331,-0.08002591878175735,0.8905413150787354
1732873777925735200,11.131735107421875,0.06288469582796097,-0.06679749488830566,0.7518033385276794
1732873777935730200,11.141730224609375,0.08935332298278809,-0.0698675885796547,0.5576722621917725
1732873777945726200,11.151726318359374,0.11404970288276672,-0.08263595402240753,0.3283608555793762
1732873777955721200,11.16172119140625,0.1363624632358551,-0.08644160628318787,0.09724214673042297
1732873777965716200,11.17171630859375,0.1710713803768158,-0.09946038573980331,-0.07894975692033768
1732873777975711200,11.181711181640624,0.21084089577198029,-0.13463649153709412,-0.15868480503559113
1732873777985707300,11.191707275390625,0.25019922852516174,-0.1872781217098236,-0.13893213868141174
1732873777995702300,11.201702392578126,0.2898566424846649,-0.2484368234872818,-0.06520385295152664
1732873778005697300,11.211697265625,0.33232244849205017,-0.2741859257221222,-0.011370635591447353
1732873778015692300,11.2216923828125,0.3602350354194641,-0.258922815322876,-0.059983979910612106
1732873778025688000,11.23168798828125,0.35822007060050964,-0.21302685141563416,-0.22714845836162567
1732873778035683000,11.24168310546875,0.33543458580970764,-0.1066354364156723,-0.48667269945144653
1732873778045678000,11.251677978515625,0.2924003005027771,0.06366731971502304,-0.8066666722297668
1732873778055673000,11.261673095703125,0.24695689976215363,0.22125987708568573,-1.1349819898605347
1732873778065669000,11.271669189453124,0.23642918467521667,0.36154186725616455,-1.3969727754592896
1732873778075664400,11.281664306640625,0.268827348947525,0.4507780075073242,-1.4753541946411133
1732873778085659400,11.291659423828126,0.32379576563835144,0.44973644614219666,-1.3086174726486206
1732873778095654100,11.301654052734374,0.3794507682323456,0.3700501322746277,-0.9187614917755127
1732873778105650200,11.311650146484375,0.43405893445014954,0.23601415753364563,-0.4036252498626709
1732873778115645200,11.321645263671876,0.4989955723285675,0.12895987927913666,0.06778089702129364
1732873778125640200,11.33164013671875,0.557122528553009,0.09357532858848572,0.4029076099395752
1732873778135635200,11.34163525390625,0.6085809469223022,0.1433010697364807,0.5919116139411926
1732873778145631000,11.351630859375,0.6340547800064087,0.19285829365253448,0.6772617697715759
1732873778155626000,11.3616259765625,0.6265662312507629,0.2299521267414093,0.7054491639137268
1732873778165621200,11.371621337890625,0.5972641706466675,0.2712140679359436,0.680691659450531
1732873778175616300,11.3816162109375,0.5592398643493652,0.27726104855537415,0.605823814868927
1732873778185612300,11.3916123046875,0.5106194019317627,0.2639658749103546,0.4963470995426178
1732873778195607300,11.401607177734375,0.46200281381607056,0.2574922740459442,0.3790614604949951
1732873778205602000,11.41160205078125,0.4246252775192261,0.2773091495037079,0.2784470021724701
1732873778215597000,11.42159716796875,0.3935009241104126,0.3237687647342682,0.2186228334903717
1732873778225592000,11.431592041015625,0.3647006154060364,0.3468196988105774,0.2065434455871582
1732873778235588000,11.441588134765626,0.3404538631439209,0.3442857265472412,0.23351167142391205
1732873778245583000,11.4515830078125,0.3146820366382599,0.3207828998565674,0.28401660919189453
1732873778255578400,11.461578369140625,0.2967483103275299,0.2862725853919983,0.3298858106136322
1732873778265574100,11.47157421875,0.29600855708122253,0.2527186870574951,0.3509874939918518
1732873778275569200,11.481569091796874,0.3033575415611267,0.22834329307079315,0.3352617919445038
1732873778285564200,11.491564208984375,0.2994748651981354,0.2125745415687561,0.28186264634132385
1732873778295559200,11.50155908203125,0.28245192766189575,0.19599689543247223,0.17798417806625366
1732873778305554200,11.51155419921875,0.24981512129306793,0.18380694091320038,0.04319922998547554
1732873778315550200,11.52155029296875,0.17580851912498474,0.24271740019321442,0.01205995213240385
1732873778325545000,11.531544921875,0.007524547167122364,0.4511856138706207,0.06085459887981415
1732873778335540000,11.5415400390625,0.06994158774614334,0.3985479772090912,-0.05229778587818146
1732873778345535200,11.55153515625,0.07101047039031982,0.27975502610206604,-0.11989381909370422
1732873778355531300,11.56153125,0.05196060985326767,0.14422065019607544,-0.11404045671224594
1732873778365526300,11.5715263671875,0.06700973957777023,-0.012141089886426926,-0.06714532524347305
1732873778375521300,11.581521240234375,0.10710309445858002,-0.08023252338171005,-0.007870815694332123
1732873778385516300,11.591516357421876,0.15177319943904877,-0.027209816500544548,0.029888492077589035
1732873778395512000,11.601511962890624,0.195631206035614,0.06545434147119522,0.052874770015478134
1732873778405507000,11.611507080078125,0.21251942217350006,0.12584757804870605,0.03296402841806412
1732873778415502000,11.621502197265626,0.21178677678108215,0.1414896547794342,-0.0034922482445836067
1732873778425497000,11.6314970703125,0.1803901344537735,0.1363130658864975,-0.05453873425722122
1732873778435493000,11.6414931640625,0.15307089686393738,0.09130965173244476,-0.11629584431648254
1732873778445489200,11.6514892578125,0.14065738022327423,0.03696610778570175,-0.16324470937252045
1732873778455484200,11.661484130859375,0.12309543043375015,0.034754619002342224,-0.1610231101512909
1732873778465479200,11.671479248046875,0.10565192252397537,0.05678858235478401,-0.0937817171216011
1732873778475475200,11.68147509765625,0.09165754914283752,0.08987835794687271,0.009000051766633987
1732873778485470000,11.691469970703125,0.1069183498620987,0.12923653423786163,0.12752026319503784
1732873778495465000,11.70146484375,0.14943066239356995,0.17143991589546204,0.23508960008621216
1732873778505460000,11.7114599609375,0.21733954548835754,0.20729000866413116,0.31592845916748047
1732873778515456300,11.721456298828125,0.28831279277801514,0.2154874950647354,0.34253236651420593
1732873778525451300,11.731451171875,0.333352655172348,0.16498957574367523,0.28863799571990967
1732873778535446300,11.7414462890625,0.3420409560203552,0.04038161411881447,0.19468113780021667
1732873778545441000,11.75144091796875,0.32302215695381165,-0.0857769250869751,0.10963300615549088
1732873778555437000,11.76143701171875,0.29584062099456787,-0.1650666892528534,0.09633637219667435
1732873778565432000,11.77143212890625,0.2553071677684784,-0.16016927361488342,0.16542908549308777
1732873778575427000,11.781427001953125,0.2279844582080841,-0.10426019877195358,0.2934757471084595
1732873778585422000,11.791422119140625,0.20780907571315765,-0.007344251498579979,0.4249308705329895
1732873778595418000,11.801418212890624,0.1835537999868393,0.10276467353105545,0.5114098191261292
1732873778605413000,11.8114130859375,0.13514696061611176,0.18671637773513794,0.5016728639602661
1732873778615408000,11.821408203125,0.08392317593097687,0.20706717669963837,0.3558019697666168
1732873778625403100,11.831403076171876,0.024000709876418114,0.16013528406620026,0.07567616552114487
1732873778635399200,11.841399169921875,-0.049643419682979584,0.050055116415023804,-0.31004756689071655
1732873778645394200,11.851394287109375,-0.11305838078260422,-0.07735874503850937,-0.7521141767501831
1732873778655389200,11.86138916015625,-0.149027019739151,-0.24830439686775208,-1.1651206016540527
1732873778665384000,11.871384033203125,-0.15832073986530304,-0.4319207966327667,-1.4039275646209717
1732873778675380200,11.881380126953125,-0.13201935589313507,-0.5844762921333313,-1.336746335029602
1732873778685375200,11.891375244140624,-0.1014372780919075,-0.6541168093681335,-0.9416383504867554
1732873778695370200,11.901370361328125,-0.11421752721071243,-0.5747644305229187,-0.34156104922294617
1732873778705365200,11.911365234375,-0.12000270932912827,-0.39561545848846436,0.29885539412498474
1732873778715361000,11.921361083984374,-0.12346295267343521,-0.1849178671836853,0.7992212772369385
1732873778725356000,11.93135595703125,-0.11916352808475494,-0.05644019693136215,1.0628979206085205
1732873778735351000,11.94135107421875,-0.10518353432416916,-0.02525111846625805,1.1024270057678223
1732873778745346000,11.951345947265626,-0.1402065008878708,-0.035099223256111145,0.9774389266967773
1732873778755342000,11.961342041015625,-0.1986575573682785,-0.049962591379880905,0.7536665797233582
1732873778765337300,11.97133740234375,-0.2624531090259552,-0.07143615186214447,0.48251473903656006
1732873778775332000,11.98133203125,-0.3165948987007141,-0.12456168979406357,0.21886979043483734
1732873778785327000,11.9913271484375,-0.34713131189346313,-0.20224151015281677,0.0063976407982409
1732873778795323100,12.0013232421875,-0.3382672369480133,-0.2815456688404083,-0.14041070640087128
1732873778805318100,12.011318115234374,-0.30482977628707886,-0.3515619933605194,-0.23176774382591248
1732873778815313200,12.021313232421875,-0.2585248649120331,-0.40312984585762024,-0.3109973073005676
1732873778825308200,12.03130810546875,-0.23167456686496735,-0.42013466358184814,-0.4110932946205139
1732873778835304000,12.041303955078124,-0.2304401993751526,-0.4071916937828064,-0.5156785249710083
1732873778845299000,12.051298828125,-0.23360686004161835,-0.3678051829338074,-0.6035717129707336
1732873778855294200,12.061294189453125,-0.2257060557603836,-0.3219921588897705,-0.6484217047691345
1732873778865289200,12.071289306640624,-0.21047677099704742,-0.2724866569042206,-0.6085819005966187
1732873778875285200,12.08128515625,-0.20887541770935059,-0.20244580507278442,-0.46713772416114807
1732873778885280300,12.0912802734375,-0.2120717465877533,-0.11779654771089554,-0.26138028502464294
1732873778895275000,12.10127490234375,-0.22129161655902863,-0.03254290297627449,-0.05207473412156105
1732873778905270000,12.11127001953125,-0.2222660928964615,0.01174255646765232,0.11107638478279114
1732873778915266000,12.12126611328125,-0.20863763988018036,0.015671253204345703,0.2149660289287567
1732873778925261000,12.131260986328124,-0.19623492658138275,-0.0014134874800220132,0.2678696811199188
1732873778935256000,12.141256103515625,-0.1781368851661682,-0.0344952717423439,0.28341880440711975
1732873778945251300,12.151251220703125,-0.15161186456680298,-0.05009087547659874,0.2629002332687378
1732873778955247000,12.1612470703125,-0.10769792646169662,-0.02036201022565365,0.2234867960214615
1732873778965242000,12.1712421875,-0.05935082584619522,0.0424739308655262,0.18649065494537354
1732873778975237000,12.181237060546875,-0.014125024899840355,0.11155766248703003,0.1583050936460495
1732873778985232100,12.191232177734374,0.025537369772791862,0.1805461347103119,0.14870429039001465
1732873778995228200,12.201228271484375,0.06393109261989594,0.2313310205936432,0.1899377554655075
1732873779005223000,12.211222900390625,0.08844712376594543,0.24679145216941833,0.2453290820121765
1732873779015218000,12.221218017578124,0.10522477328777313,0.21700932085514069,0.3149246871471405
1732873779025213200,12.231213134765625,0.11656773835420609,0.16654923558235168,0.37046462297439575
1732873779035209200,12.241209228515626,0.1295064389705658,0.13583232462406158,0.37860217690467834
1732873779045204200,12.251204345703124,0.14341489970684052,0.14604277908802032,0.3328731060028076
1732873779055199200,12.26119921875,0.1441030651330948,0.2013225555419922,0.25666117668151855
1732873779065194200,12.2711943359375,0.14356553554534912,0.28418534994125366,0.14812728762626648
1732873779075190000,12.28118994140625,0.1316995620727539,0.37345850467681885,0.026919905096292496
1732873779085185000,12.29118505859375,0.11542166769504547,0.436948299407959,-0.07258106768131256
1732873779095180000,12.301179931640625,0.11548292636871338,0.4310784339904785,-0.1348194032907486
1732873779105175000,12.311175048828124,0.11926328390836716,0.3710513114929199,-0.15079809725284576
1732873779115171000,12.321171142578125,0.12406335771083832,0.28535744547843933,-0.12053234875202179
1732873779125166000,12.331166015625,0.13186725974082947,0.2018744796514511,-0.050160858780145645
1732873779135161000,12.3411611328125,0.13101984560489655,0.11461146920919418,0.011753909289836884
1732873779145156000,12.351156005859375,0.13171832263469696,0.03135395422577858,0.03529162332415581
1732873779155152100,12.361152099609376,0.1344163715839386,-0.010798029601573944,0.005766755435615778
1732873779165147100,12.371147216796874,0.1270899474620819,-0.0031813792884349823,-0.05443263053894043
1732873779175142100,12.38114208984375,0.11721386760473251,0.019368670880794525,-0.1256072223186493
1732873779185137200,12.39113720703125,0.09427475929260254,0.03613639622926712,-0.17860986292362213
