time,seconds_elapsed,z,y,x
1732873766921038000,0.1270380859375,0.060620736330747604,-0.18081292510032654,0.04438797011971474
1732873766931033000,0.137033203125,0.053032856434583664,-0.232222318649292,0.04075248911976814
1732873766941028400,0.1470283203125,0.05513063073158264,-0.2789227068424225,0.013011938892304897
1732873766951023400,0.1570234375,0.06326312571763992,-0.3221932351589203,-0.013246296904981136
1732873766961018400,0.167018310546875,0.06520989537239075,-0.36280056834220886,-0.04027764871716499
1732873766971014100,0.17701416015625,0.04801972210407257,-0.38491466641426086,-0.07200681418180466
1732873766981009200,0.187009033203125,0.020355870947241783,-0.382703959941864,-0.09409214556217194
1732873766991004200,0.197004150390625,-0.015115302987396717,-0.3789385259151459,-0.11694233119487762
1732873767000999200,0.206999267578125,-0.04544524475932121,-0.3745059669017792,-0.14732420444488525
1732873767010994200,0.216994140625,-0.05445578321814537,-0.33890748023986816,-0.1644459366798401
1732873767020989200,0.2269892578125,-0.048585910350084305,-0.31609484553337097,-0.1768498718738556
1732873767030984200,0.236984130859375,-0.0202229805290699,-0.26796194911003113,-0.1771569401025772
1732873767040979200,0.246979248046875,-0.007417436223477125,-0.20960435271263123,-0.1257973462343216
1732873767050974200,0.25697412109375,-0.02377776801586151,-0.15859976410865784,-0.0473581925034523
1732873767060969500,0.266969482421875,-0.05229729413986206,-0.09922618418931961,0.05356788635253906
1732873767070965200,0.27696533203125,-0.0656551793217659,-0.06547008454799652,0.1337021440267563
1732873767080960300,0.286960205078125,-0.06690366566181183,-0.007616374175995588,0.1838017851114273
1732873767090955300,0.296955322265625,-0.07200894504785538,0.057440657168626785,0.19488213956356049
1732873767100950300,0.3069501953125,-0.08246904611587524,0.09174297004938126,0.1774892956018448
1732873767110945300,0.3169453125,-0.08485603332519531,0.07417995482683182,0.14533349871635437
1732873767120940300,0.326940185546875,-0.10294342786073685,0.02485315129160881,0.1144498810172081
1732873767130935300,0.336935302734375,-0.10719995945692062,-0.0027297399938106537,0.0988626629114151
1732873767140930000,0.346929931640625,-0.08037153631448746,0.0035843485966324806,0.09317175298929214
1732873767150925000,0.356925048828125,-0.04402924329042435,0.03194994479417801,0.09504076093435287
1732873767160920000,0.366920166015625,-0.01501223910599947,0.05823241546750069,0.11177952587604523
1732873767170916400,0.376916259765625,0.00242161238566041,-0.013909423723816872,0.2021046280860901
1732873767180911400,0.386911376953125,0.04219299182295799,-0.1485884040594101,0.36576226353645325
1732873767190906400,0.39690625,0.10074471682310104,-0.1420961618423462,0.47336170077323914
1732873767200901400,0.4069013671875,0.1373876929283142,-0.07580102235078812,0.505089282989502
1732873767210896100,0.416896240234375,0.15318448841571808,-0.022554578259587288,0.44928112626075745
1732873767220891100,0.42689111328125,0.156105175614357,0.0007523429812863469,0.3591853380203247
1732873767230886100,0.43688623046875,0.1449795663356781,0.013963486067950726,0.28566503524780273
1732873767240881200,0.446881103515625,0.11179603636264801,0.01978888548910618,0.21181398630142212
1732873767250876200,0.456876220703125,0.07221906632184982,-0.006453105714172125,0.1444687694311142
1732873767260872400,0.46687255859375,0.04752996936440468,-0.05620095506310463,0.09114935249090195
1732873767270867500,0.476867431640625,0.034439198672771454,-0.09673559665679932,0.05642252787947655
1732873767280862200,0.4868623046875,0.026612436398863792,-0.09862431138753891,0.03792154788970947
1732873767290857200,0.496857177734375,0.026553580537438393,-0.0595133937895298,0.029739519581198692
1732873767300852200,0.506852294921875,0.03177310898900032,-0.015728363767266273,0.014025271870195866
1732873767310847200,0.51684716796875,0.03798786178231239,0.009943177923560143,0.009693906642496586
1732873767320842200,0.52684228515625,0.04150350019335747,0.01477868016809225,0.01830417290329933
1732873767330837200,0.536837158203125,0.03995087742805481,0.009379919618368149,0.029859362170100212
1732873767340832300,0.546832275390625,0.0381910614669323,-0.0017931063193827868,0.03358512371778488
1732873767350828300,0.556828369140625,0.0328703336417675,-0.0007267766632139683,0.03197071701288223
1732873767360823000,0.566822998046875,0.02803642861545086,-0.008013717830181122,0.026820961385965347
1732873767370818000,0.576818115234375,0.0286452267318964,-0.006090383045375347,0.013732856139540672
1732873767380813300,0.586813232421875,0.02708301693201065,0.007456052117049694,-0.000937166390940547
1732873767390808300,0.596808349609375,0.01908261515200138,0.02028130367398262,-0.019041601568460464
1732873767400803300,0.60680322265625,0.0105354655534029,0.01907915249466896,-0.031423170119524
1732873767410798300,0.61679833984375,0.004960670135915279,0.013799701817333698,-0.041905906051397324
1732873767420793300,0.62679345703125,-0.003061037277802825,0.008189486339688301,-0.047500405460596085
1732873767430789000,0.6367890625,-0.004785700235515833,0.003082342678681016,-0.046666570007801056
1732873767440784100,0.6467841796875,-0.008741559460759163,-0.0029348034877330065,-0.036734845489263535
1732873767450779100,0.656779052734375,-0.009490973316133022,-0.014565360732376575,-0.022936474531888962
1732873767460774100,0.666774169921875,-0.0018162758788093925,-0.014760836958885193,-0.008870190940797329
1732873767470769200,0.67676904296875,0.0016101471846923232,-0.009354619309306145,0.007510913070291281
1732873767480764200,0.68676416015625,0.0002490055630914867,-0.014504374004900455,0.01835423894226551
1732873767490759200,0.69675927734375,0.00126713200006634,-0.020447218790650368,0.021887987852096558
1732873767500754400,0.70675439453125,-0.0015227955300360918,-0.021922076120972633,0.0158921480178833
1732873767510749400,0.71674951171875,-0.006702910177409649,-0.02532373182475567,-0.0025856629945337772
1732873767520745200,0.7267451171875,-0.011225223541259766,-0.020312728360295296,-0.00881133507937193
1732873767530740200,0.736740234375,-0.01642584428191185,-0.013764814473688602,-0.003988616168498993
1732873767540735200,0.7467353515625,-0.01846369542181492,-0.0036400086246430874,0.02130874991416931
1732873767550730200,0.756730224609375,-0.021941518411040306,0.005923669319599867,0.06490576267242432
1732873767560725200,0.766725341796875,-0.02340439148247242,-0.0025041704066097736,0.10340708494186401
1732873767570720300,0.77672021484375,-0.026746658608317375,0.0020564929582178593,0.12922003865242004
1732873767580715300,0.78671533203125,-0.03752846643328667,0.012370383366942406,0.13705772161483765
1732873767590711300,0.796711181640625,-0.04700745642185211,0.020915135741233826,0.12807461619377136
1732873767600706300,0.806706298828125,-0.049914028495550156,0.025531725957989693,0.10054285079240799
1732873767610701300,0.816701416015625,-0.05175081267952919,0.03139334172010422,0.06157707795500755
1732873767620696300,0.8266962890625,-0.045825280249118805,0.041425738483667374,0.03205593675374985
1732873767630691300,0.83669140625,-0.03558702394366264,0.06901475042104721,0.008303203620016575
1732873767640686300,0.846686279296875,-0.026460902765393257,0.08303762972354889,-0.015871107578277588
1732873767650681300,0.856681396484375,-0.01948954537510872,0.08193428069353104,-0.04206382855772972
1732873767660676400,0.86667626953125,-0.025608956813812256,0.08686565607786179,-0.084738589823246
1732873767670672100,0.876672119140625,-0.022007564082741737,0.09792150557041168,-0.12224521487951279
1732873767680667100,0.886667236328125,-0.017424263060092926,0.09468016773462296,-0.12724344432353973
1732873767690662100,0.896662109375,-0.013345632702112198,0.08620385825634003,-0.09913323819637299
1732873767700657400,0.906657470703125,-0.00830773077905178,0.09017010778188705,-0.06457845866680145
1732873767710652400,0.91665234375,-0.006215285509824753,0.12248250842094421,-0.031982965767383575
1732873767720647400,0.9266474609375,-0.007301056291908026,0.14587678015232086,-0.0052381716668605804
1732873767730642400,0.936642333984375,-0.011634019203484058,0.14971812069416046,0.010469152592122555
1732873767740637200,0.94663720703125,-0.021632591262459755,0.1237509697675705,0.0037260286044329405
1732873767750633200,0.95663330078125,-0.04079696536064148,0.07329392433166504,-0.012880644761025906
1732873767760628200,0.966628173828125,-0.05618550628423691,0.0329291895031929,-0.03188363090157509
1732873767770623200,0.976623291015625,-0.06448738276958466,0.016210928559303284,-0.0352671779692173
1732873767780618200,0.9866181640625,-0.0733700841665268,0.009290170855820179,-0.01678936555981636
1732873767790613200,0.99661328125,-0.07918217033147812,0.01002147514373064,0.015312643721699715
1732873767800608300,1.006608154296875,-0.07913529872894287,-0.0006823018775321543,0.05008846893906593
1732873767810603300,1.016603271484375,-0.07323692739009857,-0.011887552216649055,0.07479514181613922
1732873767820599300,1.026599365234375,-0.06911569088697433,-0.023243270814418793,0.08439850062131882
1732873767830594300,1.03659423828125,-0.06941263377666473,-0.03617318347096443,0.09050646424293518
1732873767840589300,1.04658935546875,-0.07234903424978256,-0.057014551013708115,0.1015271544456482
1732873767850584300,1.056584228515625,-0.08414790034294128,-0.0759272575378418,0.10552509129047394
1732873767860579300,1.066579345703125,-0.09715770930051804,-0.07381164282560349,0.0982368215918541
1732873767870574300,1.07657421875,-0.12088540941476822,-0.058700330555438995,0.08514898270368576
1732873767880569300,1.0865693359375,-0.1398838609457016,-0.05921085923910141,0.07819893211126328
1732873767890564000,1.096564208984375,-0.1657218486070633,-0.06130436807870865,0.07178524136543274
1732873767900560100,1.10656005859375,-0.18727721273899078,-0.07751476764678955,0.04318688437342644
1732873767910555400,1.116555419921875,-0.20938678085803986,-0.07996833324432373,0.019509784877300262
1732873767920550400,1.12655029296875,-0.22418463230133057,-0.11224105209112167,-0.01483700331300497
1732873767930545400,1.13654541015625,-0.23907117545604706,-0.06523039937019348,-0.009643572382628918
1732873767940540400,1.14654052734375,-0.24258893728256226,-0.034512437880039215,0.014084127731621265
1732873767950535400,1.156535400390625,-0.2527257204055786,-0.008788165636360645,0.020187826827168465
1732873767960530200,1.1665302734375,-0.268351286649704,-0.005416336935013533,0.007050719112157822
1732873767970525200,1.176525146484375,-0.29096364974975586,-0.023898407816886902,-0.025301361456513405
1732873767980521200,1.186521240234375,-0.3162969946861267,-0.0504985935986042,-0.0742473304271698
1732873767990516200,1.19651611328125,-0.3366382122039795,-0.07022782415151596,-0.12900911271572113
1732873768000511200,1.20651123046875,-0.3430668115615845,-0.07984822988510132,-0.18058548867702484
1732873768010506200,1.21650634765625,-0.32125020027160645,-0.07236900180578232,-0.23059485852718353
1732873768020501200,1.226501220703125,-0.28006094694137573,-0.022489063441753387,-0.28162580728530884
1732873768030496300,1.236496337890625,-0.23291075229644775,0.055441420525312424,-0.3229040205478668
1732873768040491300,1.2464912109375,-0.19566111266613007,0.14396941661834717,-0.3459020256996155
1732873768050486300,1.256486328125,-0.18160708248615265,0.22279232740402222,-0.34053415060043335
1732873768060482300,1.266482421875,-0.17476008832454681,0.31689831614494324,-0.29921919107437134
1732873768070477300,1.276477294921875,-0.16090711951255798,0.37357890605926514,-0.22804860770702362
1732873768080472300,1.286472412109375,-0.1544167399406433,0.34755662083625793,-0.1349373161792755
1732873768090467300,1.29646728515625,-0.1410018652677536,0.296924889087677,0.008726379834115505
1732873768100462000,1.306462158203125,-0.10884445905685425,0.2791043519973755,0.18603219091892242
1732873768110457000,1.31645703125,-0.07486572116613388,0.271375834941864,0.35822445154190063
1732873768120452000,1.3264521484375,-0.04676484316587448,0.2758401036262512,0.4776640236377716
1732873768130448400,1.336448486328125,-0.020679712295532227,0.2949237823486328,0.531760573387146
1732873768140443400,1.346443359375,0.024696025997400284,0.28794896602630615,0.5331704616546631
1732873768150438400,1.3564384765625,0.05705982446670532,0.24168400466442108,0.488612562417984
1732873768160433400,1.366433349609375,0.07775658369064331,0.2103886604309082,0.41153696179389954
1732873768170428200,1.37642822265625,0.10014950484037399,0.21618422865867615,0.3234750032424927
1732873768180423200,1.386423095703125,0.14997191727161407,0.240979865193367,0.25331854820251465
1732873768190418200,1.396418212890625,0.18094502389431,0.24388030171394348,0.23659522831439972
1732873768200413200,1.4064130859375,0.19346827268600464,0.2673605978488922,0.2809288799762726
1732873768210409200,1.4164091796875,0.18344226479530334,0.2558773159980774,0.34607431292533875
1732873768220404200,1.426404296875,0.1511322557926178,0.25747546553611755,0.3871921896934509
1732873768230399200,1.436399169921875,0.1509237289428711,0.2497754842042923,0.3891562819480896
1732873768240394200,1.446394287109375,0.1487138420343399,0.15501008927822113,0.37635764479637146
1732873768250389200,1.45638916015625,0.16146345436573029,0.04077699035406113,0.39537501335144043
1732873768260384300,1.46638427734375,0.13124483823776245,-0.02454262785613537,0.3976443111896515
1732873768270379300,1.476379150390625,0.1361120343208313,-0.07557571679353714,0.3718063235282898
1732873768280374300,1.486374267578125,0.1202734112739563,-0.12671959400177002,0.3638988435268402
1732873768290370300,1.496370361328125,0.09395445883274078,-0.08891415596008301,0.3822738826274872
1732873768300365300,1.506365234375,0.0880046933889389,-0.006309028714895248,0.3930245041847229
1732873768310360300,1.5163603515625,0.06460349261760712,0.04607082158327103,0.3598271608352661
1732873768320355000,1.52635498046875,0.06487806886434555,0.13709020614624023,0.3189218044281006
1732873768330350000,1.53635009765625,0.067228302359581,0.21097615361213684,0.26932016015052795
1732873768340345000,1.546344970703125,0.07976832985877991,0.19449438154697418,0.22867658734321594
1732873768350340400,1.55634033203125,0.10072794556617737,0.14476357400417328,0.19733144342899323
1732873768360336400,1.56633642578125,0.11368581652641296,0.059633769094944,0.1438027024269104
1732873768370331400,1.576331298828125,0.10863779485225677,-0.07128802686929703,0.07180361449718475
1732873768380326100,1.586326171875,0.09573877602815628,-0.24253568053245544,-0.024293888360261917
1732873768390321200,1.596321044921875,0.06903446465730667,-0.4413640797138214,-0.14932024478912354
1732873768400316200,1.606316162109375,-0.0007440872141160071,-0.6180717349052429,-0.3093818128108978
1732873768410311200,1.616311279296875,-0.05986759439110756,-0.6590285301208496,-0.46689102053642273
1732873768420306200,1.62630615234375,-0.10549819469451904,-0.5632676482200623,-0.5347896218299866
1732873768430301200,1.63630126953125,-0.1058254987001419,-0.395999014377594,-0.42440560460090637
1732873768440297500,1.64629736328125,-0.06986163556575775,-0.2704876959323883,-0.12733745574951172
1732873768450292200,1.656292236328125,-0.020552413538098335,-0.24702736735343933,0.246287539601326
1732873768460287200,1.666287353515625,0.03645974025130272,-0.3065069317817688,0.5207305550575256
1732873768470282200,1.6762822265625,0.06572122126817703,-0.4733704924583435,0.5739479660987854
1732873768480277200,1.68627734375,0.05180380865931511,-0.6331862807273865,0.44819268584251404
1732873768490272300,1.696272216796875,-0.006779076531529427,-0.6925326585769653,0.20683759450912476
1732873768500267300,1.706267333984375,-0.10088720172643661,-0.7066633701324463,-0.07003101706504822
1732873768510262300,1.71626220703125,-0.1474917232990265,-0.5829358696937561,-0.3401908576488495
1732873768520258300,1.72625830078125,-0.18134476244449615,-0.3602639138698578,-0.5517369508743286
1732873768530253000,1.736253173828125,-0.2070399969816208,-0.14132677018642426,-0.6324019432067871
1732873768540248000,1.746248046875,-0.20508258044719696,0.019569173455238342,-0.5369462966918945
1732873768550243000,1.7562431640625,-0.1919763684272766,0.0896715596318245,-0.30354630947113037
1732873768560238300,1.76623828125,-0.18944182991981506,0.07113995403051376,-0.01449958048760891
1732873768570233300,1.7762333984375,-0.20291289687156677,-0.011107778176665306,0.24092578887939453
1732873768580228400,1.786228271484375,-0.2207595407962799,-0.1215144470334053,0.41117581725120544
1732873768590224400,1.796224365234375,-0.24194446206092834,-0.20773881673812866,0.467959463596344
1732873768600219100,1.80621923828125,-0.26308488845825195,-0.1951734870672226,0.42305484414100647
1732873768610214100,1.816214111328125,-0.2655850648880005,-0.08893626183271408,0.31588420271873474
1732873768620209200,1.826209228515625,-0.24863964319229126,0.052670400589704514,0.18903756141662598
1732873768630204200,1.8362041015625,-0.2220863252878189,0.17908427119255066,0.07844394445419312
1732873768640199200,1.84619921875,-0.21327286958694458,0.2535558342933655,-0.0016359798610210419
1732873768650194200,1.856194091796875,-0.21377113461494446,0.2502245008945465,-0.030234068632125854
1732873768660190500,1.8661904296875,-0.1713581681251526,0.19427333772182465,-0.056043561547994614
1732873768670185200,1.876185302734375,-0.13637036085128784,0.11546614021062851,-0.10482627898454666
1732873768680180200,1.88618017578125,-0.13220304250717163,-0.0034591800067573786,-0.1573914885520935
1732873768690175200,1.89617529296875,-0.1358630210161209,-0.1389954388141632,-0.19309090077877045
1732873768700170200,1.906170166015625,-0.14738093316555023,-0.25795644521713257,-0.2251977026462555
1732873768710165200,1.916165283203125,-0.16454340517520905,-0.3204200863838196,-0.2554243206977844
1732873768720160300,1.92616015625,-0.1948922574520111,-0.32029280066490173,-0.2831619381904602
1732873768730155300,1.9361552734375,-0.22167406976222992,-0.25921452045440674,-0.2846900522708893
1732873768740151000,1.946151123046875,-0.22971734404563904,-0.17054323852062225,-0.24956348538398743
1732873768750146000,1.95614599609375,-0.22425121068954468,-0.08828911930322647,-0.18957099318504333
1732873768760141000,1.96614111328125,-0.19990992546081543,-0.019881563261151314,-0.12321913987398148
1732873768770136300,1.97613623046875,-0.1587182730436325,0.01233656145632267,-0.07748786360025406
1732873768780131300,1.98613134765625,-0.12058873474597931,0.02358894981443882,-0.058333348482847214
1732873768790126300,1.996126220703125,-0.085747130215168,0.034029606729745865,-0.06512707471847534
1732873768800121300,2.006121337890625,-0.06522613763809204,0.04204465448856354,-0.08744223415851593
1732873768810117000,2.0161171875,-0.05847262963652611,0.04933851957321167,-0.09751004725694656
1732873768820112100,2.026112060546875,-0.05252925306558609,0.03362294286489487,-0.10122675448656082
1732873768830107100,2.036107177734375,-0.04459223523736,0.028621790930628777,-0.09093896299600601
1732873768840102100,2.04610205078125,-0.036546025425195694,0.04915529489517212,-0.07950414717197418
1732873768850097200,2.05609716796875,-0.02353488653898239,0.07076658308506012,-0.07921572774648666
1732873768860092200,2.066092041015625,-0.0111059146001935,0.06711246073246002,-0.09051471948623657
1732873768870087200,2.076087158203125,0.0016445019282400608,0.040638506412506104,-0.1078558936715126
1732873768880082200,2.086082275390625,0.013049222528934479,0.030610106885433197,-0.12631213665008545
1732873768890078200,2.096078125,0.023739684373140335,0.04430701211094856,-0.13237987458705902
1732873768900073200,2.1060732421875,0.025370337069034576,0.07315623760223389,-0.10916803032159805
1732873768910068200,2.116068115234375,0.02642521634697914,0.11542992293834686,-0.06234646588563919
1732873768920063200,2.126063232421875,0.018066352233290672,0.15732917189598083,-0.005824865773320198
1732873768930058200,2.136058349609375,0.010978881269693375,0.18099269270896912,0.055745553225278854
1732873768940053200,2.14605322265625,-0.001770469476468861,0.1532665193080902,0.09838782250881195
1732873768950048300,2.15604833984375,-0.025678198784589767,0.14584162831306458,0.06308655440807343
1732873768960044000,2.1660439453125,-0.07720530778169632,0.20656488835811615,-0.08154892176389694
1732873768970039300,2.176039306640625,-0.161503404378891,0.3089999258518219,-0.3095301687717438
1732873768980034300,2.186034423828125,-0.2912379801273346,0.4265933930873871,-0.5712432265281677
1732873768990029300,2.196029296875,-0.48875582218170166,0.39668238162994385,-0.7786385416984558
1732873769000024300,2.2060244140625,-0.5918270945549011,0.42452651262283325,-0.955407977104187
1732873769010019300,2.216019287109375,-0.6520749926567078,0.4607580304145813,-1.059791088104248
1732873769020014300,2.226014404296875,-0.6692190766334534,0.42968371510505676,-1.0568366050720215
1732873769030009300,2.23600927734375,-0.7047216892242432,0.30343711376190186,-0.9775322079658508
1732873769040005000,2.246005126953125,-0.7569159269332886,0.008949819020926952,-0.9080556035041809
1732873769050000100,2.256000244140625,-0.9041922092437744,-0.3186805248260498,-0.9667562246322632
1732873769059995100,2.2659951171875,-1.0106219053268433,-0.4949761927127838,-1.186151385307312
1732873769069990100,2.275990234375,-0.9795202016830444,-0.6733400821685791,-1.3555908203125
1732873769079985200,2.285985107421875,-0.8335859179496765,-0.6627904772758484,-1.1935267448425293
1732873769089980400,2.29598046875,-0.5987238883972168,-0.5062317848205566,-0.6369932293891907
1732873769099976200,2.30597607421875,-0.37123027443885803,-0.2496468424797058,0.16028368473052979
1732873769109971200,2.31597119140625,-0.273278146982193,-0.2163405567407608,0.9701464176177979
1732873769119966200,2.32596630859375,-0.18059082329273224,-0.2972114384174347,1.527012586593628
1732873769129961200,2.335961181640625,-0.10315514355897903,-0.39041247963905334,1.7805378437042236
1732873769139956200,2.345956298828125,-0.07347874343395233,-0.5043137669563293,1.7734487056732178
1732873769149951200,2.355951171875,-0.0766252726316452,-0.5720957517623901,1.5571385622024536
1732873769159946200,2.3659462890625,-0.1111222580075264,-0.6549882292747498,1.1911110877990723
1732873769169941200,2.375941162109375,-0.1176760345697403,-0.6620778441429138,0.715877115726471
1732873769179937300,2.385937255859375,-0.10718157887458801,-0.5983534455299377,0.22361551225185394
1732873769189932300,2.395932373046875,-0.1325836032629013,-0.48379382491111755,-0.1820686012506485
1732873769199927300,2.40592724609375,-0.20561841130256653,-0.3007467985153198,-0.4237605929374695
1732873769209922300,2.41592236328125,-0.31250303983688354,-0.0794740542769432,-0.48241353034973145
1732873769219917300,2.425917236328125,-0.34465593099594116,0.1146051436662674,-0.381320983171463
1732873769229912300,2.435912353515625,-0.41909366846084595,0.19900311529636383,-0.16688032448291779
1732873769239907300,2.4459072265625,-0.512346625328064,0.26531341671943665,0.07066511362791061
1732873769249903000,2.455903076171875,-0.5630910396575928,0.3306168019771576,0.27819645404815674
1732873769259898000,2.465898193359375,-0.5798940062522888,0.3719852864742279,0.4241105318069458
1732873769269893000,2.47589306640625,-0.5727546215057373,0.36600860953330994,0.4719483554363251
1732873769279888100,2.48588818359375,-0.5347030758857727,0.31365966796875,0.4447020888328552
1732873769289883100,2.495883056640625,-0.4759353697299957,0.2596331834793091,0.40126487612724304
1732873769299878400,2.50587841796875,-0.4078924059867859,0.19753491878509521,0.35412612557411194
1732873769309873400,2.515873291015625,-0.3263101875782013,0.12950526177883148,0.3093740940093994
1732873769319869200,2.525869140625,-0.2481091469526291,0.06884857267141342,0.29475894570350647
1732873769329864200,2.5358642578125,-0.16867530345916748,0.014677213504910469,0.31324926018714905
1732873769339859200,2.545859130859375,-0.09478882700204849,-0.031976308673620224,0.338914155960083
1732873769349854200,2.555854248046875,-0.033250365406274796,-0.09533797204494476,0.34980568289756775
1732873769359849200,2.56584912109375,0.014652445912361145,-0.17920704185962677,0.3532179892063141
1732873769369844200,2.57584423828125,0.04471314325928688,-0.2558664083480835,0.37233495712280273
1732873769379839200,2.585839111328125,0.03934341296553612,-0.3241373300552368,0.3790551722049713
1732873769389835300,2.595835205078125,0.0323728546500206,-0.3274255394935608,0.3647846281528473
1732873769399830300,2.605830322265625,0.04559385031461716,-0.282584011554718,0.3535500764846802
1732873769409825300,2.6158251953125,0.0800359770655632,-0.20234644412994385,0.348370760679245
1732873769419820300,2.6258203125,0.1274743378162384,-0.10620313137769699,0.3554733991622925
1732873769429815300,2.635815185546875,0.19640253484249115,-0.04470595344901085,0.3865804672241211
1732873769439810800,2.645810791015625,0.247913658618927,-0.05416256934404373,0.43220415711402893
1732873769449805800,2.655805908203125,0.29150986671447754,-0.14465944468975067,0.47157683968544006
1732873769459801600,2.665801513671875,0.31977587938308716,-0.18877844512462616,0.4576234817504883
1732873769469796900,2.675796875,0.3615230619907379,0.06507167965173721,0.24740979075431824
1732873769479791900,2.6857919921875,0.47128230333328247,-0.009907225146889687,0.1247672289609909
1732873769489787000,2.695786865234375,0.3774269223213196,-0.21764656901359558,0.16050311923027039
1732873769499782000,2.705781982421875,0.36138322949409485,-0.2463272213935852,0.14262239634990692
1732873769509777000,2.71577685546875,0.3798466622829437,-0.14403998851776123,0.038724225014448166
1732873769519772000,2.72577197265625,0.3756503164768219,0.009900301694869995,-0.06444530189037323
1732873769529767700,2.735767578125,0.330547571182251,0.1576807051897049,-0.155784010887146
1732873769539762700,2.7457626953125,0.25919482111930847,0.20225057005882263,-0.2894701659679413
1732873769549757700,2.7557578125,0.15917980670928955,0.109105184674263,-0.47119733691215515
1732873769559752700,2.765752685546875,0.03608609735965729,-0.047088149935007095,-0.6637484431266785
1732873769569747700,2.775747802734375,-0.0964232087135315,-0.2718062102794647,-0.8365955352783203
1732873769579743000,2.785742919921875,-0.2110733538866043,-0.4528343081474304,-0.9525921940803528
1732873769589738000,2.795738037109375,-0.28871408104896545,-0.4310097098350525,-0.9425904154777527
1732873769599733800,2.805733642578125,-0.26857951283454895,-0.18890812993049622,-0.7439321875572205
1732873769609728800,2.815728759765625,-0.1566428691148758,0.15153972804546356,-0.3734167218208313
1732873769619723800,2.825723876953125,-0.07379087060689926,0.4306991994380951,0.10321027785539627
1732873769629718800,2.83571875,-0.03355902433395386,0.4472488760948181,0.6037713885307312
1732873769639713800,2.8457138671875,0.025525067001581192,0.2629410922527313,0.9518547654151917
1732873769649708800,2.855708740234375,0.00851226132363081,0.07237779349088669,1.0513744354248047
1732873769659704600,2.86570458984375,0.0285850390791893,-0.12285108864307404,0.894598126411438
1732873769669699800,2.875699951171875,0.06678355485200882,-0.29164597392082214,0.568001389503479
1732873769679694800,2.88569482421875,0.03453321009874344,-0.45149582624435425,0.14652019739151
1732873769689689900,2.89568994140625,-0.12958702445030212,-0.6871120929718018,-0.28351160883903503
1732873769699684900,2.905684814453125,-0.20242713391780853,-0.7866227030754089,-0.6630024909973145
1732873769709679900,2.915679931640625,-0.22561714053153992,-0.685756504535675,-0.9665716886520386
1732873769719675000,2.9256748046875,-0.2337091565132141,-0.4838271141052246,-1.1241182088851929
1732873769729670700,2.935670654296875,-0.22647441923618317,-0.2411670833826065,-1.052306056022644
1732873769739665700,2.945665771484375,-0.24238014221191406,-0.011902998201549053,-0.7548050880432129
1732873769749660700,2.95566064453125,-0.3298455476760864,0.15964771807193756,-0.36345890164375305
1732873769759655700,2.96565576171875,-0.34378984570503235,0.2396104633808136,-0.008826781064271927
1732873769769650700,2.975650634765625,-0.346578985452652,0.21321401000022888,0.21177883446216583
1732873769779645700,2.985645751953125,-0.36415451765060425,0.15526175498962402,0.3118537664413452
1732873769789642000,2.99564208984375,-0.32273223996162415,0.151300311088562,0.32175832986831665
1732873769799636700,3.00563671875,-0.20956574380397797,0.1516433209180832,0.23091204464435577
1732873769809631700,3.0156318359375,-0.047086287289857864,0.2216234654188156,0.11586907505989075
1732873769819626800,3.025626708984375,0.12382233887910843,0.31692415475845337,0.04427185654640198
1732873769829621800,3.035621826171875,0.29716724157333374,0.39185139536857605,0.021574534475803375
1732873769839616800,3.04561669921875,0.45410385727882385,0.4087904393672943,0.021804897114634514
1732873769849611800,3.05561181640625,0.5692581534385681,0.3700539469718933,0.056644637137651443
1732873769859607800,3.06560791015625,0.6114377975463867,0.25574761629104614,0.10183554887771606
1732873769869602600,3.0756025390625,0.5820847153663635,0.09606288373470306,0.1275387853384018
1732873769879597800,3.085597900390625,0.4613407254219055,-0.04135889187455177,0.11157632619142532
1732873769889592800,3.0955927734375,0.3034994304180145,-0.11938178539276123,0.050027746707201004
1732873769899587800,3.105587890625,0.12107422947883606,-0.17183594405651093,-0.06737025082111359
1732873769909582800,3.115582763671875,0.03520219400525093,-0.1863725334405899,-0.19478359818458557
1732873769919579000,3.125578857421875,0.010190585628151894,-0.16328400373458862,-0.2782689034938812
1732873769929574000,3.135573974609375,0.002258360618725419,-0.09613825380802155,-0.26801785826683044
1732873769939568600,3.145568603515625,0.021452827379107475,-0.011284878477454185,-0.1188744530081749
1732873769949563600,3.155563720703125,0.15478186309337616,0.1283036470413208,0.10626332461833954
1732873769959558700,3.16555859375,0.26707136631011963,0.31080955266952515,0.38110288977622986
1732873769969553700,3.1755537109375,0.33181309700012207,0.5986698269844055,0.6758468747138977
1732873769979548700,3.185548583984375,0.3237072229385376,0.8835383057594299,0.9317585825920105
1732873769989545000,3.195544921875,0.17589619755744934,0.9707816243171692,1.0216951370239258
1732873769999540000,3.2055400390625,-0.04789295792579651,0.965561032295227,0.8870331645011902
1732873770009534700,3.21553466796875,-0.2010928988456726,0.8528773188591003,0.5892025232315063
1732873770019529700,3.22552978515625,-0.3140285015106201,0.6512666940689087,0.24652323126792908
1732873770029524700,3.235524658203125,-0.2612372040748596,0.3816815912723541,-0.08686432242393494
1732873770039519700,3.245519775390625,-0.2528804540634155,0.42834150791168213,-0.47926458716392517
1732873770049515800,3.255515869140625,-0.26598799228668213,0.13337643444538116,-0.7540889978408813
1732873770059510800,3.2655107421875,-0.31203779578208923,-0.2165890336036682,-0.8720725774765015
1732873770069505800,3.275505859375,-0.2443642020225525,-0.5176559090614319,-0.9467687010765076
1732873770079500800,3.285500732421875,-0.25301334261894226,-0.7813488245010376,-1.0253667831420898
1732873770089495800,3.295495849609375,-0.36005139350891113,-1.018848180770874,-1.0247732400894165
1732873770099490800,3.30549072265625,-0.524967610836029,-1.2325855493545532,-0.9663810133934021
1732873770109485800,3.31548583984375,-0.6630173921585083,-1.3185478448867798,-0.8188900947570801
1732873770119481900,3.32548193359375,-0.720130443572998,-1.191980004310608,-0.5271309018135071
1732873770129476900,3.335476806640625,-0.6626970171928406,-0.8595277667045593,-0.10183102637529373
1732873770139472000,3.345471923828125,-0.5373068451881409,-0.4033397436141968,0.36009877920150757
1732873770149467000,3.355466796875,-0.3632972538471222,-0.01215599849820137,0.697871744632721
1732873770159461600,3.365461669921875,-0.20877479016780853,0.2199251800775528,0.8350613117218018
1732873770169456600,3.37545654296875,-0.09505674242973328,0.36798760294914246,0.7895958423614502
1732873770179453000,3.385452880859375,-0.03056216984987259,0.3708276152610779,0.5948431491851807
1732873770189448000,3.395447998046875,-0.02905934862792492,0.2684820592403412,0.2574669420719147
1732873770199443000,3.40544287109375,-0.055998288094997406,0.05811550095677376,-0.15448464453220367
1732873770209438000,3.41543798828125,-0.16661560535430908,-0.1931912899017334,-0.5568792223930359
1732873770219432700,3.4254326171875,-0.2624550461769104,-0.3814448118209839,-0.83952397108078
1732873770229427700,3.435427734375,-0.307422012090683,-0.447142094373703,-0.9394407272338867
1732873770239423700,3.445423828125,-0.3217924237251282,-0.43518581986427307,-0.8346570730209351
1732873770249418800,3.455418701171875,-0.318895161151886,-0.35836002230644226,-0.5305315256118774
1732873770259413800,3.465413818359375,-0.2952255308628082,-0.2523622214794159,-0.1220068633556366
1732873770269408800,3.47540869140625,-0.27653011679649353,-0.1515865921974182,0.24693362414836884
1732873770279403800,3.48540380859375,-0.27152764797210693,-0.07907750457525253,0.4550207853317261
1732873770289398800,3.495398681640625,-0.2477051317691803,0.030436469241976738,0.48684555292129517
1732873770299394800,3.505394775390625,-0.1989024430513382,0.11390925943851471,0.38967639207839966
1732873770309389800,3.515389892578125,-0.15876168012619019,0.15741118788719177,0.24637356400489807
1732873770319384800,3.525384765625,-0.12144413590431213,0.15416772663593292,0.11974743753671646
1732873770329379800,3.5353798828125,-0.06033870950341225,0.10826415568590164,0.03669090196490288
1732873770339374800,3.545374755859375,0.01588895171880722,0.040998831391334534,-0.006308762356638908
1732873770349369900,3.555369873046875,0.09051099419593811,-0.026806313544511795,-0.016025571152567863
1732873770359364900,3.56536474609375,0.14615879952907562,-0.08871468901634216,-0.012711534276604652
1732873770369360600,3.575360595703125,0.19431808590888977,-0.15659520030021667,-0.016531838104128838
1732873770379356000,3.58535595703125,0.22645284235477448,-0.21033087372779846,-0.037039242684841156
1732873770389351000,3.595350830078125,0.2539302706718445,-0.23927757143974304,-0.06626050919294357
1732873770399346000,3.605345947265625,0.2896651029586792,-0.27141207456588745,-0.09842031449079514
1732873770409341000,3.6153408203125,0.40459489822387695,-0.21922849118709564,-0.13153591752052307
1732873770419336000,3.6253359375,0.4970334768295288,-0.1280921846628189,-0.1870630979537964
1732873770429331700,3.635331787109375,0.5915325284004211,0.04194904863834381,-0.2537617087364197
1732873770439326200,3.645326171875,0.643096387386322,0.2666785717010498,-0.34863388538360596
1732873770449321200,3.6553212890625,0.6225695610046387,0.26177462935447693,-0.5421615242958069
1732873770459316200,3.665316162109375,0.5337715148925781,-0.07145021110773087,-0.6311185956001282
1732873770469311200,3.675311279296875,0.513009786605835,-0.14068414270877838,-0.48786768317222595
1732873770479306200,3.68530615234375,0.6041284799575806,-0.13595649600028992,-0.24070262908935547
1732873770489302300,3.69530224609375,0.7349382042884827,-0.13098251819610596,-0.018395518884062767
1732873770499297300,3.70529736328125,0.854546308517456,-0.12035331130027771,0.15544657409191132
1732873770509292300,3.715292236328125,0.9768093824386597,-0.10394397377967834,0.32683297991752625
1732873770519287300,3.725287353515625,1.1139137744903564,-0.033066872507333755,0.5218344330787659
1732873770529282300,3.7352822265625,1.2396173477172852,0.07213544845581055,0.6863301396369934
1732873770539277300,3.74527734375,1.3105442523956299,0.12441356480121613,0.7644758224487305
1732873770549273300,3.7552734375,1.29835844039917,0.11396252363920212,0.7140278220176697
1732873770559268400,3.765268310546875,1.1797508001327515,0.15856380760669708,0.40788787603378296
1732873770569263000,3.77526318359375,1.039626955986023,0.2668452858924866,-0.1597590446472168
1732873770579258000,3.785258056640625,0.8856036067008972,0.3421839773654938,-0.8248145580291748
1732873770589253000,3.795253173828125,0.7814468145370483,0.35939037799835205,-1.367790699005127
1732873770599248400,3.805248291015625,0.7750387191772461,0.3216049373149872,-1.5527222156524658
1732873770609244400,3.815244384765625,0.7861563563346863,0.2126355618238449,-1.307936668395996
1732873770619239400,3.825239501953125,0.7953538298606873,0.06067106872797012,-0.7437228560447693
1732873770629234400,3.835234375,0.8058424592018127,-0.045048169791698456,-0.11599664390087128
1732873770639229200,3.845229248046875,0.7996577620506287,0.039384689182043076,0.38169196248054504
1732873770649224200,3.85522412109375,0.7762238383293152,0.22010253369808197,0.6582114696502686
1732873770659219200,3.86521923828125,0.7131604552268982,0.2967594861984253,0.6172043681144714
1732873770669215200,3.87521533203125,0.6177910566329956,0.3657601475715637,0.3586532175540924
1732873770679210200,3.885210205078125,0.5395470857620239,0.39467087388038635,0.025660090148448944
1732873770689205500,3.89520556640625,0.494294136762619,0.3588052988052368,-0.2586219608783722
1732873770699200500,3.905200439453125,0.46602335572242737,0.2722315192222595,-0.433738648891449
1732873770709195300,3.9151953125,0.4392324984073639,0.17160291969776154,-0.496274471282959
1732873770719190300,3.925190185546875,0.41393566131591797,0.0878443643450737,-0.4441625475883484
1732873770729186300,3.935186279296875,0.3966416120529175,0.062188271433115005,-0.3062419593334198
1732873770739181300,3.945181396484375,0.40740105509757996,0.10506756603717804,-0.1071016862988472
1732873770749176300,3.95517626953125,0.436201274394989,0.2008257806301117,0.11014674603939056
1732873770759171300,3.96517138671875,0.4570964574813843,0.28328177332878113,0.30586403608322144
1732873770769166300,3.975166259765625,0.46276339888572693,0.31620511412620544,0.44007351994514465
1732873770779161000,3.9851611328125,0.4479415714740753,0.3130924105644226,0.5055779814720154
1732873770789157400,3.995157470703125,0.4190545082092285,0.2852306663990021,0.5157245993614197
1732873770799152400,4.00515234375,0.3807404339313507,0.22525815665721893,0.4672292470932007
1732873770809147400,4.0151474609375,0.34034720063209534,0.1446240246295929,0.378139853477478
1732873770819142400,4.025142333984375,0.3065766990184784,0.06821713596582413,0.27500972151756287
1732873770829137400,4.035137451171875,0.27372634410858154,0.01696486957371235,0.17364555597305298
1732873770839132400,4.04513232421875,0.2379334717988968,0.0033864756114780903,0.0805683434009552
1732873770849128200,4.055128173828125,0.20010966062545776,0.009469135664403439,-0.0026911243330687284
1732873770859123200,4.065123291015625,0.15527108311653137,0.01630680076777935,-0.06325726956129074
1732873770869118200,4.0751181640625,0.10315514355897903,0.016233565285801888,-0.09292807430028915
1732873770879113200,4.08511328125,0.04971775412559509,-0.01004917174577713,-0.09863603115081787
1732873770889108200,4.095108154296875,-0.0030956584960222244,-0.057904310524463654,-0.10690195113420486
1732873770899103500,4.105103515625,-0.05252073332667351,-0.12154720723628998,-0.14872635900974274
1732873770909099300,4.115099365234375,-0.10789503902196884,-0.20471878349781036,-0.2518082559108734
1732873770919094300,4.12509423828125,-0.1719677597284317,-0.2947205901145935,-0.389504075050354
1732873770929089300,4.13508935546875,-0.24442598223686218,-0.3720289468765259,-0.5395764112472534
1732873770939084300,4.145084228515625,-0.31595930457115173,-0.41689202189445496,-0.6753938794136047
1732873770949079300,4.155079345703125,-0.371570885181427,-0.4062327444553375,-0.7779735326766968
1732873770959075300,4.165075439453125,-0.39987310767173767,-0.3343854248523712,-0.8383617997169495
1732873770969070000,4.175070068359375,-0.41531118750572205,-0.23249289393424988,-0.8664267063140869
1732873770979065000,4.185065185546875,-0.43075671792030334,-0.13212049007415771,-0.8947007060050964
1732873770989060400,4.195060302734375,-0.4682060778141022,-0.0649542286992073,-0.9252604246139526
1732873770999055400,4.205055419921875,-0.5383760929107666,-0.01960805617272854,-0.9430210590362549
1732873771009050400,4.21505029296875,-0.6112945079803467,0.049249839037656784,-0.8737086057662964
1732873771019046400,4.22504638671875,-0.6178917288780212,0.1931164562702179,-0.6381855607032776
1732873771029041400,4.23504150390625,-0.5628156661987305,0.3662395179271698,-0.21174021065235138
1732873771039036200,4.2450361328125,-0.4638659358024597,0.4852953255176544,0.34289371967315674
1732873771049031200,4.25503125,-0.35909000039100647,0.5433218479156494,0.8319544792175293
1732873771059026200,4.265026123046875,-0.2772236168384552,0.5132942199707031,1.1311579942703247
1732873771069021200,4.275021240234375,-0.23659096658229828,0.4585185647010803,1.16677725315094
1732873771079017500,4.285017578125,-0.2165757119655609,0.40569210052490234,0.9702907800674438
1732873771089012500,4.295012451171875,-0.2066059112548828,0.3507375121116638,0.5841734409332275
1732873771099007500,4.305007568359375,-0.1943710744380951,0.27860552072525024,0.0911613330245018
1732873771109002200,4.315002197265625,-0.15447133779525757,0.22211802005767822,-0.42100927233695984
1732873771118997200,4.324997314453125,-0.0932130366563797,0.16033588349819183,-0.8003211617469788
1732873771128992300,4.3349921875,0.01691187173128128,0.12502795457839966,-0.9379938244819641
1732873771138988300,4.34498828125,0.1688510626554489,0.10231305658817291,-0.8568797707557678
1732873771148983300,4.3549833984375,0.34153681993484497,0.10127415508031845,-0.6341913342475891
1732873771158978300,4.364978271484375,0.5090962648391724,0.10713710635900497,-0.3764708340167999
1732873771168973300,4.374973388671875,0.6490193009376526,0.13099370896816254,-0.1871003806591034
1732873771178968000,4.384968017578125,0.7233701944351196,0.14655135571956635,-0.10734989494085312
1732873771188963000,4.394963134765625,0.7423028945922852,0.1311950385570526,-0.08590985089540482
1732873771198959400,4.40495947265625,0.7068077325820923,0.15545296669006348,-0.06512413918972015
1732873771208954400,4.414954345703125,0.6623089909553528,0.1714540421962738,-0.0311089176684618
1732873771218949400,4.424949462890625,0.6066797971725464,0.18815073370933533,0.02822045236825943
1732873771228944400,4.4349443359375,0.5435456037521362,0.15623274445533752,0.10601618140935898
1732873771238939400,4.444939453125,0.5087969303131104,0.07273811846971512,0.18043449521064758
1732873771248935200,4.45493505859375,0.5012670755386353,-0.02159077860414982,0.2534237504005432
1732873771258930200,4.46493017578125,0.5178543329238892,-0.09981554001569748,0.32775601744651794
1732873771268925200,4.47492529296875,0.5454225540161133,-0.1597806066274643,0.38053348660469055
1732873771278920200,4.484920166015625,0.5483294129371643,-0.21018332242965698,0.4181349277496338
1732873771288915500,4.49491552734375,0.5107144117355347,-0.24845854938030243,0.43097031116485596
1732873771298910500,4.504910400390625,0.43072476983070374,-0.26532861590385437,0.41133642196655273
1732873771308906200,4.51490625,0.31251075863838196,-0.2542826235294342,0.4112147092819214
1732873771318901200,4.5249013671875,0.19495457410812378,-0.1609838306903839,0.4874013662338257
1732873771328896300,4.534896240234375,0.0755634680390358,-0.0038450718857347965,0.5675140023231506
1732873771338891300,4.544891357421875,-0.03929866850376129,0.08891788870096207,0.6271669864654541
1732873771348886300,4.55488623046875,-0.1424410343170166,0.11545522511005402,0.7001085877418518
1732873771358881300,4.56488134765625,-0.2815685570240021,0.048540905117988586,0.8230371475219727
1732873771368877000,4.574876953125,-0.343965083360672,-0.11558491736650467,0.9658054709434509
1732873771378872300,4.584872314453125,-0.3352336585521698,-0.25744351744651794,1.0717164278030396
1732873771388867300,4.594867431640625,-0.22728988528251648,-0.28430870175361633,1.1237919330596924
1732873771398862300,4.6048623046875,-0.07966260612010956,-0.2529717981815338,1.1063545942306519
1732873771408857300,4.614857421875,0.09228305518627167,-0.19842466711997986,0.984919548034668
1732873771418852400,4.624852294921875,0.19430556893348694,-0.04737523943185806,0.7240988612174988
1732873771428848400,4.634848388671875,0.15324893593788147,0.2762523591518402,0.3659556210041046
1732873771438844000,4.644843994140625,0.05638391524553299,0.4990646541118622,-0.05826463922858238
1732873771448839000,4.6548388671875,-0.16008687019348145,0.717653214931488,-0.40519648790359497
1732873771458834000,4.664833984375,-0.14717267453670502,0.6480107307434082,-0.5511422753334045
1732873771468829000,4.674828857421875,-0.029646042734384537,0.4875992238521576,-0.517194390296936
1732873771478825000,4.684824951171875,0.24038784205913544,0.25775057077407837,-0.30885717272758484
1732873771488819700,4.69481982421875,0.5772311091423035,-0.005428054835647345,0.004434429574757814
1732873771498814700,4.704814697265625,0.6401299238204956,-0.037511955946683884,0.23405857384204865
1732873771508809700,4.714809814453125,0.5666455626487732,0.018678613007068634,0.3332352340221405
1732873771518805000,4.724804931640625,0.45359331369400024,0.04218926653265953,0.29734939336776733
1732873771528800000,4.734800048828125,0.3262614607810974,0.13357457518577576,0.17154991626739502
1732873771538796000,4.744796142578125,0.20277202129364014,0.28368017077445984,0.008839564397931099
1732873771548791000,4.754791015625,0.11727070063352585,0.44401606917381287,-0.1688460111618042
1732873771558785800,4.764785888671875,0.07590541988611221,0.5447157621383667,-0.32361215353012085
1732873771568780800,4.77478076171875,0.0738300159573555,0.5555964112281799,-0.4264988601207733
1732873771578775800,4.78477587890625,0.10185685753822327,0.47729864716529846,-0.4514380395412445
1732873771588770800,4.794770751953125,0.15094637870788574,0.3572492003440857,-0.3808070123195648
1732873771598766800,4.804766845703125,0.2070397287607193,0.2268456667661667,-0.2548767626285553
1732873771608762000,4.81476220703125,0.2564474940299988,0.12310275435447693,-0.10480790585279465
1732873771618757000,4.824757080078125,0.29269152879714966,0.08484511822462082,0.02370905689895153
1732873771628752000,4.834751953125,0.31093522906303406,0.0853457897901535,0.10339190065860748
1732873771638747000,4.844746826171875,0.32064804434776306,0.08953787386417389,0.12782560288906097
1732873771648743000,4.854742919921875,0.32350295782089233,0.07320603728294373,0.11394068598747253
1732873771658738000,4.864738037109375,0.3209870755672455,0.03549168258905411,0.0743836835026741
1732873771668733000,4.87473291015625,0.3104633390903473,-0.011494736187160015,0.034998197108507156
1732873771678728000,4.88472802734375,0.29357409477233887,-0.03435158357024193,0.0023877902422100306
1732873771688723000,4.894722900390625,0.2786366939544678,-0.028427381068468094,-0.033116407692432404
1732873771698718000,4.904718017578125,0.2771945893764496,-0.00177899154368788,-0.06106708198785782
1732873771708714000,4.9147138671875,0.2771330773830414,0.009547432884573936,-0.07178444415330887
1732873771718709000,4.924708984375,0.2739101052284241,0.01224468182772398,-0.07183077931404114
1732873771728704000,4.9347041015625,0.2719886302947998,0.01486203633248806,-0.0699511244893074
1732873771738699000,4.944698974609375,0.25104954838752747,-0.016396017745137215,-0.07523616403341293
1732873771748694000,4.954694091796875,0.21200652420520782,-0.07689691334962845,-0.08492154628038406
1732873771758689800,4.964689697265625,0.16890592873096466,-0.10057534277439117,-0.11583232879638672
1732873771768684800,4.974684814453125,0.1310967653989792,-0.08638229221105576,-0.17308975756168365
1732873771778679800,4.9846796875,0.09918863326311111,-0.06192142516374588,-0.23944534361362457
1732873771788674800,4.9946748046875,0.0714038759469986,-0.031384289264678955,-0.2832711338996887
1732873771798669800,5.004669921875,0.04742397367954254,0.0004319647268857807,-0.2876914441585541
1732873771808664800,5.014664794921875,0.029017269611358643,0.03375077247619629,-0.25266820192337036
1732873771818660900,5.024660888671875,0.020313793793320656,0.06172221899032593,-0.18212133646011353
1732873771828655900,5.03465576171875,0.013954698108136654,0.09361676871776581,-0.09648632258176804
1732873771838651000,5.04465087890625,0.012856942601501942,0.13063976168632507,-0.01661466248333454
1732873771848646000,5.05464599609375,0.013457219116389751,0.13816693425178528,0.040701888501644135
1732873771858641000,5.064640869140625,0.024871794506907463,0.11851892620325089,0.060014333575963974
1732873771868637000,5.074636962890625,0.034997131675481796,0.10859039425849915,0.021209415048360825
1732873771878632000,5.0846318359375,0.06267989426851273,0.13074736297130585,-0.05083521828055382
1732873771888626700,5.094626708984375,0.098215252161026,0.1744634211063385,-0.12214561551809311
1732873771898621700,5.10462158203125,0.13899676501750946,0.22475720942020416,-0.1777936965227127
1732873771908617000,5.114616943359375,0.1594274789094925,0.2505693733692169,-0.1914442628622055
1732873771918612000,5.124612060546875,0.17154991626739502,0.20074056088924408,-0.14590926468372345
1732873771928608000,5.13460791015625,0.1812233179807663,0.10715840756893158,-0.05856610834598541
1732873771938603000,5.14460302734375,0.17954978346824646,-0.0008452873444184661,0.06839583814144135
1732873771948598000,5.154597900390625,0.17116641998291016,-0.10063579678535461,0.2077646404504776
1732873771958592800,5.1645927734375,0.15450595319271088,-0.16907770931720734,0.33653008937835693
1732873771968587800,5.174587890625,0.1442631632089615,-0.1945095658302307,0.4062007665634155
1732873771978583800,5.184583740234375,0.13436420261859894,-0.17217415571212769,0.4127441644668579
1732873771988578800,5.194578857421875,0.12025583535432816,-0.12545539438724518,0.3761539161205292
1732873771998574000,5.204573974609375,0.10977710038423538,-0.08047273755073547,0.3238081634044647
1732873772008569000,5.214569091796875,0.10612164437770844,-0.06065535917878151,0.25495558977127075
1732873772018564000,5.224564208984375,0.09674491733312607,-0.07300097495317459,0.17387458682060242
1732873772028560000,5.234559814453125,0.07413201779127121,-0.10146190971136093,0.08866861462593079
1732873772038555000,5.244554931640625,0.05273272097110748,-0.13689206540584564,0.012357067316770554
1732873772048550000,5.2545498046875,0.04096128046512604,-0.16383181512355804,-0.031214112415909767
1732873772058545000,5.264544921875,0.030796261504292488,-0.1643146425485611,-0.03393106907606125
1732873772068540000,5.274539794921875,0.02635437622666359,-0.1580173373222351,0.011989018879830837
1732873772078535000,5.284534912109375,0.012941631488502026,-0.130494624376297,0.08202509582042694
1732873772088531000,5.294531005859375,-0.004614192992448807,-0.09522371739149094,0.14868055284023285
1732873772098526000,5.30452587890625,-0.026339994743466377,-0.07943756878376007,0.19106049835681915
1732873772108521000,5.31452099609375,-0.05055638402700424,-0.07961120456457138,0.2061409205198288
1732873772118516000,5.324515869140625,-0.0688597559928894,-0.06811273843050003,0.20669911801815033
1732873772128511000,5.334510986328125,-0.08564246445894241,-0.04820374771952629,0.18639251589775085
1732873772138507000,5.344507080078125,-0.09984643757343292,-0.053999319672584534,0.13523505628108978
1732873772148501800,5.354501708984375,-0.12842082977294922,-0.07089894264936447,0.06297550350427628
1732873772158496800,5.364496826171875,-0.16405098140239716,-0.10910757631063461,-0.022875754162669182
1732873772168491800,5.37449169921875,-0.2064325362443924,-0.1689125895500183,-0.0969822034239769
1732873772178486800,5.38448681640625,-0.25064605474472046,-0.20489828288555145,-0.14493562281131744
1732873772188481800,5.394481689453125,-0.29089441895484924,-0.20900088548660278,-0.18100334703922272
1732873772198478000,5.40447802734375,-0.3281043767929077,-0.1837000548839569,-0.21522256731987
1732873772208473000,5.41447314453125,-0.3651076555252075,-0.1620941013097763,-0.2581668198108673
1732873772218467800,5.4244677734375,-0.39780330657958984,-0.14141331613063812,-0.30344218015670776
1732873772228462800,5.434462890625,-0.4278200566768646,-0.12599948048591614,-0.3561227023601532
1732873772238457900,5.444457763671875,-0.45058155059814453,-0.10837361216545105,-0.3951132297515869
1732873772248454000,5.454453857421875,-0.474344402551651,-0.0913458913564682,-0.43037721514701843
1732873772258449000,5.464448974609375,-0.4971669018268585,-0.10736693441867828,-0.4639487564563751
1732873772268444000,5.47444384765625,-0.5130478739738464,-0.1347128003835678,-0.4929378032684326
1732873772278439000,5.48443896484375,-0.519136905670166,-0.13859543204307556,-0.5198607444763184
1732873772288434000,5.494433837890625,-0.5312473773956299,-0.12807594239711761,-0.559631884098053
1732873772298430000,5.504429931640625,-0.5466635823249817,-0.11419714242219925,-0.6006919741630554
1732873772308425000,5.514425048828125,-0.5703620314598083,-0.08810402452945709,-0.6129496693611145
1732873772318420000,5.524419921875,-0.5918633341789246,-0.049732401967048645,-0.576147198677063
1732873772328415000,5.5344150390625,-0.6026768088340759,-0.0017353157745674253,-0.5078307390213013
1732873772338410000,5.544409912109375,-0.6101030111312866,0.03056003898382187,-0.43378978967666626
1732873772348405800,5.55440576171875,-0.608943521976471,0.05151166021823883,-0.376760870218277
1732873772358400800,5.56440087890625,-0.6035114526748657,0.06012246012687683,-0.3362792134284973
1732873772368395800,5.574395751953125,-0.5858272314071655,0.06495583057403564,-0.29162225127220154
1732873772378391000,5.58439111328125,-0.5659305453300476,0.0635257139801979,-0.23414725065231323
1732873772388386000,5.594385986328125,-0.5415958762168884,0.060214072465896606,-0.14924301207065582
1732873772398381000,5.604381103515625,-0.501047670841217,0.0543212965130806,-0.04686976969242096
1732873772408376800,5.614376953125,-0.44147220253944397,0.060804493725299835,0.05433114990592003
1732873772418371800,5.624371826171875,-0.372427374124527,0.07889721542596817,0.14035896956920624
1732873772428366800,5.634366943359375,-0.3054738938808441,0.0990552082657814,0.18327635526657104
1732873772438361000,5.644361083984375,-0.22142294049263,0.12580347061157227,0.1736665964126587
1732873772448356000,5.654356201171875,-0.13378949463367462,0.1568165123462677,0.11941427737474442
1732873772458352400,5.664352294921875,-0.048218127340078354,0.16784065961837769,0.051957741379737854
1732873772468347400,5.674347412109375,0.024775654077529907,0.14591459929943085,0.0043859598226845264
1732873772478342400,5.68434228515625,0.08217902481555939,0.10257484763860703,-0.010305634699761868
1732873772488337200,5.694337158203125,0.1362055093050003,0.04924025014042854,-0.009952233172953129
1732873772498332200,5.704332275390625,0.18631954491138458,0.030918767675757408,0.03521870821714401
1732873772508328200,5.714328125,0.23106330633163452,0.05838740989565849,0.1207495853304863
1732873772518323200,5.7243232421875,0.28174272179603577,0.1143697202205658,0.238797128200531
1732873772528318200,5.734318115234375,0.3330719769001007,0.1787540316581726,0.36899054050445557
1732873772538313200,5.744313232421875,0.37642210721969604,0.2461826056241989,0.4922693371772766
1732873772548308200,5.75430810546875,0.40027469396591187,0.2961597442626953,0.6009233593940735
1732873772558303200,5.76430322265625,0.40093544125556946,0.3409922122955322,0.6768532991409302
1732873772568299300,5.77429931640625,0.39223170280456543,0.3827116787433624,0.7083805799484253
1732873772578294300,5.784294189453125,0.37639281153678894,0.41728484630584717,0.6882370114326477
1732873772588289300,5.794289306640625,0.3406694233417511,0.43877655267715454,0.6047836542129517
1732873772598284300,5.8042841796875,0.2788396179676056,0.43516770005226135,0.46953368186950684
1732873772608279300,5.814279296875,0.2138260006904602,0.4132842421531677,0.3174349367618561
1732873772618275000,5.824275146484375,0.1675887256860733,0.3992432653903961,0.18097510933876038
1732873772628270000,5.83427001953125,0.15344467759132385,0.4076620638370514,0.09106093645095825
1732873772638265000,5.84426513671875,0.1629369854927063,0.4104551672935486,0.05373513326048851
1732873772648260400,5.85426025390625,0.18318793177604675,0.3920823037624359,0.04782957211136818
1732873772658255400,5.86425537109375,0.2134273201227188,0.3522736132144928,0.08274015039205551
1732873772668251400,5.87425146484375,0.24331757426261902,0.3087429404258728,0.15425534546375275
1732873772678246100,5.88424609375,0.2603602111339569,0.26890790462493896,0.24332237243652344
1732873772688241200,5.8942412109375,0.26459357142448425,0.19846169650554657,0.31599390506744385
1732873772698236200,5.904236083984375,0.26455095410346985,0.11378062516450882,0.3293360769748688
1732873772708231200,5.914231201171875,0.2634612023830414,0.016378173604607582,0.2704932689666748
1732873772718227200,5.924227294921875,0.2839196026325226,-0.08532661199569702,0.16930407285690308
1732873772728222200,5.93422216796875,0.3332519829273224,-0.17091794312000275,0.06413531303405762
1732873772738217500,5.944217529296875,0.400709867477417,-0.20983605086803436,-0.012111790478229523
1732873772748212200,5.954212158203125,0.4824691712856293,-0.20383621752262115,-0.07396344095468521
1732873772758207200,5.964207275390625,0.5724179744720459,-0.16698738932609558,-0.1404987871646881
1732873772768202200,5.9742021484375,0.6516534090042114,-0.10811901092529297,-0.22904862463474274
1732873772778198300,5.9841982421875,0.7050034403800964,-0.06963074207305908,-0.348854124546051
1732873772788193300,5.994193359375,0.7339855432510376,-0.10629528015851974,-0.4339647591114044
1732873772798188300,6.004188232421875,0.7501160502433777,-0.19966037571430206,-0.4579848647117615
1732873772808183300,6.014183349609375,0.7660212516784668,-0.32842421531677246,-0.4130118191242218
1732873772818178300,6.02417822265625,0.8004878759384155,-0.4778786897659302,-0.3129320740699768
1732873772828174300,6.03417431640625,0.8334906101226807,-0.6302213668823242,-0.17659901082515717
1732873772838169300,6.04416943359375,0.8367159366607666,-0.7447106242179871,-0.036966804414987564
1732873772848164400,6.054164306640625,0.7997467517852783,-0.805080235004425,0.03900172933936119
1732873772858159400,6.064159423828125,0.7279902696609497,-0.8168604969978333,0.015243933536112309
1732873772868154400,6.074154296875,0.6278591156005859,-0.7679480314254761,-0.12157410383224487
1732873772878150100,6.084150146484375,0.45766663551330566,-0.6251416206359863,-0.43726229667663574
1732873772888145200,6.094145263671875,0.23922057449817657,-0.38129836320877075,-0.9190957546234131
1732873772898140200,6.10414013671875,0.013161075301468372,-0.10749822854995728,-1.4180197715759277
1732873772908135200,6.11413525390625,-0.1881858855485916,0.12580133974552155,-1.7092894315719604
1732873772918130200,6.124130126953125,-0.3278478980064392,0.27202433347702026,-1.6720584630966187
1732873772928126200,6.134126220703125,-0.3838464617729187,0.31786292791366577,-1.2963029146194458
1732873772938121200,6.144121337890625,-0.3861072361469269,0.30638229846954346,-0.6678987145423889
1732873772948116200,6.1541162109375,-0.3614780306816101,0.26251551508903503,0.02094949036836624
1732873772958111200,6.164111328125,-0.3377799093723297,0.19490957260131836,0.5561511516571045
1732873772968106200,6.174106201171875,-0.332269549369812,0.13318122923374176,0.8390632271766663
1732873772978102300,6.184102294921875,-0.3255637288093567,0.11437717825174332,0.9199501276016235
1732873772988097300,6.19409716796875,-0.3185843825340271,0.13490109145641327,0.8699663281440735
1732873772998092300,6.20409228515625,-0.31256988644599915,0.16487230360507965,0.7337131500244141
1732873773008087000,6.214087158203125,-0.2927759289741516,0.18286249041557312,0.546033501625061
1732873773018082000,6.22408203125,-0.26580610871315,0.1908746063709259,0.3294556736946106
1732873773028078300,6.234078369140625,-0.23489107191562653,0.17463812232017517,0.11324160546064377
1732873773038073300,6.2440732421875,-0.21395356953144073,0.14415611326694489,-0.07235249131917953
1732873773048068400,6.254068359375,-0.19173507392406464,0.1057642474770546,-0.2055334448814392
1732873773058063400,6.2640634765625,-0.1737195998430252,0.09435047209262848,-0.29096153378486633
1732873773068058400,6.274058349609375,-0.152908056974411,0.09188918024301529,-0.31194618344306946
1732873773078054100,6.28405419921875,-0.13078650832176208,0.09072723984718323,-0.27658551931381226
1732873773088049200,6.294049072265625,-0.11421605199575424,0.10334529727697372,-0.20747889578342438
1732873773098044200,6.304044189453125,-0.11033076792955399,0.12098900228738785,-0.13361984491348267
1732873773108039200,6.3140390625,-0.11980096995830536,0.13120941817760468,-0.06509537994861603
1732873773118034400,6.324034423828125,-0.1361389309167862,0.13374900817871094,-0.0022921827621757984
1732873773128030200,6.3340302734375,-0.1545400470495224,0.13542599976062775,0.045874014496803284
1732873773138025200,6.344025146484375,-0.16771017014980316,0.13779674470424652,0.08355188369750977
1732873773148020200,6.354020263671875,-0.17873725295066833,0.13680285215377808,0.13087493181228638
1732873773158015200,6.36401513671875,-0.19155211746692657,0.1391376554965973,0.1792062371969223
1732873773168010200,6.37401025390625,-0.19060270488262177,0.1451859474182129,0.22897326946258545
1732873773178005200,6.384005126953125,-0.1881299614906311,0.15630865097045898,0.281127005815506
1732873773188001300,6.394001220703125,-0.18548384308815002,0.16576500236988068,0.32984021306037903
1732873773197996000,6.40399609375,-0.18467611074447632,0.16543370485305786,0.36211854219436646
1732873773207991300,6.4139912109375,-0.17298242449760437,0.14949467778205872,0.3592873215675354
1732873773217986300,6.423986328125,-0.17703096568584442,0.1038222685456276,0.3170836865901947
1732873773227981300,6.433981201171875,-0.17536382377147675,0.030715301632881165,0.23718352615833282
1732873773237977300,6.443977294921875,-0.15970391035079956,-0.050285808742046356,0.13168266415596008
1732873773247972400,6.453972412109375,-0.14838707447052002,-0.11285357922315598,0.030764037743210793
1732873773257967400,6.46396728515625,-0.13950888812541962,-0.16170793771743774,-0.06064363941550255
1732873773267962000,6.473962158203125,-0.12846849858760834,-0.19202803075313568,-0.11280830949544907
1732873773277957000,6.48395703125,-0.12563489377498627,-0.19778072834014893,-0.10902395844459534
1732873773287953200,6.493953125,-0.12010563164949417,-0.18461191654205322,-0.06373583525419235
1732873773297948400,6.503948486328125,-0.09414993226528168,-0.19743557274341583,-0.02936081774532795
1732873773307943400,6.513943359375,-0.07413680851459503,-0.24096360802650452,-0.05748113617300987
1732873773317938400,6.5239384765625,-0.060258813202381134,-0.29262521862983704,-0.17369402945041656
1732873773327933200,6.53393310546875,-0.05645075812935829,-0.31994977593421936,-0.35269439220428467
1732873773337929200,6.54392919921875,-0.062251657247543335,-0.3176400065422058,-0.5800945162773132
1732873773347924200,6.55392431640625,-0.06660272926092148,-0.26892173290252686,-0.8288015723228455
1732873773357919200,6.563919189453125,-0.06135603412985802,-0.22973385453224182,-1.0345687866210938
1732873773367914200,6.573914306640625,-0.03947124257683754,-0.22875621914863586,-1.1149193048477173
1732873773377909200,6.5839091796875,-0.0020298613235354424,-0.27505847811698914,-1.0312018394470215
1732873773387905300,6.5939052734375,0.04874436929821968,-0.3794693052768707,-0.802842378616333
1732873773397900300,6.603900390625,0.11710212379693985,-0.5160814523696899,-0.4874522089958191
1732873773407895300,6.613895263671875,0.1854228526353836,-0.6076254844665527,-0.18050692975521088
1732873773417890300,6.623890380859375,0.23134426772594452,-0.6258122324943542,0.041010282933712006
1732873773427886300,6.63388623046875,0.2548418641090393,-0.5908893942832947,0.14346475899219513
1732873773437882000,6.643882080078125,0.2516878843307495,-0.5296540260314941,0.13936614990234375
1732873773447877000,6.653877197265625,0.22695910930633545,-0.46116575598716736,0.058035071939229965
1732873773457872100,6.6638720703125,0.19681638479232788,-0.39329108595848083,-0.06806320697069168
1732873773467867100,6.6738671875,0.16120247542858124,-0.3227282464504242,-0.2513989508152008
1732873773477862100,6.683862060546875,0.12241512537002563,-0.2815682888031006,-0.45780831575393677
1732873773487858200,6.693858154296875,0.08761800080537796,-0.22450155019760132,-0.6143840551376343
1732873773497853000,6.70385302734375,0.08548454195261002,-0.1549837291240692,-0.6769097447395325
1732873773507848000,6.713847900390625,0.10859598219394684,-0.08563287556171417,-0.6221943497657776
1732873773517843000,6.723843017578125,0.15978087484836578,-0.018018415197730064,-0.4473963975906372
1732873773527838200,6.733838134765625,0.22444109618663788,0.04977181553840637,-0.16184668242931366
1732873773537834200,6.743834228515625,0.27989503741264343,0.09145002067089081,0.1696537435054779
1732873773547829200,6.753829345703125,0.3133144974708557,0.11190523207187653,0.46046000719070435
1732873773557824300,6.76382421875,0.32876935601234436,0.13689367473125458,0.6731837391853333
1732873773567819000,6.773819091796875,0.3294844329357147,0.19858074188232422,0.793582558631897
1732873773577815000,6.78381494140625,0.3165867328643799,0.30762651562690735,0.8227044939994812
1732873773587810000,6.79381005859375,0.3006839454174042,0.4674212634563446,0.7769034504890442
1732873773597805000,6.80380517578125,0.2809496521949768,0.6788927316665649,0.669468104839325
1732873773607800000,6.813800048828125,0.2532053589820862,0.9069464206695557,0.5086879730224609
1732873773617795300,6.82379541015625,0.21107788383960724,1.0990668535232544,0.3208174407482147
1732873773627791000,6.833791015625,0.1513461172580719,1.1365606784820557,0.11088284105062485
1732873773637786000,6.8437861328125,0.0751325711607933,1.010572910308838,-0.07883862406015396
1732873773647781000,6.853781005859375,0.011065434664487839,0.8057186007499695,-0.1718716323375702
1732873773657776000,6.863776123046875,-0.020180368795990944,0.5941776037216187,-0.13299374282360077
1732873773667771100,6.873771240234375,-0.0016466324450448155,0.4206175208091736,-0.003020557342097163
1732873773677767000,6.883766845703125,0.06986323744058609,0.30557990074157715,0.16490106284618378
1732873773687762000,6.893761962890625,0.1941220760345459,0.26070642471313477,0.331111341714859
1732873773697757000,6.9037568359375,0.3411083221435547,0.2609194815158844,0.48959288001060486
1732873773707752200,6.913752197265625,0.4637375771999359,0.26563194394111633,0.639651894569397
1732873773717747200,6.923747314453125,0.5352301001548767,0.25054699182510376,0.7491277456283569
1732873773727743200,6.9337431640625,0.5457879900932312,0.22181256115436554,0.7756214141845703
1732873773737738200,6.94373828125,0.5147024989128113,0.16287574172019958,0.7201765179634094
1732873773747733000,6.95373291015625,0.46125444769859314,0.0923328623175621,0.6207514405250549
1732873773757728000,6.96372802734375,0.3951055109500885,0.03411881998181343,0.5031241178512573
1732873773767723000,6.973722900390625,0.33625683188438416,0.00009560748003423214,0.38471120595932007
1732873773777719000,6.983718994140625,0.28520190715789795,-0.019539080560207367,0.2635192573070526
1732873773787714000,6.993714111328125,0.2464076429605484,-0.0031427964568138123,0.16138222813606262
1732873773797709300,7.003709228515625,0.21682286262512207,0.029141640290617943,0.08656685054302216
1732873773807704300,7.013704345703125,0.20090727508068085,0.0501936636865139,0.04254213348031044
1732873773817699000,7.023698974609375,0.19477134943008423,0.054897602647542953,0.009615875780582428
1732873773827695000,7.033695068359375,0.19918660819530487,0.034989409148693085,-0.030348584055900574
1732873773837690000,7.043690185546875,0.219783753156662,-0.014025271870195866,-0.07918696105480194
1732873773847685000,7.05368505859375,0.2422776222229004,-0.08505231142044067,-0.1294940710067749
1732873773857680100,7.06368017578125,0.26664286851882935,-0.16973310708999634,-0.16172204911708832
1732873773867675100,7.073675048828125,0.3019481301307678,-0.23988530039787292,-0.15696245431900024
1732873773877671200,7.083671142578125,0.3373316824436188,-0.28202423453330994,-0.11719373613595963
1732873773887666200,7.093666259765625,0.36521124839782715,-0.3096638321876526,-0.07222998887300491
1732873773897661200,7.1036611328125,0.38553890585899353,-0.2963767945766449,-0.07590994238853455
1732873773907656200,7.11365625,0.39332011342048645,-0.2664268910884857,-0.13287335634231567
1732873773917651200,7.123651123046875,0.37824371457099915,-0.23257333040237427,-0.2002827674150467
1732873773927647200,7.133647216796875,0.35224539041519165,-0.20034374296665192,-0.2295013666152954
1732873773937642000,7.14364208984375,0.3200933039188385,-0.20539416372776031,-0.18460845947265625
1732873773947637000,7.153636962890625,0.2825464904308319,-0.24843111634254456,-0.09109289199113846
1732873773957632000,7.163632080078125,0.24988466501235962,-0.3082451820373535,0.01726021245121956
1732873773967627000,7.173626953125,0.21098174154758453,-0.3641185760498047,0.09967759251594543
1732873773977623300,7.183623291015625,0.16330024600028992,-0.40783488750457764,0.061886269599199295
1732873773987618300,7.193618408203125,0.0970463901758194,-0.42786240577697754,-0.1208832785487175
1732873773997613300,7.20361328125,0.014080398716032505,-0.38337722420692444,-0.42168891429901123
1732873774007608000,7.213608154296875,-0.08807925879955292,-0.2555111348628998,-0.8123559951782227
1732873774017604000,7.22360400390625,-0.20168305933475494,-0.09615662693977356,-1.21446692943573
1732873774027599000,7.23359912109375,-0.3017289638519287,0.07231361418962479,-1.4681344032287598
1732873774037594000,7.243593994140625,-0.34359011054039,0.2077270895242691,-1.46670663356781
1732873774047589000,7.253589111328125,-0.3370930850505829,0.28670525550842285,-1.2140206098556519
1732873774057584000,7.263584228515625,-0.31486180424690247,0.31682002544403076,-0.785357654094696
1732873774067580200,7.273580078125,-0.2746528685092926,0.33327409625053406,-0.2948553264141083
1732873774077575200,7.2835751953125,-0.24868011474609375,0.36552685499191284,0.12837181985378265
1732873774087570200,7.293570068359375,-0.24836906790733337,0.3733152747154236,0.4071563184261322
1732873774097565200,7.303565185546875,-0.2650068998336792,0.3424454927444458,0.5386003851890564
1732873774107560200,7.313560302734375,-0.2775045931339264,0.3114790618419647,0.5600683689117432
1732873774117556000,7.323555908203125,-0.26780641078948975,0.2856149673461914,0.5476873517036438
1732873774127551000,7.333551025390625,-0.256391316652298,0.27379825711250305,0.5621024966239929
1732873774137546000,7.3435458984375,-0.2659059762954712,0.28303730487823486,0.5927214026451111
1732873774147541000,7.353541015625,-0.29705536365509033,0.2819587290287018,0.619187593460083
1732873774157536000,7.363535888671875,-0.3583328425884247,0.26505136489868164,0.6137973666191101
1732873774167532300,7.3735322265625,-0.4094778001308441,0.255307674407959,0.5953067541122437
1732873774177527300,7.38352734375,-0.44691145420074463,0.2846546471118927,0.596391499042511
1732873774187522000,7.39352197265625,-0.46127307415008545,0.3379567265510559,0.5977718234062195
1732873774197517000,7.40351708984375,-0.45896652340888977,0.37133893370628357,0.5892750024795532
1732873774207512000,7.413511962890625,-0.435899555683136,0.3592385947704315,0.5590614080429077
1732873774217508000,7.423508056640625,-0.39358964562416077,0.32007548213005066,0.5255234241485596
1732873774227503000,7.433503173828125,-0.3421757221221924,0.2819318175315857,0.502764880657196
1732873774237498000,7.443498046875,-0.29117298126220703,0.24766279757022858,0.47972506284713745
1732873774247493000,7.4534931640625,-0.25476571917533875,0.22186022996902466,0.4348207116127014
1732873774257489200,7.4634892578125,-0.24752190709114075,0.2053355723619461,0.3434377908706665
1732873774267484200,7.473484130859375,-0.2726363241672516,0.19873200356960297,0.17011579871177673
1732873774277479200,7.483479248046875,-0.32024192810058594,0.2288944274187088,-0.05447229743003845
1732873774287474200,7.49347412109375,-0.37594538927078247,0.2870493531227112,-0.27113696932792664
1732873774297469200,7.50346923828125,-0.44061973690986633,0.3537018895149231,-0.4339975118637085
1732873774307465000,7.51346484375,-0.4947463572025299,0.39000582695007324,-0.5105977654457092
1732873774317460000,7.5234599609375,-0.5245673656463623,0.3744646906852722,-0.5187973380088806
1732873774327455000,7.533455078125,-0.5316071510314941,0.31199705600738525,-0.4745694398880005
1732873774337450000,7.543449951171875,-0.5128292441368103,0.20540668070316315,-0.38204482197761536
1732873774347445000,7.553445068359375,-0.47033289074897766,0.10664016008377075,-0.28016453981399536
1732873774357441300,7.563441162109375,-0.4226900041103363,0.03267325833439827,-0.22324533760547638
1732873774367436300,7.573436279296875,-0.38968944549560547,0.005487177055329084,-0.2644481658935547
1732873774377431000,7.58343115234375,-0.38772404193878174,0.029819946736097336,-0.42331159114837646
1732873774387426000,7.593426025390625,-0.41439583897590637,0.08929739147424698,-0.6763955354690552
1732873774397421000,7.603421142578125,-0.4856697618961334,0.17193713784217834,-0.9456924796104431
1732873774407417000,7.6134169921875,-0.5446507930755615,0.2219901829957962,-1.1184074878692627
1732873774417412000,7.623412109375,-0.5808623433113098,0.21104539930820465,-1.1336075067520142
1732873774427407000,7.633406982421875,-0.5703553557395935,0.13041472434997559,-1.0009983777999878
1732873774437401900,7.64340185546875,-0.5264331698417664,0.013463078066706657,-0.7744656205177307
1732873774447396900,7.65339697265625,-0.45339199900627136,-0.09557605534791946,-0.5569985508918762
1732873774457392600,7.663392578125,-0.348408043384552,-0.1439467817544937,-0.44331032037734985
1732873774467387600,7.6733876953125,-0.22959618270397186,-0.10702285915613174,-0.45932018756866455
1732873774477382700,7.683382568359375,-0.13594478368759155,-0.02480042167007923,-0.586606502532959
1732873774487377700,7.693377685546875,-0.07489608228206635,0.036141760647296906,-0.7420765161514282
1732873774497373700,7.703373779296875,-0.03298857435584068,0.032943569123744965,-0.8406773805618286
1732873774507368700,7.71336865234375,-0.003569700988009572,-0.02600204013288021,-0.7853030562400818
1732873774517363700,7.72336376953125,0.03164953738451004,-0.1312541663646698,-0.5583351850509644
1732873774527358700,7.733358642578125,0.09080899506807327,-0.24637381732463837,-0.185337096452713
1732873774537353700,7.743353759765625,0.16923563182353973,-0.29867297410964966,0.22578012943267822
1732873774547349800,7.753349853515625,0.27956268191337585,-0.25117629766464233,0.5821638107299805
1732873774557344800,7.7633447265625,0.3670520484447479,-0.12296480685472488,0.8021339774131775
1732873774567339800,7.77333984375,0.4206324517726898,0.04658800736069679,0.8665422797203064
1732873774577334500,7.78333447265625,0.44317635893821716,0.20754173398017883,0.7963682413101196
1732873774587329800,7.793329833984375,0.4728599488735199,0.321061909198761,0.7001538276672363
1732873774597325800,7.803325927734375,0.496905654668808,0.3447491228580475,0.6710777282714844
1732873774607320800,7.81332080078125,0.5171446204185486,0.26408037543296814,0.7459812164306641
1732873774617315800,7.82331591796875,0.5469735860824585,0.14186686277389526,0.8739485144615173
1732873774627310800,7.833310791015625,0.5716299414634705,0.05276574194431305,0.9821567535400391
1732873774637306600,7.843306640625,0.5885596871376038,0.02551388181746006,1.024162769317627
1732873774647301600,7.853301513671875,0.5903194546699524,0.07311975210905075,0.9845432043075562
1732873774657296600,7.863296630859375,0.5637853145599365,0.1680462658405304,0.8583839535713196
1732873774667291600,7.873291748046875,0.520258903503418,0.24800100922584534,0.6669564843177795
1732873774677287000,7.883286865234375,0.46628835797309875,0.29000067710876465,0.46985697746276855
1732873774687282700,7.89328271484375,0.4214726686477661,0.2769027054309845,0.313325434923172
1732873774697277700,7.903277587890625,0.3828003704547882,0.21115431189537048,0.222300186753273
1732873774707272700,7.913272705078125,0.3619411587715149,0.10080517083406448,0.19359290599822998
1732873774717267700,7.923267822265625,0.36429354548454285,-0.032883379608392715,0.20111286640167236
1732873774727262700,7.9332626953125,0.3870004415512085,-0.15366332232952118,0.2275085300207138
1732873774737258800,7.9432587890625,0.41490718722343445,-0.24507899582386017,0.24466566741466522
1732873774747253800,7.953253662109375,0.45543357729911804,-0.2752472758293152,0.23338478803634644
1732873774757248800,7.963248779296875,0.5015153288841248,-0.2417774796485901,0.18768520653247833
1732873774767243800,7.973243896484375,0.5413753986358643,-0.19967876374721527,0.16858288645744324
1732873774777238800,7.98323876953125,0.5633227229118347,-0.1911206841468811,0.18034207820892334
1732873774787234800,7.99323486328125,0.5568960309028625,-0.20871007442474365,0.21828386187553406
1732873774797229800,8.003229736328125,0.5273764729499817,-0.21923194825649261,0.2900952100753784
1732873774807224800,8.013224853515625,0.4822353422641754,-0.23441995680332184,0.3787318766117096
1732873774817219800,8.0232197265625,0.4208122193813324,-0.29181107878685,0.4279920756816864
1732873774827215600,8.033215576171875,0.36324504017829895,-0.37632063031196594,0.39028438925743103
1732873774837210600,8.043210693359375,0.3063391447067261,-0.45256027579307556,0.2260105013847351
1732873774847205600,8.05320556640625,0.2451341301202774,-0.45490971207618713,-0.06281039118766785
1732873774857201000,8.063200927734375,0.1833288073539734,-0.3638112246990204,-0.4357258975505829
1732873774867196000,8.07319580078125,0.1153755933046341,-0.2039470076560974,-0.811277449131012
1732873774877191700,8.083191650390624,0.023517576977610588,-0.045351769775152206,-1.1008511781692505
1732873774887186700,8.093186767578125,-0.07976673543453217,0.015578427352011204,-1.2184557914733887
1732873774897181700,8.103181640625,-0.16189250349998474,-0.05161472409963608,-1.0833989381790161
1732873774907176700,8.1131767578125,-0.2128470242023468,-0.157244473695755,-0.69710773229599
1732873774917172700,8.1231728515625,-0.22033317387104034,-0.22373269498348236,-0.18636588752269745
1732873774927167700,8.133167724609375,-0.19591037929058075,-0.23534780740737915,0.2824580669403076
1732873774937162800,8.143162841796874,-0.16861458122730255,-0.21224194765090942,0.5869865417480469
1732873774947157800,8.15315771484375,-0.1431550234556198,-0.15888525545597076,0.6997501254081726
1732873774957152800,8.16315283203125,-0.11433030664920807,-0.08503659814596176,0.6639342904090881
1732873774967148800,8.173148681640624,-0.08328290283679962,-0.024049941450357437,0.5147890448570251
1732873774977143800,8.183143798828125,-0.06859716773033142,0.011573565192520618,0.2745348811149597
1732873774987138800,8.193138916015625,-0.06367059051990509,0.002132925670593977,0.009165002964437008
1732873774997133800,8.2031337890625,-0.07952811568975449,-0.01266759168356657,-0.2231486588716507
1732873775007128800,8.21312890625,-0.11260457336902618,-0.007698932196944952,-0.3842528760433197
1732873775017124600,8.22312451171875,-0.15135197341442108,0.003403786104172468,-0.48041027784347534
1732873775027119600,8.23311962890625,-0.19686193764209747,0.021087175235152245,-0.5225920677185059
1732873775037115000,8.243114990234375,-0.24748915433883667,0.04392431303858757,-0.4926435053348541
1732873775047110000,8.25310986328125,-0.3004434406757355,0.059430837631225586,-0.38056305050849915
1732873775057105700,8.263105712890624,-0.34561091661453247,0.05994322896003723,-0.20173285901546478
1732873775067100700,8.2731005859375,-0.3709256052970886,0.04547826945781708,0.025619342923164368
1732873775077095700,8.283095703125,-0.3685697615146637,0.0335952453315258,0.3015289604663849
1732873775087090700,8.293090576171876,-0.3413674533367157,0.03996073082089424,0.5608116388320923
1732873775097085700,8.303085693359375,-0.3160053789615631,0.03453294187784195,0.7378559112548828
1732873775107081700,8.313081787109375,-0.3026754558086395,0.004001932218670845,0.8164399862289429
1732873775117076700,8.32307666015625,-0.30170419812202454,-0.029887856915593147,0.8166820406913757
1732873775127071700,8.33307177734375,-0.31568899750709534,-0.05733998864889145,0.7586632370948792
1732873775137066800,8.343066650390625,-0.3499729335308075,-0.07791929692029953,0.6594173312187195
1732873775147061800,8.353061767578126,-0.3861287832260132,-0.09676196426153183,0.5342114567756653
1732873775157057800,8.363057861328125,-0.4141806662082672,-0.10346753895282745,0.40574216842651367
1732873775167052800,8.373052734375,-0.41986653208732605,-0.10060197114944458,0.3006802201271057
1732873775177047800,8.3830478515625,-0.40242281556129456,-0.08557242155075073,0.2206343710422516
1732873775187042800,8.393042724609375,-0.37027713656425476,-0.09101992100477219,0.15143612027168274
1732873775197038600,8.40303857421875,-0.3358334004878998,-0.15637655556201935,0.08106156438589096
1732873775207033600,8.41303369140625,-0.29666441679000854,-0.2609778046607971,0.003355050226673484
1732873775217028900,8.42302880859375,-0.2661230266094208,-0.36695295572280884,-0.08074092119932175
1732873775227024000,8.43302392578125,-0.23505619168281555,-0.465487539768219,-0.15864743292331696
1732873775237019000,8.443018798828126,-0.21504385769367218,-0.5306249856948853,-0.22384801506996155
1732873775247014700,8.4530146484375,-0.2044181227684021,-0.5388123393058777,-0.27867451310157776
1732873775257009700,8.463009765625,-0.19902893900871277,-0.5226144790649414,-0.321323961019516
1732873775267004700,8.473004638671876,-0.20407989621162415,-0.48092055320739746,-0.3398076295852661
1732873775276999700,8.482999755859375,-0.20020899176597595,-0.3900604248046875,-0.3471164107322693
1732873775286995700,8.49299560546875,-0.19826382398605347,-0.25340670347213745,-0.4038041830062866
1732873775296990700,8.50299072265625,-0.19030389189720154,-0.10907988250255585,-0.54678875207901
1732873775306985700,8.51298583984375,-0.19815382361412048,0.010070477612316608,-0.7228908538818359
1732873775316980700,8.522980712890625,-0.21749237179756165,0.0561375729739666,-0.846914529800415
1732873775326975700,8.532975830078126,-0.21020649373531342,0.03286447376012802,-0.8020002841949463
1732873775336971800,8.5429716796875,-0.18978990614414215,-0.04584765061736107,-0.539543628692627
1732873775346966800,8.552966796875,-0.16105812788009644,-0.1534356325864792,-0.1349911093711853
1732873775356961800,8.5629619140625,-0.1115369126200676,-0.2384658306837082,0.25740596652030945
1732873775366956800,8.572956787109375,-0.04669187217950821,-0.25209349393844604,0.48417600989341736
1732873775376951800,8.582951904296875,0.020548684522509575,-0.1724548637866974,0.4936251640319824
1732873775386947600,8.592947509765626,0.0684344545006752,-0.04176449030637741,0.31372249126434326
1732873775396942800,8.60294287109375,0.07992279529571533,0.08488160371780396,-0.012121643871068954
1732873775406937900,8.612937744140625,0.07304411381483078,0.1733371615409851,-0.4239118695259094
1732873775416932900,8.622932861328126,0.04199086129665375,0.21198175847530365,-0.8614439368247986
1732873775426928600,8.6329287109375,0.019644808024168015,0.19567948579788208,-1.1654554605484009
1732873775436923000,8.6429228515625,0.022340193390846252,0.15403003990650177,-1.217217206954956
1732873775446918000,8.65291796875,0.04452832043170929,0.054850198328495026,-0.9974379539489746
1732873775456912600,8.66291259765625,0.08487174659967422,-0.06039463356137276,-0.5786159634590149
1732873775466908000,8.672907958984375,0.12875477969646454,-0.13330985605716705,-0.08478040248155594
1732873775476904000,8.682904052734376,0.15710040926933289,-0.13962633907794952,0.3230438232421875
1732873775486899000,8.69289892578125,0.1468656063079834,-0.0945022702217102,0.5598191022872925
1732873775496894000,8.70289404296875,0.12224681675434113,-0.049798447638750076,0.6119691133499146
1732873775506889000,8.712888916015626,0.09477204829454422,-0.01799684390425682,0.534007728099823
1732873775516884700,8.722884765625,0.07183424383401871,-0.0003539340978022665,0.37178874015808105
1732873775526879700,8.732879638671875,0.053169477730989456,0.016656741499900818,0.1760045886039734
1732873775536874800,8.742874755859376,0.03321920707821846,0.024753017351031303,0.0002306297537870705
1732873775546869800,8.752869873046874,0.010843592695891857,0.040158070623874664,-0.10717998445034027
1732873775556865000,8.762864990234375,-0.007843808270990849,0.07482683658599854,-0.13313275575637817
1732873775566860800,8.77286083984375,-0.013647369109094143,0.11317635327577591,-0.0990605354309082
1732873775576855800,8.782855712890624,-0.008888034150004387,0.13029968738555908,-0.006351372692734003
1732873775586850800,8.792850830078125,0.01170166302472353,0.13744626939296722,0.10220493376255035
1732873775596845800,8.802845703125,0.05391835793852806,0.12962670624256134,0.1880846917629242
1732873775606841900,8.812841796875,0.09950555115938187,0.0909634605050087,0.24133992195129395
1732873775616836900,8.8228369140625,0.1359892636537552,0.047446876764297485,0.26982375979423523
1732873775626832000,8.832831787109376,0.15935103595256805,0.019053319469094276,0.2819714844226837
1732873775636827000,8.842826904296874,0.16584143042564392,0.006198773626238108,0.2963360548019409
1732873775646822000,8.85282177734375,0.16072310507297516,0.016089487820863724,0.30030256509780884
1732873775656818000,8.86281787109375,0.1438988447189331,0.04351072385907173,0.28762245178222656
1732873775666813000,8.87281298828125,0.1182565987110138,0.0706012025475502,0.2438286393880844
1732873775676808000,8.882807861328125,0.09050486236810684,0.08965025842189789,0.17956629395484924
1732873775686803000,8.892802978515626,0.06660166382789612,0.1001119539141655,0.10988042503595352
1732873775696798700,8.902798828125,0.05024692416191101,0.10794271528720856,0.05776209756731987
1732873775706793700,8.912793701171875,0.04548545926809311,0.1170286163687706,0.011787417344748974
1732873775716788700,8.922788818359376,0.051005393266677856,0.1274743378162384,-0.03251000493764877
1732873775726784000,8.932783935546874,0.06543946266174316,0.13126960396766663,-0.05771416425704956
1732873775736779000,8.942779052734375,0.0892593041062355,0.11511886864900589,-0.04860774800181389
1732873775746774800,8.95277490234375,0.11319499462842941,0.0648125484585762,0.0028796761762350798
1732873775756769800,8.962769775390624,0.12703171372413635,-0.03749065101146698,0.0827111229300499
1732873775766764800,8.972764892578125,0.12766554951667786,-0.15389609336853027,0.1703280657529831
1732873775776759800,8.982759765625,0.12159354239702225,-0.2518080174922943,0.20877131819725037
1732873775786755800,8.992755859375,0.09995828568935394,-0.31590524315834045,0.17361412942409515
1732873775796750800,9.002750732421875,0.06574172526597977,-0.32696640491485596,0.04631396755576134
1732873775806745900,9.012745849609376,0.01182337012141943,-0.30126264691352844,-0.15568120777606964
1732873775816740900,9.022740966796874,-0.06254513561725616,-0.2472476065158844,-0.41733917593955994
1732873775826735900,9.03273583984375,-0.13599032163619995,-0.194862961769104,-0.6597006916999817
1732873775836732000,9.04273193359375,-0.2052314430475235,-0.17173659801483154,-0.8171408772468567
1732873775846727000,9.052726806640624,-0.24318815767765045,-0.15910176932811737,-0.8428382873535156
1732873775856722000,9.062721923828125,-0.24819941818714142,-0.21204142272472382,-0.7246953845024109
1732873775866717000,9.072717041015625,-0.2477557361125946,-0.2848424017429352,-0.4929780066013336
1732873775876712700,9.082712646484374,-0.23512622714042664,-0.3169654309749603,-0.22935116291046143
1732873775886707700,9.092707763671875,-0.2235713005065918,-0.280901700258255,-0.02039315551519394
1732873775896702700,9.10270263671875,-0.23582664132118225,-0.18774379789829254,0.0794554129242897
1732873775906698000,9.112697998046874,-0.2754662036895752,-0.08019470423460007,0.06576942652463913
1732873775916693000,9.12269287109375,-0.343435138463974,0.011391671374440193,-0.020618991926312447
1732873775926689000,9.13268896484375,-0.4192822277545929,0.0624372772872448,-0.12611612677574158
1732873775936683800,9.142683837890624,-0.48162761330604553,0.07302387803792953,-0.1918349415063858
1732873775946678800,9.1526787109375,-0.5030413269996643,0.052628856152296066,-0.1653146594762802
1732873775956673800,9.162673828125,-0.48577895760536194,0.032944899052381516,-0.050158776342868805
1732873775966669800,9.172669921875,-0.4407568871974945,0.03344264626502991,0.08548161387443542
1732873775976664800,9.182664794921875,-0.38669976592063904,0.038590800017118454,0.19190844893455505
1732873775986659800,9.192659912109375,-0.3389298617839813,0.042875561863183975,0.2632361650466919
1732873775996655000,9.202655029296874,-0.29671236872673035,0.06041593849658966,0.2966518998146057
1732873776006649900,9.21264990234375,-0.2689768671989441,0.07596427202224731,0.28683391213417053
1732873776016646000,9.22264599609375,-0.26033782958984375,0.0886763408780098,0.2549862265586853
1732873776026641000,9.232640869140624,-0.27602359652519226,0.10109226405620575,0.19998528063297272
1732873776036636000,9.242635986328125,-0.30511730909347534,0.11423815786838531,0.13729500770568848
1732873776046631000,9.252630859375,-0.3331547975540161,0.12192324548959732,0.0907227098941803
1732873776056626700,9.262626708984374,-0.3611201047897339,0.12192057818174362,0.07507504522800446
1732873776066621700,9.27262158203125,-0.3928152024745941,0.1160975769162178,0.06820568442344666
1732873776076616700,9.28261669921875,-0.40992599725723267,0.09971940517425537,0.07685136795043945
1732873776086612000,9.292612060546874,-0.41671228408813477,0.08313989639282227,0.11813223361968994
1732873776096608000,9.30260791015625,-0.41255852580070496,0.08012093603610992,0.19195584952831268
1732873776106603000,9.31260302734375,-0.38665875792503357,0.08623369038105011,0.282354474067688
1732873776116598000,9.322597900390624,-0.35354581475257874,0.0909741148352623,0.3804062008857727
1732873776126592800,9.3325927734375,-0.33090469241142273,0.08295214176177979,0.4501469135284424
1732873776136587800,9.342587890625,-0.3224049508571625,0.06387805193662643,0.47147566080093384
1732873776146583800,9.352583740234374,-0.32298630475997925,0.03752633556723595,0.4535413980484009
1732873776156578800,9.362578857421875,-0.32461562752723694,0.0042144525796175,0.4178664982318878
1732873776166573800,9.37257373046875,-0.31885334849357605,-0.017838651314377785,0.38078808784484863
1732873776176569000,9.382569091796874,-0.2986293137073517,-0.04273201897740364,0.3506677448749542
1732873776186564900,9.39256494140625,-0.2791863679885864,-0.07543616741895676,0.3402654230594635
1732873776196560000,9.402559814453125,-0.2547625005245209,-0.11398835480213165,0.34175974130630493
1732873776206555000,9.412554931640624,-0.2392035275697708,-0.1637204885482788,0.34310382604599
1732873776216550000,9.4225498046875,-0.23678724467754364,-0.20859181880950928,0.3510275185108185
1732873776226545000,9.432544921875,-0.23267106711864471,-0.24270398914813995,0.3607587218284607
1732873776236540700,9.442540771484374,-0.23117543756961823,-0.26044437289237976,0.3600844144821167
1732873776246535700,9.45253564453125,-0.23319730162620544,-0.27150100469589233,0.337718665599823
1732873776256530700,9.46253076171875,-0.2545294761657715,-0.28173020482063293,0.2679491639137268
1732873776266526000,9.47252587890625,-0.2882949113845825,-0.2781298756599426,0.15976595878601074
1732873776276522000,9.48252197265625,-0.32841330766677856,-0.2690756618976593,0.020617660135030746
1732873776286517000,9.49251708984375,-0.36381521821022034,-0.26272085309028625,-0.1228574812412262
1732873776296512000,9.502511962890624,-0.38952192664146423,-0.25541871786117554,-0.2767130732536316
1732873776306506800,9.5125068359375,-0.4274650514125824,-0.24375993013381958,-0.49219077825546265
1732873776316501800,9.522501708984375,-0.4526638686656952,-0.2024894505739212,-0.7448856234550476
1732873776326497800,9.532497802734374,-0.4688388407230377,-0.1435622274875641,-0.9975998997688293
1732873776336492800,9.542492919921875,-0.4622368812561035,-0.10826043039560318,-1.160062313079834
1732873776346487800,9.55248779296875,-0.4567992389202118,-0.10655120760202408,-1.199884295463562
1732873776356483000,9.562483154296874,-0.4246450364589691,-0.2001197785139084,-1.0810426473617554
1732873776366478800,9.572478759765625,-0.37475016713142395,-0.3543700575828552,-0.8037981986999512
1732873776376473900,9.582473876953125,-0.30828434228897095,-0.4908767640590668,-0.44275903701782227
1732873776386468900,9.59246875,-0.2206450253725052,-0.5565846562385559,-0.1290900707244873
1732873776396463900,9.6024638671875,-0.12801522016525269,-0.4836848974227905,0.06513266265392303
1732873776406460000,9.6124599609375,-0.04084942862391472,-0.32539087533950806,0.08408398181200027
1732873776416455000,9.622454833984374,0.02997414395213127,-0.12422554194927216,-0.02593812346458435
1732873776426449700,9.63244970703125,0.08468718826770782,0.06208174675703049,-0.20084787905216217
1732873776436444700,9.642444580078125,0.11272228509187698,0.1694130003452301,-0.38914188742637634
1732873776446440200,9.652440185546874,0.11992800235748291,0.1705126166343689,-0.541474461555481
1732873776456436200,9.662436279296875,0.11530128866434097,0.09771910309791565,-0.6429749727249146
1732873776466431200,9.67243115234375,0.11167646199464798,0.017122527584433556,-0.6591640710830688
1732873776476426200,9.68242626953125,0.12160739302635193,-0.04861840233206749,-0.6132855415344238
1732873776486421200,9.692421142578125,0.15974652767181396,-0.10115990787744522,-0.5073063373565674
1732873776496417300,9.702417236328126,0.2314808964729309,-0.10801355540752411,-0.3375711143016815
1732873776506412300,9.712412353515624,0.3110564053058624,-0.0942055955529213,-0.1021956130862236
1732873776516407300,9.7224072265625,0.3879490792751312,-0.06270279735326767,0.16042828559875488
1732873776526402300,9.73240234375,0.4509783685207367,-0.024937840178608894,0.39255446195602417
1732873776536398000,9.742398193359374,0.4852692186832428,0.0004732437082566321,0.5415671467781067
1732873776546393000,9.75239306640625,0.4823618531227112,0.014930746518075466,0.6016935706138611
1732873776556388000,9.76238818359375,0.46146881580352783,0.045407429337501526,0.5780771970748901
1732873776566383400,9.77238330078125,0.42927518486976624,0.08597695827484131,0.49490347504615784
1732873776576378400,9.78237841796875,0.3924085199832916,0.1224132627248764,0.3737797141075134
1732873776586374400,9.79237451171875,0.35564813017845154,0.164769247174263,0.22592101991176605
1732873776596369200,9.802369140625,0.33651143312454224,0.208778515458107,0.07525906711816788
1732873776606364200,9.8123642578125,0.3241423964500427,0.2445727288722992,-0.03591379150748253
1732873776616359200,9.822359130859375,0.3093368113040924,0.25015684962272644,-0.09292355179786682
1732873776626355200,9.832355224609374,0.2877068817615509,0.2250075489282608,-0.10305101424455643
1732873776636350200,9.84235009765625,0.27186986804008484,0.17827972769737244,-0.09020046889781952
1732873776646345200,9.85234521484375,0.27398067712783813,0.12391874939203262,-0.07327687740325928
1732873776656340500,9.862340576171874,0.2910797894001007,0.08070656657218933,-0.037036847323179245
1732873776666336300,9.872336181640625,0.3195284605026245,0.04982880875468254,0.044261738657951355
1732873776676331300,9.882331298828126,0.34663546085357666,0.021102622151374817,0.16185042262077332
1732873776686326300,9.892326171875,0.3710097670555115,0.007567372173070908,0.2894459366798401
1732873776696321300,9.9023212890625,0.38982924818992615,0.002782204421237111,0.3972669243812561
1732873776706316300,9.91231640625,0.40037456154823303,0.012426842004060745,0.4708503484725952
1732873776716312000,9.92231201171875,0.40529823303222656,0.047624245285987854,0.5027845501899719
1732873776726307000,9.93230712890625,0.41506269574165344,0.08956050872802734,0.5079479217529297
1732873776736302000,9.942302001953125,0.4334757924079895,0.10410109907388687,0.50434809923172
1732873776746297300,9.95229736328125,0.45221275091171265,0.10057268291711807,0.4879121482372284
1732873776756293400,9.96229345703125,0.48004090785980225,0.08146316558122635,0.44575005769729614
1732873776766288400,9.972288330078126,0.511361300945282,0.051188353449106216,0.372653990983963
1732873776776283400,9.982283447265624,0.5295397639274597,0.02022244781255722,0.28633350133895874
1732873776786278100,9.992278076171875,0.5502732396125793,0.010814830660820007,0.20203112065792084
1732873776796274200,10.002274169921876,0.5775706768035889,0.0313589870929718,0.1464773267507553
1732873776806269200,10.012269287109374,0.6061745882034302,0.046421561390161514,0.12855663895606995
1732873776816264200,10.02226416015625,0.6256175637245178,0.043595414608716965,0.16054441034793854
1732873776826259200,10.03225927734375,0.636212944984436,0.009186307899653912,0.21888947486877441
1732873776836254500,10.04225439453125,0.6522156000137329,-0.054677095264196396,0.28849756717681885
1732873776846250200,10.052250244140625,0.6749193072319031,-0.11871492862701416,0.33051401376724243
1732873776856245200,10.062245361328126,0.7033491134643555,-0.15201909840106964,0.30064666271209717
1732873776866240300,10.072240234375,0.7168691754341125,-0.16224031150341034,0.19218754768371582
1732873776876235300,10.0822353515625,0.6935681104660034,-0.16155719757080078,0.026849990710616112
1732873776886231300,10.092231201171876,0.6494541764259338,-0.17411720752716064,-0.15169551968574524
1732873776896226000,10.10222607421875,0.5882923007011414,-0.1890796422958374,-0.2743071913719177
1732873776906221000,10.112220947265625,0.5076544284820557,-0.20218425989151,-0.29696351289749146
1732873776916216000,10.122216064453125,0.41077661514282227,-0.21146909892559052,-0.2295258641242981
1732873776926212400,10.13221240234375,0.3194211423397064,-0.20651856064796448,-0.1362193524837494
1732873776936207400,10.142207275390625,0.270065039396286,-0.1677786111831665,-0.05495166406035423
1732873776946202400,10.152202392578126,0.2495693564414978,-0.10705508291721344,-0.001041562296450138
1732873776956197400,10.162197265625,0.24654027819633484,-0.04773076996207237,0.002514823107048869
1732873776966193200,10.172193115234375,0.2480396330356598,0.008419317193329334,-0.046884685754776
1732873776976188200,10.182188232421876,0.2271849513053894,0.03395557031035423,-0.1365160346031189
1732873776986183200,10.19218310546875,0.18715576827526093,0.030016489326953888,-0.24282382428646088
1732873776996178200,10.20217822265625,0.12541118264198303,0.03611805662512779,-0.3508690595626831
1732873777006173200,10.212173095703125,0.04543779045343399,0.045817553997039795,-0.4269137680530548
1732873777016169200,10.222169189453124,-0.05529707670211792,0.05624622851610184,-0.47216060757637024
1732873777026164200,10.232164306640625,-0.15209552645683289,0.06345753371715546,-0.4572594165802002
1732873777036159200,10.2421591796875,-0.2414669543504715,0.058403920382261276,-0.3753001093864441
1732873777046154200,10.252154296875,-0.2948942184448242,0.045526470988988876,-0.21721087396144867
1732873777056150300,10.262150390625,-0.306418240070343,0.026584472507238388,-0.0008711199625395238
1732873777066145300,10.272145263671876,-0.2973049283027649,0.017731325700879097,0.22247567772865295
1732873777076140300,10.282140380859374,-0.2900709807872772,0.0022482406347990036,0.39982810616493225
1732873777086135000,10.292135009765625,-0.289825439453125,0.021984660997986794,0.512483537197113
1732873777096131300,10.30213134765625,-0.3145557940006256,0.047857802361249924,0.551647424697876
1732873777106126300,10.312126220703124,-0.3623843193054199,0.041785795241594315,0.5235753059387207
1732873777116121300,10.322121337890625,-0.4228527247905731,0.028432440012693405,0.44346532225608826
1732873777126116400,10.332116455078125,-0.47308897972106934,0.012113387696444988,0.3254002034664154
1732873777136112000,10.342112060546874,-0.5054383873939514,-0.02045627310872078,0.19699455797672272
1732873777146107100,10.352107177734375,-0.5272955298423767,-0.0664605125784874,0.08163094520568848
1732873777156102100,10.36210205078125,-0.5387380719184875,-0.11234358698129654,-0.011246795766055584
1732873777166097200,10.37209716796875,-0.5485318303108215,-0.14015817642211914,-0.07783380895853043
1732873777176092200,10.382092041015625,-0.5674413442611694,-0.15092426538467407,-0.13079050183296204
1732873777186088400,10.39208837890625,-0.5972727537155151,-0.1474222093820572,-0.1662060171365738
1732873777196083200,10.402083251953124,-0.6329092979431152,-0.1441827416419983,-0.16852962970733643
1732873777206078200,10.412078125,-0.6721482872962952,-0.16008260846138,-0.11979750543832779
1732873777216073200,10.4220732421875,-0.7089813947677612,-0.18750570714473724,-0.03897163271903992
1732873777226069200,10.4320693359375,-0.7400026917457581,-0.22109323740005493,0.02190450020134449
1732873777236064300,10.442064208984375,-0.7584608197212219,-0.2478628009557724,0.035351864993572235
1732873777246059300,10.452059326171875,-0.7589441537857056,-0.2670900225639343,-0.00989470910280943
1732873777256054300,10.46205419921875,-0.7524327635765076,-0.29135674238204956,-0.10534479469060898
1732873777266050300,10.47205029296875,-0.7437428832054138,-0.32030317187309265,-0.2255425751209259
1732873777276045300,10.48204541015625,-0.7359445691108704,-0.3481222987174988,-0.33692288398742676
1732873777286040300,10.492040283203124,-0.7278435230255127,-0.3711429238319397,-0.4224007725715637
1732873777296035300,10.502035400390625,-0.7133750915527344,-0.4114932715892792,-0.4688742756843567
1732873777306031000,10.512031005859376,-0.6752846837043762,-0.4639378488063812,-0.46270081400871277
1732873777316026000,10.522026123046874,-0.6298506259918213,-0.4695807993412018,-0.4395161271095276
1732873777326021000,10.532021240234375,-0.5852874517440796,-0.4222146272659302,-0.4423401355743408
1732873777336016100,10.54201611328125,-0.5498844385147095,-0.3505958318710327,-0.5107969641685486
1732873777346011100,10.55201123046875,-0.5277756452560425,-0.28098639845848083,-0.6263299584388733
1732873777356007400,10.56200732421875,-0.5055715441703796,-0.26227954030036926,-0.7342364192008972
1732873777366002400,10.57200244140625,-0.4821362793445587,-0.3087296187877655,-0.7728943228721619
1732873777375997200,10.5819970703125,-0.45099595189094543,-0.3984070420265198,-0.7478638291358948
1732873777385992200,10.5919921875,-0.4220772087574005,-0.48337703943252563,-0.7265843749046326
1732873777395988200,10.60198828125,-0.4075984060764313,-0.5149107575416565,-0.8054312467575073
1732873777405983200,10.611983154296874,-0.40019240975379944,-0.44932907819747925,-1.0128182172775269
1732873777415978200,10.621978271484375,-0.3883304297924042,-0.34027713537216187,-1.3163368701934814
1732873777425973200,10.63197314453125,-0.38776931166648865,-0.2672804296016693,-1.6887370347976685
1732873777435969300,10.64196923828125,-0.36348047852516174,-0.24501986801624298,-1.9416284561157227
1732873777445964000,10.651964111328125,-0.31918489933013916,-0.24348242580890656,-1.940707802772522
1732873777455959000,10.661958984375,-0.24518099427223206,-0.27944815158843994,-1.5921449661254883
1732873777465954000,10.6719541015625,-0.16000324487686157,-0.32258710265159607,-0.9402766823768616
1732873777475950300,10.681950439453125,-0.10275088250637054,-0.302117258310318,-0.18021796643733978
1732873777485945300,10.6919453125,-0.06950930505990982,-0.18421190977096558,0.4384484589099884
1732873777495940000,10.701940185546874,-0.07712115347385406,-0.020204070955514908,0.7679430246353149
1732873777505935000,10.71193505859375,-0.10840796679258347,0.11805872619152069,0.837070643901825
1732873777515930000,10.72193017578125,-0.12441942095756531,0.23364391922950745,0.7452903985977173
1732873777525926100,10.731926025390624,-0.09216374903917313,0.29345929622650146,0.5951659083366394
1732873777535921200,10.741921142578125,-0.0346117727458477,0.29776084423065186,0.47584402561187744
1732873777545916200,10.751916259765625,0.014101171866059303,0.24681085348129272,0.42401599884033203
1732873777555911200,10.7619111328125,0.06108279526233673,0.16197185218334198,0.4428040683269501
1732873777565907200,10.7719072265625,0.09598618745803833,0.12106543779373169,0.49858954548835754
1732873777575902200,10.781902099609376,0.12867489457130432,0.12434538453817368,0.5409644246101379
1732873777585897200,10.791897216796874,0.153635635972023,0.146336168050766,0.5439157485961914
1732873777595892200,10.801892333984375,0.16110526025295258,0.1944006383419037,0.4885326623916626
1732873777605888300,10.81188818359375,0.1526569128036499,0.2379334717988968,0.3747680187225342
1732873777615883000,10.821883056640624,0.13656450808048248,0.25997352600097656,0.23240794241428375
1732873777625878000,10.8318779296875,0.11567945778369904,0.24025654792785645,0.1114671379327774
1732873777635873000,10.841873046875,0.11789920926094055,0.19650347530841827,0.04248034954071045
1732873777645869300,10.851869384765624,0.1366763561964035,0.1603662371635437,0.026139192283153534
1732873777655864300,10.8618642578125,0.16732747852802277,0.1344105452299118,0.046066295355558395
1732873777665859300,10.871859375,0.19980685412883759,0.11512179672718048,0.08319342136383057
1732873777675854000,10.88185400390625,0.23073840141296387,0.10928947478532791,0.11837298423051834
1732873777685849000,10.89184912109375,0.23923708498477936,0.10652324557304382,0.13468697667121887
1732873777695845000,10.90184521484375,0.2317000776529312,0.11181920766830444,0.12196025997400284
1732873777705840000,10.911840087890624,0.21790090203285217,0.13931554555892944,0.08419077843427658
1732873777715835100,10.921835205078125,0.19929233193397522,0.17515051364898682,0.036563072353601456
1732873777725830100,10.931830078125,0.18067523837089539,0.1979018896818161,0.008203601464629173
1732873777735826200,10.941826171875,0.15680718421936035,0.199589803814888,0.014285994693636894
1732873777745821200,10.9518212890625,0.13911421597003937,0.17953966557979584,0.05558310076594353
1732873777755816200,10.961816162109375,0.13064749538898468,0.15261484682559967,0.1350182741880417
1732873777765811200,10.971811279296874,0.12374963611364365,0.12568655610084534,0.22478623688220978
1732873777775807200,10.98180712890625,0.11122958362102509,0.1169937327504158,0.2909791171550751
1732873777785802200,10.99180224609375,0.0958346500992775,0.13912460207939148,0.2950521409511566
1732873777795797000,11.001796875,0.07094421237707138,0.1820363849401474,0.23313817381858826
1732873777805792000,11.0117919921875,0.03291667252779007,0.21940691769123077,0.14245595037937164
1732873777815788300,11.021788330078126,-0.004061587154865265,0.23242925107479095,0.05404778942465782
1732873777825783300,11.031783203125,-0.030411168932914734,0.2287876456975937,-0.019405122846364975
1732873777835778300,11.0417783203125,-0.04223640263080597,0.20030327141284943,-0.06629140675067902
1732873777845773300,11.051773193359375,-0.02960716001689434,0.13775840401649475,-0.04200417548418045
1732873777855769000,11.06176904296875,-0.007248857989907265,0.04848098382353783,0.09331290423870087
1732873777865764000,11.07176416015625,0.024226775392889977,-0.03784245252609253,0.3255309462547302
1732873777875759000,11.081759033203125,0.04860455542802811,-0.0891575738787651,0.5866637825965881
1732873777885754000,11.091754150390624,0.0682794526219368,-0.10356607288122177,0.8057958483695984
1732873777895749000,11.1017490234375,0.06939185410737991,-0.09218159317970276,0.9333401918411255
1732873777905745200,11.1117451171875,0.06137600913643837,-0.08424536883831024,0.9531251192092896
1732873777915740200,11.121740234375,0.056418001651763916,-0.0769810676574707,0.8863862752914429
1732873777925735200,11.131735107421875,0.06439763307571411,-0.06375261396169662,0.7476483583450317
1732873777935730200,11.141730224609375,0.09086626023054123,-0.06682270765304565,0.5535172820091248
1732873777945726200,11.151726318359374,0.11556468158960342,-0.07959070056676865,0.32420656085014343
1732873777955721200,11.16172119140625,0.1378774344921112,-0.08339635282754898,0.09308786690235138
1732873777965716200,11.17171630859375,0.1725858896970749,-0.09641522169113159,-0.083104208111763
1732873777975711200,11.181711181640624,0.21235540509223938,-0.1315913200378418,-0.16283924877643585
1732873777985707300,11.191707275390625,0.25171372294425964,-0.1842329502105713,-0.14308658242225647
1732873777995702300,11.201702392578126,0.2913711369037628,-0.24539165198802948,-0.06935830414295197
1732873778005697300,11.211697265625,0.3338344395160675,-0.2711412310600281,-0.01552596315741539
1732873778015692300,11.2216923828125,0.36174702644348145,-0.25587812066078186,-0.06413930654525757
1732873778025688000,11.23168798828125,0.3597358167171478,-0.20998145639896393,-0.23130246996879578
1732873778035683000,11.24168310546875,0.3369503319263458,-0.10359004139900208,-0.49082669615745544
1732873778045678000,11.251677978515625,0.2939160466194153,0.06671271473169327,-0.8108206987380981
1732873778055673000,11.261673095703125,0.248472660779953,0.22430527210235596,-1.1391359567642212
1732873778065669000,11.271669189453124,0.2379465103149414,0.36458754539489746,-1.4011262655258179
1732873778075664400,11.281664306640625,0.27034467458724976,0.45382368564605713,-1.4795076847076416
1732873778085659400,11.291659423828126,0.3253115117549896,0.4527818560600281,-1.3127714395523071
1732873778095654100,11.301654052734374,0.38096651434898376,0.3730955421924591,-0.922915518283844
1732873778105650200,11.311650146484375,0.43557703495025635,0.23905998468399048,-0.40777844190597534
1732873778115645200,11.321645263671876,0.5005136728286743,0.1320057064294815,0.0636277124285698
1732873778125640200,11.33164013671875,0.5586387515068054,0.09662081301212311,0.3987537622451782
1732873778135635200,11.34163525390625,0.6100971698760986,0.1463465541601181,0.5877577662467957
1732873778145631000,11.351630859375,0.6355692744255066,0.1959034651517868,0.6731073260307312
1732873778155626000,11.3616259765625,0.6280807256698608,0.23299729824066162,0.7012947201728821
1732873778165621200,11.371621337890625,0.5987816452980042,0.2742597758769989,0.6765382289886475
1732873778175616300,11.3816162109375,0.5607573390007019,0.28030675649642944,0.6016703844070435
1732873778185612300,11.3916123046875,0.5121346712112427,0.26701119542121887,0.49219292402267456
1732873778195607300,11.401607177734375,0.4635181128978729,0.26053759455680847,0.3749072849750519
1732873778205602000,11.41160205078125,0.42614197731018066,0.28035470843315125,0.27429333329200745
1732873778215597000,11.42159716796875,0.3950176239013672,0.32681432366371155,0.21446914970874786
1732873778225592000,11.431592041015625,0.3662160634994507,0.34986504912376404,0.20238932967185974
1732873778235588000,11.441588134765626,0.3419693112373352,0.34733107686042786,0.2293575555086136
1732873778245583000,11.4515830078125,0.31619685888290405,0.3238281309604645,0.27986228466033936
1732873778255578400,11.461578369140625,0.2982631325721741,0.2893178164958954,0.325731486082077
1732873778265574100,11.47157421875,0.297524631023407,0.2557641267776489,0.34683358669281006
1732873778275569200,11.481569091796874,0.30487361550331116,0.23138874769210815,0.33110788464546204
1732873778285564200,11.491564208984375,0.3009904623031616,0.21561990678310394,0.27770859003067017
1732873778295559200,11.50155908203125,0.283967524766922,0.19904226064682007,0.17383012175559998
1732873778305554200,11.51155419921875,0.2513329088687897,0.18685270845890045,0.03904593735933304
1732873778315550200,11.52155029296875,0.17732630670070648,0.2457631677389145,0.007906658574938774
1732873778325545000,11.531544921875,0.009042496792972088,0.4542314112186432,0.05670136213302612
1732873778335540000,11.5415400390625,0.07145953923463821,0.40159377455711365,-0.05645102635025978
1732873778345535200,11.55153515625,0.07252826541662216,0.2828007936477661,-0.12404711544513702
1732873778355531300,11.56153125,0.05347840487957001,0.1472664177417755,-0.11819375306367874
1732873778365526300,11.5715263671875,0.06852659583091736,-0.009095493704080582,-0.07129894942045212
1732873778375521300,11.581521240234375,0.10861995071172714,-0.07718692719936371,-0.012024438939988613
1732873778385516300,11.591516357421876,0.15329021215438843,-0.024164192378520966,0.025734923779964447
1732873778395512000,11.601511962890624,0.19714821875095367,0.06849996745586395,0.048721201717853546
1732873778405507000,11.611507080078125,0.21403533220291138,0.12889300286769867,0.028810076415538788
1732873778415502000,11.621502197265626,0.21330268681049347,0.14453507959842682,-0.007646201644092798
1732873778425497000,11.6314970703125,0.18190854787826538,0.13935895264148712,-0.058691807091236115
1732873778435493000,11.6414931640625,0.15458931028842926,0.09435553103685379,-0.12044891715049744
1732873778445489200,11.6514892578125,0.1421765834093094,0.04001213237643242,-0.16739751398563385
1732873778455484200,11.661484130859375,0.12461463361978531,0.03780064359307289,-0.1651759147644043
1732873778465479200,11.671479248046875,0.10716799646615982,0.059834036976099014,-0.09793561697006226
1732873778475475200,11.68147509765625,0.09317362308502197,0.09292381256818771,0.004846154246479273
1732873778485470000,11.691469970703125,0.108433797955513,0.13228186964988708,0.12336613982915878
1732873778495465000,11.70146484375,0.15094611048698425,0.1744852513074875,0.2309354841709137
1732873778505460000,11.7114599609375,0.21885670721530914,0.2103356570005417,0.31177493929862976
1732873778515456300,11.721456298828125,0.28982996940612793,0.21853314340114594,0.3383788466453552
1732873778525451300,11.731451171875,0.3348674774169922,0.16803480684757233,0.2844836711883545
1732873778535446300,11.7414462890625,0.3435557782649994,0.043426837772130966,0.1905267983675003
1732873778545441000,11.75144091796875,0.32454025745391846,-0.08273109793663025,0.10547982156276703
1732873778555437000,11.76143701171875,0.2973587214946747,-0.16202086210250854,0.0921831876039505
1732873778565432000,11.77143212890625,0.2568216621875763,-0.1571241021156311,0.16127464175224304
1732873778575427000,11.781427001953125,0.2294989675283432,-0.10121503472328186,0.28932130336761475
1732873778585422000,11.791422119140625,0.20932765305042267,-0.004298341926187277,0.4207778573036194
1732873778595418000,11.801418212890624,0.1850723773241043,0.10581058263778687,0.507256805896759
1732873778605413000,11.8114130859375,0.13666224479675293,0.189761683344841,0.4975186884403229
1732873778615408000,11.821408203125,0.08543846756219864,0.21011248230934143,0.3516477942466736
1732873778625403100,11.831403076171876,0.02551787719130516,0.16318093240261078,0.07152265310287476
1732873778635399200,11.841399169921875,-0.04812625050544739,0.053100768476724625,-0.31420108675956726
1732873778645394200,11.851394287109375,-0.11154277622699738,-0.07431337982416153,-0.7562682628631592
1732873778655389200,11.86138916015625,-0.14751142263412476,-0.24525903165340424,-1.1692746877670288
1732873778665384000,11.871384033203125,-0.15680372714996338,-0.4288751780986786,-1.4080811738967896
1732873778675380200,11.881380126953125,-0.1305023431777954,-0.5814306735992432,-1.34089994430542
1732873778685375200,11.891375244140624,-0.09992073476314545,-0.6510712504386902,-0.9457920789718628
1732873778695370200,11.901370361328125,-0.11270098388195038,-0.5717188715934753,-0.3457147777080536
1732873778705365200,11.911365234375,-0.11848616600036621,-0.3925699293613434,0.2947016656398773
1732873778715361000,11.921361083984374,-0.12194640934467316,-0.18187232315540314,0.795067548751831
1732873778725356000,11.93135595703125,-0.11764620244503021,-0.053394515067338943,1.0587444305419922
1732873778735351000,11.94135107421875,-0.10366620868444443,-0.02220543660223484,1.098273515701294
1732873778745346000,11.951345947265626,-0.13868917524814606,-0.032053541392087936,0.9732854962348938
1732873778755342000,11.961342041015625,-0.19714023172855377,-0.0469169095158577,0.7495131492614746
1732873778765337300,11.97133740234375,-0.2609389126300812,-0.06839103996753693,0.4783601760864258
1732873778775332000,11.98133203125,-0.3150807023048401,-0.12151657789945602,0.21471522748470306
1732873778785327000,11.9913271484375,-0.3456130623817444,-0.19919565320014954,0.0022445120848715305
1732873778795323100,12.0013232421875,-0.33674898743629456,-0.2784998118877411,-0.14456383883953094
1732873778805318100,12.011318115234374,-0.30331167578697205,-0.34851616621017456,-0.23592092096805573
1732873778815313200,12.021313232421875,-0.25700676441192627,-0.4000840187072754,-0.31515049934387207
1732873778825308200,12.03130810546875,-0.23015490174293518,-0.4170885682106018,-0.415245920419693
1732873778835304000,12.041303955078124,-0.22892053425312042,-0.40414559841156006,-0.5198311805725098
1732873778845299000,12.051298828125,-0.23208703100681305,-0.36475905776023865,-0.6077243089675903
1732873778855294200,12.061294189453125,-0.2241862267255783,-0.3189460337162018,-0.6525743007659912
1732873778865289200,12.071289306640624,-0.20895694196224213,-0.26944053173065186,-0.6127344965934753
1732873778875285200,12.08128515625,-0.2073555886745453,-0.1993996649980545,-0.4712902903556824
1732873778885280300,12.0912802734375,-0.21055270731449127,-0.11475054919719696,-0.2655331492424011
1732873778895275000,12.10127490234375,-0.2197725772857666,-0.02949690632522106,-0.056227587163448334
1732873778905270000,12.11127001953125,-0.22074861824512482,0.014788267202675343,0.10692298412322998
1732873778915266000,12.12126611328125,-0.2071201652288437,0.01871696300804615,0.21081262826919556
1732873778925261000,12.131260986328124,-0.19471728801727295,0.0016322514275088906,0.26371634006500244
1732873778935256000,12.141256103515625,-0.1766192466020584,-0.03144953399896622,0.27926546335220337
1732873778945251300,12.151251220703125,-0.15009203553199768,-0.04704473912715912,0.2587476670742035
1732873778955247000,12.1612470703125,-0.10617810487747192,-0.017315873876214027,0.219334214925766
1732873778965242000,12.1712421875,-0.05783240869641304,0.045519813895225525,0.18233758211135864
1732873778975237000,12.181237060546875,-0.012606605887413025,0.11460354179143906,0.1541520208120346
1732873778985232100,12.191232177734374,0.027055319398641586,0.18359193205833435,0.14455105364322662
1732873778995228200,12.201228271484375,0.06544904410839081,0.23437681794166565,0.18578451871871948
1732873779005223000,12.211222900390625,0.08996663987636566,0.24983753263950348,0.24117639660835266
1732873779015218000,12.221218017578124,0.10674428939819336,0.22005540132522583,0.31077200174331665
1732873779025213200,12.231213134765625,0.11808349937200546,0.1695946305990219,0.36631062626838684
1732873779035209200,12.241209228515626,0.13102219998836517,0.1388777196407318,0.37444818019866943
1732873779045204200,12.251204345703124,0.14493268728256226,0.1490885466337204,0.328719824552536
1732873779055199200,12.26119921875,0.14562085270881653,0.20436832308769226,0.25250789523124695
1732873779065194200,12.2711943359375,0.145083948969841,0.2872312366962433,0.1439742147922516
1732873779075190000,12.28118994140625,0.1332179754972458,0.37650439143180847,0.022766832262277603
1732873779085185000,12.29118505859375,0.11693993210792542,0.4399941563606262,-0.07673419266939163
1732873779095180000,12.301179931640625,0.11700119078159332,0.43412429094314575,-0.13897253572940826
1732873779105175000,12.311175048828124,0.1207815483212471,0.37409716844558716,-0.15495122969150543
1732873779115171000,12.321171142578125,0.12558162212371826,0.28840330243110657,-0.12468547374010086
1732873779125166000,12.331166015625,0.13338442146778107,0.20492012798786163,-0.054314371198415756
1732873779135161000,12.3411611328125,0.13253700733184814,0.1176571249961853,0.0076003954745829105
1732873779145156000,12.351156005859375,0.13323502242565155,0.034399520605802536,0.031137945130467415
1732873779155152100,12.361152099609376,0.1359330713748932,-0.007752461824566126,0.0016130766598507762
1732873779165147100,12.371147216796874,0.12860804796218872,-0.00013555490295402706,-0.058585815131664276
1732873779175142100,12.38114208984375,0.11873197555541992,0.022414494305849075,-0.12976039946079254
1732873779185137200,12.39113720703125,0.0957917720079422,0.03918202221393585,-0.18276342749595642
