time,seconds_elapsed,z,y,x
1733404706025372400,0.194372314453125,0.040305137634277344,0.005551338195800781,0.000379413366317749
1733404706035491800,0.204491943359375,-0.10147571563720703,0.04902958869934082,-0.016329139471054077
1733404706045501700,0.214501708984375,-0.14097118377685547,0.09290289878845215,-0.059892088174819946
1733404706055480800,0.224480712890625,-0.05729484558105469,0.060616493225097656,-0.02974414825439453
1733404706065490400,0.234490478515625,0.05269908905029297,0.0177154541015625,-0.018994033336639404
1733404706075500300,0.244500244140625,0.13265514373779297,-0.04970395565032959,0.017468810081481934
1733404706085479400,0.2544794921875,0.13287925720214844,-0.12815701961517334,-0.00519070029258728
1733404706095489300,0.2644892578125,0.08595657348632812,-0.1265263557434082,-0.022842884063720703
1733404706105499100,0.2744990234375,0.016510963439941406,-0.08072423934936523,0.03122684359550476
1733404706115478300,0.284478271484375,-0.0825490951538086,-0.04690229892730713,0.024482637643814087
1733404706125488000,0.294488037109375,-0.16814708709716797,0.000042438507080078125,-0.015596985816955566
1733404706135498000,0.304498046875,-0.17261123657226562,-0.01796853542327881,0.024588316679000854
1733404706145477000,0.31447705078125,-0.03134632110595703,-0.0776982307434082,0.06058919429779053
1733404706155487000,0.324487060546875,0.06023120880126953,-0.04803764820098877,0.04291750490665436
1733404706165496600,0.33449658203125,0.15508460998535156,0.007999897003173828,0.07996752858161926
1733404706175475700,0.344475830078125,0.21897220611572266,0.019904494285583496,0.08506675064563751
1733404706185485600,0.354485595703125,0.24606037139892578,0.06706070899963379,0.005634605884552002
1733404706195495400,0.364495361328125,0.2050609588623047,0.06234288215637207,-0.04653787612915039
1733404706205474600,0.374474609375,0.09788131713867188,0.06086134910583496,-0.10242787003517151
1733404706215484400,0.384484375,0.02985668182373047,0.04455602169036865,-0.08316117525100708
1733404706225494300,0.394494384765625,0.07076549530029297,-0.01184701919555664,0.04632069170475006
1733404706235504000,0.404504150390625,0.1584930419921875,-0.055623412132263184,0.05260206758975983
1733404706245483300,0.414483154296875,0.14505290985107422,-0.04274427890777588,-0.02780836820602417
1733404706255492900,0.424492919921875,0.054076194763183594,0.054848432540893555,0.04331818222999573
1733404706265502700,0.434502685546875,-0.06165599822998047,0.031964898109436035,0.0635712593793869
1733404706275481900,0.44448193359375,-0.09670543670654297,0.027667641639709473,0.04110559821128845
1733404706285491700,0.45449169921875,-0.05476570129394531,0.045676589012145996,0.08218713104724884
1733404706295501600,0.46450146484375,0.023784637451171875,0.0006047487258911133,0.09243793785572052
1733404706305480700,0.474480712890625,0.12174701690673828,0.03361177444458008,0.007935568690299988
1733404706315490600,0.484490478515625,0.1257619857788086,0.06068158149719238,-0.0033601969480514526
1733404706325500400,0.49450048828125,0.0038595199584960938,0.03810083866119385,0.003632068634033203
1733404706335479600,0.5044794921875,-0.010042190551757812,-0.007800102233886719,-0.044943228363990784
1733404706345489200,0.5144892578125,-0.03594207763671875,-0.022561073303222656,-0.08035056293010712
1733404706355499000,0.5244990234375,-0.21280860900878906,-0.03913986682891846,-0.10356050729751587
1733404706365478100,0.53447802734375,-0.35864925384521484,-0.0000909566879272461,-0.03887946903705597
1733404706375488000,0.544488037109375,-0.3393831253051758,0.011147856712341309,0.04014080762863159
1733404706385497900,0.554497802734375,-0.2102508544921875,-0.00200498104095459,0.09432221949100494
1733404706395477200,0.564477294921875,-0.05524635314941406,-0.005283951759338379,0.09813863784074783
1733404706405486800,0.57448681640625,0.0781869888305664,0.01764082908630371,0.11407683044672012
1733404706415496700,0.58449658203125,0.08498764038085938,0.0434417724609375,0.07559924572706223
1733404706425475800,0.594475830078125,0.053778648376464844,0.08884108066558838,0.03945678472518921
1733404706435485700,0.604485595703125,-0.01791858673095703,0.0755300521850586,0.05457530915737152
1733404706445495300,0.614495361328125,-0.1206512451171875,0.07148301601409912,-0.014334604144096375
1733404706455474700,0.624474609375,-0.04873180389404297,0.08052206039428711,-0.035244300961494446
1733404706465484500,0.634484619140625,0.14970779418945312,0.03963172435760498,-0.013091430068016052
1733404706475494100,0.644494140625,0.416900634765625,0.017630577087402344,-0.04067578911781311
1733404706485504000,0.65450390625,0.5761232376098633,-0.03407442569732666,-0.06949788331985474
1733404706495483100,0.664483154296875,0.654083251953125,0.01615440845489502,-0.16637025773525238
1733404706505493000,0.674492919921875,0.6103391647338867,0.07567846775054932,-0.2252046763896942
1733404706515502800,0.6845029296875,0.42352294921875,0.07877016067504883,-0.15873555839061737
1733404706525482000,0.69448193359375,0.1416034698486328,0.11587798595428467,-0.21815304458141327
1733404706535491800,0.704491943359375,-0.19968032836914062,0.11608529090881348,-0.1851547807455063
1733404706545501700,0.714501708984375,-0.29899024963378906,0.13205015659332275,-0.12570886313915253
1733404706555480800,0.724480712890625,-0.3194742202758789,0.06799280643463135,-0.08681859076023102
1733404706565490400,0.734490478515625,-0.28757667541503906,0.02489328384399414,0.056384146213531494
1733404706575500300,0.744500244140625,-0.3014345169067383,0.016715288162231445,0.09896014630794525
1733404706585479400,0.7544794921875,-0.3154745101928711,0.026184916496276855,0.09618023037910461
1733404706595489300,0.7644892578125,-0.3153057098388672,0.034203410148620605,0.10711005330085754
1733404706605499100,0.7744990234375,-0.3152942657470703,0.04562544822692871,0.08678202331066132
1733404706615478300,0.784478271484375,-0.20050048828125,0.05098891258239746,0.03214260935783386
1733404706625488100,0.794488037109375,-0.09532642364501953,0.0519862174987793,0.050389960408210754
1733404706635498000,0.804498046875,-0.07635498046875,0.055481791496276855,0.0640781819820404
1733404706645477000,0.81447705078125,-0.019125938415527344,0.033020853996276855,0.06146650016307831
1733404706655487000,0.824487060546875,0.03548145294189453,-0.016687750816345215,0.03728577494621277
1733404706665496600,0.83449658203125,0.17588424682617188,-0.028008460998535156,0.057526782155036926
1733404706675475700,0.844475830078125,0.30156993865966797,-0.04899883270263672,0.03911192715167999
1733404706685485600,0.854485595703125,0.4270811080932617,-0.032785892486572266,-0.0072470903396606445
1733404706695495400,0.864495361328125,0.41871166229248047,-0.04416608810424805,-0.049001336097717285
1733404706705474600,0.874474609375,0.3460865020751953,-0.015142679214477539,-0.08938166499137878
1733404706715484400,0.884484375,0.22840499877929688,0.034909844398498535,-0.06767597794532776
1733404706725494300,0.894494384765625,0.1182851791381836,0.11367928981781006,-0.10717974603176117
1733404706735504100,0.904504150390625,-0.04187583923339844,0.056951165199279785,-0.09983298182487488
1733404706745483300,0.914483154296875,-0.11572456359863281,0.03070521354675293,-0.06965307891368866
1733404706755492900,0.924492919921875,-0.10348033905029297,-0.02117002010345459,-0.029460787773132324
1733404706765502700,0.934502685546875,0.018364906311035156,-0.09823465347290039,-0.018268465995788574
1733404706775481900,0.94448193359375,0.1590127944946289,-0.1514042615890503,-0.09097425639629364
1733404706785491700,0.95449169921875,0.2444000244140625,-0.11710596084594727,-0.13521453738212585
1733404706795501600,0.96450146484375,0.22452926635742188,-0.12403738498687744,-0.07626250386238098
1733404706805480700,0.974480712890625,0.06380176544189453,-0.07850241661071777,-0.07879158854484558
1733404706815490600,0.984490478515625,-0.1202993392944336,-0.012717723846435547,-0.04187065362930298
1733404706825500400,0.99450048828125,-0.38045215606689453,-0.02241384983062744,0.08218275755643845
1733404706835479600,1.0044794921875,-0.5563297271728516,0.017247319221496582,0.15030303597450256
1733404706845489200,1.0144892578125,-0.619725227355957,0.10488271713256836,0.22602124512195587
1733404706855499000,1.0244990234375,-0.6210269927978516,0.2054600715637207,0.19086550176143646
1733404706865478100,1.03447802734375,-0.5937643051147461,0.3094872236251831,0.04982735216617584
1733404706875488000,1.044488037109375,-0.5068912506103516,0.35277462005615234,-0.008342698216438293
1733404706885497900,1.054497802734375,-0.24558448791503906,0.3335154056549072,0.01124650239944458
1733404706895477000,1.06447705078125,0.0297393798828125,0.3045613765716553,0.09538523852825165
1733404706905486800,1.07448681640625,0.27608203887939453,0.28931403160095215,0.23515020310878754
1733404706915496700,1.08449658203125,0.555699348449707,0.25637173652648926,0.3785906732082367
1733404706925475800,1.094475830078125,0.6245698928833008,0.28567934036254883,0.41847842931747437
1733404706935485700,1.104485595703125,0.6600542068481445,0.3163115978240967,0.3992738723754883
1733404706945495300,1.114495361328125,0.6838569641113281,0.33320772647857666,0.40966784954071045
1733404706955474700,1.124474609375,0.6219482421875,0.33015739917755127,0.4100888967514038
1733404706965484500,1.134484619140625,0.3859977722167969,0.3532484769821167,0.3514530062675476
1733404706975494100,1.144494140625,0.08629512786865234,0.39684557914733887,0.3011678457260132
1733404706985504000,1.15450390625,-0.15027999877929688,0.3750739097595215,0.379700630903244
1733404706995483100,1.164483154296875,-0.3076486587524414,0.34753429889678955,0.40026402473449707
1733404707005493000,1.174492919921875,-0.3549795150756836,0.3065272569656372,0.31963393092155457
1733404707015502800,1.1845029296875,-0.2734079360961914,0.2610055208206177,0.28896093368530273
1733404707025482000,1.19448193359375,-0.04882335662841797,0.21969377994537354,0.25147807598114014
1733404707035491800,1.204491943359375,0.15109539031982422,0.20218706130981445,0.1982613205909729
1733404707045501700,1.214501708984375,0.3527393341064453,0.20334172248840332,0.18364012241363525
1733404707055480800,1.224480712890625,0.4463691711425781,0.206368088722229,0.17237690091133118
1733404707065490400,1.234490478515625,0.3056068420410156,0.26550841331481934,0.11522592604160309
1733404707075500300,1.244500244140625,0.17485332489013672,0.3077479600906372,0.02842855453491211
1733404707085479400,1.2544794921875,0.10682296752929688,0.39035606384277344,-0.044091515243053436
1733404707095489300,1.2644892578125,0.00801849365234375,0.38239502906799316,-0.13917863368988037
1733404707105499100,1.2744990234375,-0.10960197448730469,0.37741363048553467,-0.3109830617904663
1733404707115478300,1.284478271484375,-0.23402976989746094,0.3393367528915405,-0.4350603222846985
1733404707125488000,1.294488037109375,-0.5398702621459961,0.25293993949890137,-0.5965942740440369
1733404707135498000,1.304498046875,-0.8047723770141602,0.19918906688690186,-0.8336699604988098
1733404707145477000,1.31447705078125,-1.087080955505371,0.034636735916137695,-1.0644068717956543
1733404707155487000,1.324487060546875,-1.2912664413452148,-0.11031210422515869,-1.178173542022705
1733404707165496600,1.33449658203125,-1.1537647247314453,0.08633947372436523,-1.0456819534301758
1733404707175475700,1.344475830078125,-1.1992225646972656,-0.26662909984588623,-1.142751932144165
1733404707185485600,1.354485595703125,-1.075551986694336,-0.42527759075164795,-1.1593726873397827
1733404707195495400,1.364495361328125,-0.8450489044189453,-0.6075043678283691,-0.8473839163780212
1733404707205474600,1.374474609375,-0.6439447402954102,-0.6617439985275269,-0.5901755094528198
1733404707215484400,1.384484375,-0.42119598388671875,-0.44124090671539307,-0.4973735213279724
1733404707225494300,1.394494384765625,-0.478057861328125,-0.19742822647094727,-0.3892817795276642
1733404707235504000,1.404504150390625,-0.5602283477783203,0.09283721446990967,-0.22074249386787415
1733404707245483300,1.414483154296875,-0.8925704956054688,0.3949075937271118,-0.12768171727657318
1733404707255492900,1.424492919921875,-1.276667594909668,0.7146791219711304,0.22774700820446014
1733404707265502700,1.434502685546875,-1.6819796562194824,0.9739489555358887,0.453157901763916
1733404707275481900,1.44448193359375,-1.7411203384399414,1.254726529121399,0.5292254686355591
1733404707285491700,1.45449169921875,-1.4285802841186523,1.4165849685668945,0.4899563789367676
1733404707295501600,1.46450146484375,-0.8975143432617188,1.4500267505645752,0.30731379985809326
1733404707305480700,1.474480712890625,-0.028995513916015625,1.4081937074661255,0.04444514214992523
1733404707315490600,1.484490478515625,0.9543704986572266,1.2964673042297363,-0.12043942511081696
1733404707325500400,1.49450048828125,2.0083236694335938,1.1946823596954346,-0.27017635107040405
1733404707335479600,1.5044794921875,2.693511962890625,1.163193941116333,-0.39912551641464233
1733404707345489200,1.5144892578125,3.1115236282348633,1.0921967029571533,-0.448661208152771
1733404707355499000,1.5244990234375,3.139402389526367,1.0585134029388428,-0.5362167954444885
1733404707365478100,1.53447802734375,2.88204288482666,1.0350035429000854,-0.7120664715766907
1733404707375488000,1.544488037109375,2.3250656127929688,1.0328389406204224,-0.8666715621948242
1733404707385497900,1.554497802734375,1.697983741760254,1.0372179746627808,-0.9595087766647339
1733404707395477000,1.56447705078125,1.0315752029418945,1.0387436151504517,-1.1005209684371948
1733404707405486800,1.57448681640625,0.5529775619506836,0.9921786785125732,-1.0250217914581299
1733404707415496700,1.58449658203125,0.05600738525390625,0.9333885908126831,-0.7734392285346985
1733404707425475800,1.594475830078125,-0.4351634979248047,0.8874615430831909,-0.5178759098052979
1733404707435485700,1.604485595703125,-0.9951248168945312,0.8787072896957397,-0.32380619645118713
1733404707445495300,1.614495361328125,-1.4922685623168945,0.8909415006637573,-0.10139824450016022
1733404707455474700,1.624474609375,-2.0082783699035645,0.8971679210662842,0.07364332675933838
1733404707465484500,1.634484619140625,-2.3626341819763184,0.9588977098464966,0.1484377384185791
1733404707475494100,1.644494140625,-2.523890972137451,1.0718019008636475,0.09015607833862305
1733404707485504000,1.65450390625,-2.497488498687744,1.104630947113037,0.039504557847976685
1733404707495483100,1.664483154296875,-2.413181781768799,1.1982817649841309,-0.14365118741989136
1733404707505493000,1.674492919921875,-2.110146999359131,1.3243989944458008,-0.3684583902359009
1733404707515502800,1.6845029296875,-1.722498893737793,1.3947590589523315,-0.4609311819076538
1733404707525482000,1.69448193359375,-1.2404985427856445,1.403963327407837,-0.5822576284408569
1733404707535491800,1.704491943359375,-0.7930965423583984,1.3910375833511353,-0.7270976305007935
1733404707545501700,1.714501708984375,-0.3843545913696289,1.359333872795105,-0.7320191860198975
1733404707555480800,1.724480712890625,0.09155654907226562,1.3587862253189087,-0.7005006074905396
1733404707565490400,1.734490478515625,0.5822200775146484,1.2726714611053467,-0.6678510308265686
1733404707575500300,1.744500244140625,1.145284652709961,1.14437735080719,-0.5862206816673279
1733404707585479400,1.7544794921875,1.5742626190185547,1.0868463516235352,-0.666452169418335
1733404707595489300,1.7644892578125,1.897989273071289,1.072706937789917,-0.8242003917694092
1733404707605499100,1.7744990234375,1.9443464279174805,1.0322905778884888,-0.9588514566421509
1733404707615478300,1.784478271484375,1.7935705184936523,1.1219806671142578,-1.2692795991897583
1733404707625488100,1.794488037109375,1.489109992980957,1.1680803298950195,-1.4142472743988037
1733404707635498000,1.804498046875,1.0429649353027344,1.1998937129974365,-1.3238741159439087
1733404707645477000,1.81447705078125,0.5634603500366211,1.1437623500823975,-1.1819114685058594
1733404707655487000,1.824487060546875,0.13518524169921875,0.9764220714569092,-1.0139613151550293
1733404707665496600,1.83449658203125,-0.06277179718017578,0.8388203382492065,-0.9095253944396973
1733404707675475700,1.844475830078125,-0.13411521911621094,0.763039231300354,-0.8187652826309204
1733404707685485600,1.854485595703125,-0.026482582092285156,0.6758978366851807,-0.6309471726417542
1733404707695495400,1.864495361328125,0.22409534454345703,0.644882321357727,-0.3744938373565674
1733404707705474600,1.874474609375,0.5320825576782227,0.39502739906311035,0.07056519389152527
1733404707715484400,1.884484375,0.8106393814086914,0.1481010913848877,0.37597230076789856
1733404707725494300,1.894494384765625,1.4032039642333984,0.13811588287353516,0.6316632628440857
1733404707735504100,1.904504150390625,2.0234365463256836,0.3502836227416992,0.6190658807754517
1733404707745483300,1.914483154296875,2.561857223510742,0.42780089378356934,0.35655251145362854
1733404707755492900,1.924492919921875,2.770404815673828,0.6975605487823486,0.17912811040878296
1733404707765502700,1.934502685546875,2.601926803588867,0.917351484298706,-0.07702711224555969
1733404707775481900,1.94448193359375,2.1669111251831055,0.9328591823577881,-0.2258698046207428
1733404707785491700,1.95449169921875,1.5536623001098633,0.6232635974884033,-0.32470372319221497
1733404707795501600,1.96450146484375,1.1654901504516602,0.1546492576599121,-0.35992056131362915
1733404707805480700,1.974480712890625,1.0967350006103516,-0.580396294593811,-0.45167863368988037
1733404707815490600,1.984490478515625,1.4303083419799805,-1.3082021474838257,-0.36655348539352417
1733404707825500400,1.99450048828125,2.02945613861084,-1.9514031410217285,-0.146438866853714
1733404707835479600,2.0044794921875,2.82051944732666,-2.4259674549102783,0.1898847222328186
1733404707845489200,2.0144892578125,3.448052406311035,-2.600383758544922,0.29588228464126587
1733404707855499000,2.0244990234375,3.8158388137817383,-2.513397693634033,0.5886868238449097
1733404707865478100,2.03447802734375,3.655581474304199,-2.1973459720611572,0.6614986062049866
1733404707875488000,2.044488037109375,2.4025039672851562,-1.717818021774292,0.6168997883796692
1733404707885497900,2.054497802734375,0.6320943832397461,-1.4290136098861694,0.6024795174598694
1733404707895477000,2.06447705078125,-1.4919557571411133,-1.2185531854629517,0.6105581521987915
1733404707905486800,2.07448681640625,-3.004901885986328,-1.2340619564056396,1.1640524864196777
1733404707915496700,2.08449658203125,-3.8548851013183594,-1.3888200521469116,1.6420278549194336
1733404707925475800,2.094475830078125,-3.7026610374450684,-1.6725099086761475,2.252450466156006
1733404707935485700,2.104485595703125,-3.150801181793213,-1.9417297840118408,2.2566840648651123
1733404707945495300,2.114495361328125,-2.1388535499572754,-2.0744872093200684,2.292100667953491
1733404707955474700,2.124474609375,-1.4476776123046875,-2.0364089012145996,2.000889539718628
1733404707965484500,2.134484619140625,-1.1297721862792969,-1.8686270713806152,1.5852835178375244
1733404707975494100,2.144494140625,-1.2258358001708984,-1.6428532600402832,1.1653811931610107
1733404707985504000,2.15450390625,-1.692068099975586,-1.517337679862976,0.641035795211792
1733404707995483100,2.164483154296875,-2.081188201904297,-1.4797283411026,0.6828656792640686
1733404708005493000,2.174492919921875,-2.241471290588379,-1.4780417680740356,0.46186113357543945
1733404708015502800,2.1845029296875,-1.930680751800537,-1.4428398609161377,0.3332114517688751
1733404708025482000,2.19448193359375,-1.4544787406921387,-1.508661150932312,0.374014288187027
1733404708035491800,2.204491943359375,-0.6930427551269531,-1.5005948543548584,0.2011418342590332
1733404708045501700,2.214501708984375,-0.03838539123535156,-1.4872174263000488,0.09166163206100464
1733404708055480800,2.224480712890625,0.7460060119628906,-1.4307632446289062,0.23374691605567932
1733404708065490400,2.234490478515625,1.1112070083618164,-1.2545634508132935,0.10188841819763184
1733404708075500300,2.244500244140625,1.3415145874023438,-1.016897439956665,0.015441060066223145
1733404708085479400,2.2544794921875,1.164987564086914,-0.8934119939804077,0.10233163833618164
1733404708095489300,2.2644892578125,0.6545524597167969,-0.7769516706466675,0.2650836110115051
1733404708105499100,2.2744990234375,0.1356487274169922,-0.6891412734985352,0.24755147099494934
1733404708115478300,2.284478271484375,-0.47580814361572266,-0.6340460777282715,0.33757907152175903
1733404708125488000,2.294488037109375,-0.9135599136352539,-0.5538040399551392,0.28275078535079956
1733404708135498000,2.304498046875,-1.1644878387451172,-0.4183793067932129,0.17401552200317383
1733404708145477000,2.31447705078125,-1.149169921875,-0.29352474212646484,0.14020508527755737
1733404708155487000,2.324487060546875,-1.045762062072754,-0.24746084213256836,0.10551351308822632
1733404708165496600,2.33449658203125,-0.9787111282348633,-0.249725341796875,-0.0036240816116333008
1733404708175475700,2.344475830078125,-0.9380874633789062,-0.13871145248413086,-0.054728806018829346
1733404708185485600,2.354485595703125,-0.9824934005737305,-0.05080127716064453,0.017684102058410645
1733404708195495400,2.364495361328125,-1.0803756713867188,-0.06503176689147949,0.14224720001220703
1733404708205474600,2.374474609375,-1.2813043594360352,-0.19224333763122559,0.3522501289844513
1733404708215484400,2.384484375,-1.3941030502319336,-0.29305219650268555,0.5970242023468018
1733404708225494300,2.394494384765625,-1.3496809005737305,-0.281951904296875,0.8558773994445801
1733404708235504000,2.404504150390625,-1.3403339385986328,-0.25315380096435547,0.9605023264884949
1733404708245483300,2.414483154296875,-1.1650810241699219,-0.1814560890197754,1.0367803573608398
1733404708255492900,2.424492919921875,-0.6564226150512695,-0.185377836227417,1.1840815544128418
1733404708265502700,2.434502685546875,-0.017637252807617188,-0.12188124656677246,1.2180454730987549
1733404708275481900,2.44448193359375,0.6588401794433594,0.03146696090698242,1.1411007642745972
1733404708285491700,2.45449169921875,0.9645891189575195,0.15701210498809814,1.004359245300293
1733404708295501600,2.46450146484375,1.0752182006835938,0.4586184024810791,0.7722446322441101
1733404708305480700,2.474480712890625,1.095585823059082,0.8089301586151123,0.699745237827301
1733404708315490600,2.484490478515625,0.9291191101074219,1.0093497037887573,0.6923515200614929
1733404708325500400,2.49450048828125,0.6018610000610352,0.9936981201171875,0.7968551516532898
1733404708335479600,2.5044794921875,0.3764982223510742,0.8416177034378052,1.0073447227478027
1733404708345489200,2.5144892578125,0.5295696258544922,0.5828588008880615,1.1602239608764648
1733404708355499000,2.5244990234375,1.1771717071533203,0.27417266368865967,1.2586758136749268
1733404708365478100,2.53447802734375,2.0384979248046875,0.05558156967163086,1.2549890279769897
1733404708375488000,2.544488037109375,2.854672431945801,0.020067691802978516,1.0592436790466309
1733404708385497900,2.554497802734375,3.5606069564819336,0.07714962959289551,0.7263631820678711
1733404708395477000,2.56447705078125,3.937356948852539,0.3499199151992798,0.3977435827255249
1733404708405486800,2.57448681640625,3.914158821105957,0.7996581792831421,0.1043497622013092
1733404708415496700,2.58449658203125,3.4893798828125,1.1519649028778076,-0.20517480373382568
1733404708425475800,2.594475830078125,2.6390600204467773,1.23892343044281,-0.4228328764438629
1733404708435485700,2.604485595703125,2.013521194458008,1.1414738893508911,-0.5082685947418213
1733404708445495300,2.614495361328125,1.822138786315918,1.0866059064865112,-0.5031462907791138
1733404708455474700,2.624474609375,1.8351469039916992,0.9417580366134644,-0.6072936058044434
1733404708465484500,2.634484619140625,1.848886489868164,0.6832177639007568,-0.8165331482887268
1733404708475494100,2.644494140625,1.9208793640136719,0.06833481788635254,-0.9022561311721802
1733404708485504000,2.65450390625,2.0248937606811523,-0.7049616575241089,-0.5370690822601318
1733404708495483100,2.664483154296875,2.668665885925293,-1.6302183866500854,-0.01742139458656311
1733404708505493000,2.674492919921875,3.4094533920288086,-2.380164623260498,0.38910308480262756
1733404708515502800,2.6845029296875,3.955890655517578,-2.924915075302124,0.6074426174163818
1733404708525482000,2.69448193359375,3.9201555252075195,-3.0816802978515625,0.47216108441352844
1733404708535491800,2.704491943359375,3.107492446899414,-2.890808582305908,0.1749860942363739
1733404708545501700,2.714501708984375,1.7779827117919922,-2.5721020698547363,0.048042744398117065
1733404708555480800,2.724480712890625,-0.19489574432373047,-2.035842180252075,-0.35097557306289673
1733404708565490400,2.734490478515625,-2.1841888427734375,-1.6475586891174316,-0.5476700067520142
1733404708575500300,2.744500244140625,-3.995004653930664,-1.19304621219635,-0.5519747734069824
1733404708585479400,2.7544794921875,-5.3414716720581055,-0.77619469165802,-0.7260119915008545
1733404708595489300,2.7644892578125,-6.106340408325195,-0.6587659120559692,-0.7804434299468994
1733404708605499100,2.7744990234375,-6.335491180419922,-0.5919661521911621,-0.7532187700271606
1733404708615478300,2.784478271484375,-5.9841413497924805,-0.7967795133590698,-0.7347817420959473
1733404708625488100,2.794488037109375,-4.785015106201172,-1.2201331853866577,-0.6469942927360535
1733404708635498000,2.804498046875,-3.2689342498779297,-1.6455175876617432,-0.48576512932777405
1733404708645477000,2.81447705078125,-1.4316959381103516,-2.0467278957366943,-0.24895688891410828
1733404708655487000,2.824487060546875,0.03791236877441406,-2.2730801105499268,-0.051548510789871216
1733404708665496600,2.83449658203125,1.267256736755371,-2.358384609222412,0.1635933518409729
1733404708675475700,2.844475830078125,1.8296194076538086,-2.290564775466919,0.33973076939582825
1733404708685485600,2.854485595703125,1.7642364501953125,-2.089827299118042,0.44642871618270874
1733404708695495400,2.864495361328125,1.0442399978637695,-1.8273142576217651,0.4038279056549072
1733404708705474600,2.874474609375,0.3566427230834961,-1.5803395509719849,0.311420202255249
1733404708715484400,2.884484375,-0.19754600524902344,-1.3419147729873657,0.24214045703411102
1733404708725494300,2.894494384765625,-0.3987245559692383,-1.0819343328475952,0.15906518697738647
1733404708735504100,2.904504150390625,-0.46713924407958984,-0.8257733583450317,0.08546498417854309
1733404708745483300,2.914483154296875,-0.45734405517578125,-0.5299700498580933,0.06144052743911743
1733404708755492900,2.924492919921875,-0.5482978820800781,-0.32157957553863525,0.03280158340930939
1733404708765502700,2.934502685546875,-0.742091178894043,-0.22097516059875488,0.09175020456314087
1733404708775481900,2.94448193359375,-0.9833717346191406,-0.11700844764709473,0.1345149725675583
1733404708785491700,2.95449169921875,-1.1802892684936523,-0.026037216186523438,0.12080938369035721
1733404708795501600,2.96450146484375,-1.284353256225586,0.0844106674194336,0.1710546463727951
1733404708805480700,2.974480712890625,-1.5317087173461914,0.14048314094543457,0.07949432730674744
1733404708815490600,2.984490478515625,-1.635439395904541,0.12889838218688965,0.08309062570333481
1733404708825500400,2.99450048828125,-1.713127613067627,0.1518239974975586,0.1612359583377838
1733404708835479600,3.0044794921875,-1.592569351196289,0.18873143196105957,0.0063311755657196045
1733404708845489200,3.0144892578125,-1.2884817123413086,0.2774486541748047,-0.06288400292396545
1733404708855499000,3.0244990234375,-0.9684505462646484,0.31525301933288574,-0.04865451157093048
1733404708865478100,3.03447802734375,-0.5818843841552734,0.33437156677246094,-0.13032561540603638
1733404708875488000,3.044488037109375,-0.2744598388671875,0.31869959831237793,-0.22153285145759583
1733404708885497900,3.054497802734375,-0.023781776428222656,0.18523097038269043,-0.27592048048973083
1733404708895477000,3.06447705078125,0.0474700927734375,0.07928895950317383,-0.19524186849594116
1733404708905486800,3.07448681640625,-0.069732666015625,-0.03984713554382324,-0.0616089403629303
1733404708915496700,3.08449658203125,-0.3582468032836914,-0.0762937068939209,0.012752622365951538
1733404708925475800,3.094475830078125,-0.6590757369995117,-0.07306885719299316,0.0467829704284668
1733404708935485700,3.104485595703125,-0.9219512939453125,-0.09755563735961914,0.24115580320358276
1733404708945495300,3.114495361328125,-1.0115041732788086,-0.02704763412475586,0.2491655796766281
1733404708955474700,3.124474609375,-0.8239603042602539,0.060399532318115234,0.15142303705215454
1733404708965484500,3.134484619140625,-0.4373931884765625,0.09514307975769043,0.052674517035484314
1733404708975494100,3.144494140625,0.20392322540283203,0.12417101860046387,-0.03164792060852051
1733404708985504000,3.15450390625,0.8281707763671875,0.037471771240234375,0.0023878812789916992
1733404708995483100,3.164483154296875,1.6351985931396484,0.07076048851013184,-0.1372150182723999
1733404709005493000,3.174492919921875,2.249770164489746,0.03706216812133789,-0.2510074973106384
1733404709015502800,3.1845029296875,2.8618993759155273,0.17664623260498047,-0.23421579599380493
1733404709025482000,3.19448193359375,3.2950239181518555,0.3045741319656372,-0.265610933303833
1733404709035491800,3.204491943359375,3.3807592391967773,0.35067105293273926,-0.10951931029558182
1733404709045501700,3.214501708984375,3.24100399017334,0.27510130405426025,0.24265751242637634
1733404709055480800,3.224480712890625,3.0456628799438477,0.180961012840271,0.6431763768196106
1733404709065490400,3.234490478515625,3.0838308334350586,0.09981381893157959,0.9904865026473999
1733404709075500300,3.244500244140625,3.3955135345458984,0.14993155002593994,1.0741264820098877
1733404709085479400,3.2544794921875,3.6619529724121094,0.35202252864837646,0.7861009836196899
1733404709095489300,3.2644892578125,3.5865068435668945,0.5158946514129639,0.5034028887748718
1733404709105499100,3.2744990234375,3.0023632049560547,0.7002989053726196,0.5182280540466309
1733404709115478300,3.284478271484375,2.171452522277832,0.7619273662567139,0.5523450970649719
1733404709125488000,3.294488037109375,1.1257925033569336,0.3967550992965698,0.3091590702533722
1733404709135498000,3.304498046875,0.43851184844970703,-0.5631310939788818,0.19772042334079742
1733404709145477000,3.31447705078125,0.5555791854858398,-1.635731816291809,0.15769529342651367
1733404709155487000,3.324487060546875,1.502126693725586,-2.796501874923706,0.24445754289627075
1733404709165496600,3.33449658203125,2.7275867462158203,-3.440070629119873,0.22657522559165955
1733404709175475700,3.344475830078125,3.9631118774414062,-3.4951210021972656,0.09866552799940109
1733404709185485600,3.354485595703125,4.202613830566406,-3.375061511993408,0.056193575263023376
1733404709195495400,3.364495361328125,3.2192068099975586,-3.2305026054382324,0.26586979627609253
1733404709205474600,3.374474609375,1.608412742614746,-3.038527250289917,0.8708270788192749
1733404709215484400,3.384484375,-0.5527315139770508,-2.727539539337158,1.262713074684143
1733404709225494300,3.394494384765625,-2.4148359298706055,-2.195974349975586,1.0078132152557373
1733404709235504000,3.404504150390625,-4.008693218231201,-1.4983766078948975,0.6213950514793396
1733404709245483300,3.414483154296875,-5.269692420959473,-1.0009804964065552,0.2942424714565277
1733404709255492900,3.424492919921875,-6.0949907302856445,-0.7636127471923828,-0.008336560800671577
1733404709265502700,3.434502685546875,-6.5463948249816895,-0.7762018442153931,-0.4984126687049866
1733404709275481900,3.44448193359375,-6.1076483726501465,-0.916593074798584,-0.2437305897474289
1733404709285491700,3.45449169921875,-4.915028095245361,-1.3345140218734741,-0.30245935916900635
1733404709295501600,3.46450146484375,-3.392928123474121,-1.7170777320861816,-0.25529149174690247
1733404709305480700,3.474480712890625,-1.525956153869629,-2.0932199954986572,-0.19835388660430908
1733404709315490600,3.484490478515625,-0.06279373168945312,-2.307020902633667,-0.12329349666833878
1733404709325500400,3.49450048828125,1.0531072616577148,-2.4068379402160645,-0.06987209618091583
1733404709335479600,3.5044794921875,1.381688117980957,-2.3719680309295654,-0.20461887121200562
1733404709345489200,3.5144892578125,1.2408533096313477,-2.1658337116241455,-0.30400723218917847
1733404709355499000,3.5244990234375,0.59979248046875,-1.743852138519287,-0.2719905972480774
1733404709365478100,3.53447802734375,-0.35807037353515625,-1.4247159957885742,-0.3361852765083313
1733404709375488000,3.544488037109375,-1.1621923446655273,-0.8698244094848633,0.23779913783073425
1733404709385497900,3.554497802734375,-1.5924015045166016,-0.6314911842346191,0.3500576317310333
1733404709395477000,3.56447705078125,-1.554347038269043,-0.3461461067199707,0.23397669196128845
1733404709405486800,3.57448681640625,-1.1818485260009766,-0.08062171936035156,0.09164229035377502
1733404709415496700,3.58449658203125,-0.6028470993041992,0.006336688995361328,-0.028382033109664917
1733404709425475800,3.594475830078125,-0.005587577819824219,0.08137118816375732,-0.1931757628917694
1733404709435485700,3.604485595703125,0.5946321487426758,0.023316621780395508,-0.2838688790798187
1733404709445495300,3.614495361328125,0.8803730010986328,-0.0408022403717041,-0.1559283435344696
1733404709455474700,3.624474609375,0.7875680923461914,-0.17880380153656006,0.017966091632843018
1733404709465484500,3.634484619140625,0.4172210693359375,-0.24799883365631104,0.31692034006118774
1733404709475494100,3.644494140625,-0.007298469543457031,-0.24563086032867432,0.7257651090621948
1733404709485504000,3.65450390625,-0.5096092224121094,-0.22614097595214844,0.9988163709640503
1733404709495483100,3.664483154296875,-0.7884607315063477,-0.0911858081817627,0.9654632806777954
1733404709505493000,3.674492919921875,-0.9617137908935547,0.05672109127044678,1.0249710083007812
1733404709515502800,3.6845029296875,-1.1542329788208008,0.15213096141815186,1.0581004619598389
1733404709525482000,3.69448193359375,-1.2534418106079102,0.28321707248687744,0.9514866471290588
1733404709535491800,3.704491943359375,-1.3500699996948242,0.3678537607192993,0.8950479030609131
1733404709545501700,3.714501708984375,-1.2695856094360352,0.46044468879699707,0.8326431512832642
1733404709555480800,3.724480712890625,-1.0485410690307617,0.49416184425354004,0.891133189201355
1733404709565490400,3.734490478515625,-0.6308126449584961,0.5564219951629639,0.9075169563293457
1733404709575500300,3.744500244140625,-0.3520965576171875,0.6005079746246338,0.857519268989563
1733404709585479400,3.7544794921875,-0.13279151916503906,0.5080249309539795,0.7653011083602905
1733404709595489300,3.7644892578125,0.2583446502685547,0.3471043109893799,0.6333062648773193
1733404709605499100,3.7744990234375,0.7295856475830078,0.12427568435668945,0.5316154956817627
1733404709615478300,3.784478271484375,1.129629135131836,-0.16643452644348145,0.3868728280067444
1733404709625488100,3.794488037109375,1.79669189453125,-0.4262129068374634,0.35173124074935913
1733404709635498000,3.804498046875,2.537665367126465,-0.8273783922195435,0.3705251216888428
1733404709645477000,3.81447705078125,3.272732734680176,-1.1038461923599243,0.27708274126052856
1733404709655487000,3.824487060546875,4.174736976623535,-0.8041492700576782,-0.13891512155532837
1733404709665496600,3.83449658203125,4.540876388549805,-0.43726253509521484,-0.6775013208389282
1733404709675475700,3.844475830078125,4.4013872146606445,0.08665156364440918,-0.9324181079864502
1733404709685485600,3.854485595703125,3.931765556335449,0.524327278137207,-1.3715755939483643
1733404709695495400,3.864495361328125,3.0878305435180664,0.44119715690612793,-1.989894151687622
1733404709705474600,3.874474609375,2.4224853515625,0.28716039657592773,-2.0644445419311523
1733404709715484400,3.884484375,2.324069023132324,0.17998003959655762,-2.2096872329711914
1733404709725494300,3.894494384765625,2.673886299133301,0.07254409790039062,-2.3067851066589355
1733404709735504100,3.904504150390625,2.920980453491211,-0.5309982299804688,-2.07423734664917
1733404709745483300,3.914483154296875,3.1739768981933594,-1.494746208190918,-1.460330605506897
1733404709755492900,3.924492919921875,3.445925712585449,-2.4931654930114746,-0.8739479780197144
1733404709765502700,3.934502685546875,3.67083740234375,-3.5705294609069824,-0.20143362879753113
1733404709775481900,3.94448193359375,3.8363332748413086,-3.977328300476074,0.01043933629989624
1733404709785491700,3.95449169921875,3.5258092880249023,-3.684847116470337,-0.4634493589401245
1733404709795501600,3.96450146484375,2.5971736907958984,-3.170642614364624,-1.114314079284668
1733404709805480700,3.974480712890625,1.2413501739501953,-2.821348190307617,-1.443078875541687
1733404709815490600,3.984490478515625,-0.8086442947387695,-2.3650221824645996,-1.9543930292129517
1733404709825500400,3.99450048828125,-3.104646682739258,-2.241342782974243,-2.442643642425537
1733404709835479600,4.0044794921875,-5.2774248123168945,-2.012054443359375,-2.61112904548645
1733404709845489200,4.0144892578125,-6.587519645690918,-1.8614745140075684,-2.4311835765838623
1733404709855499000,4.0244990234375,-7.210801124572754,-1.7514938116073608,-2.0457053184509277
1733404709865478100,4.03447802734375,-7.113470077514648,-1.7610118389129639,-1.6123837232589722
1733404709875488000,4.044488037109375,-6.088047027587891,-1.9471524953842163,-1.1300299167633057
1733404709885497900,4.054497802734375,-4.679133892059326,-2.2241649627685547,-0.7780736684799194
1733404709895477000,4.06447705078125,-2.782465934753418,-2.3412370681762695,-0.7653599381446838
1733404709905486800,4.07448681640625,-0.8236351013183594,-2.3936214447021484,-0.6998834013938904
1733404709915496700,4.08449658203125,0.6586322784423828,-2.3727164268493652,-0.6110575795173645
1733404709925475800,4.094475830078125,1.863626480102539,-2.3993194103240967,-0.6126108765602112
1733404709935485700,4.104485595703125,2.5699195861816406,-2.2325422763824463,-0.4448772668838501
1733404709945495600,4.11449560546875,2.77657413482666,-2.084398031234741,-0.25509363412857056
1733404709955474700,4.124474609375,2.5491819381713867,-1.7927348613739014,-0.2790910303592682
1733404709965484500,4.134484619140625,2.0334644317626953,-1.3768086433410645,-0.41805902123451233
1733404709975494100,4.144494140625,1.399606704711914,-1.0066642761230469,-0.5021203756332397
1733404709985504000,4.15450390625,0.5839853286743164,-0.6677764654159546,-0.515251636505127
1733404709995483100,4.164483154296875,-0.15108394622802734,-0.4700511693954468,-0.4800221025943756
1733404710005493000,4.174492919921875,-0.7196283340454102,-0.34961628913879395,-0.4855251610279083
1733404710015502800,4.1845029296875,-1.0722970962524414,-0.2135324478149414,-0.5546969175338745
1733404710025482000,4.19448193359375,-1.3021926879882812,-0.16384339332580566,-0.6278781294822693
1733404710035491800,4.204491943359375,-1.4649438858032227,-0.16611504554748535,-0.812335729598999
1733404710045501700,4.214501708984375,-1.50095796585083,-0.16952204704284668,-0.9003913402557373
1733404710055480800,4.224480712890625,-1.4369306564331055,-0.182875394821167,-1.0190861225128174
1733404710065490400,4.234490478515625,-1.3798398971557617,-0.17001867294311523,-1.1166563034057617
1733404710075500300,4.244500244140625,-1.258265495300293,-0.16398239135742188,-1.3343255519866943
1733404710085479400,4.2544794921875,-1.1302080154418945,-0.20857810974121094,-1.3889391422271729
1733404710095489300,4.2644892578125,-0.9259033203125,-0.23768258094787598,-1.4614460468292236
1733404710105499100,4.2744990234375,-0.6722335815429688,-0.31581592559814453,-1.4517979621887207
1733404710115478300,4.284478271484375,-0.3856687545776367,-0.36083531379699707,-1.397897481918335
1733404710125488000,4.294488037109375,-0.08190727233886719,-0.3296623229980469,-1.276801586151123
1733404710135498000,4.304498046875,0.17884159088134766,-0.3883904218673706,-0.9226572513580322
1733404710145477000,4.31447705078125,0.4417858123779297,-0.28457629680633545,-0.6730915307998657
1733404710155487000,4.324487060546875,0.6829204559326172,-0.1169595718383789,-0.5092985033988953
1733404710165496600,4.33449658203125,0.7963733673095703,-0.003703594207763672,-0.45584309101104736
1733404710175475700,4.344475830078125,0.7700786590576172,0.12447905540466309,-0.4741255044937134
1733404710185485600,4.354485595703125,0.547114372253418,0.2528383731842041,-0.5806998014450073
1733404710195495400,4.364495361328125,0.2829713821411133,0.30307579040527344,-0.7270155549049377
1733404710205474600,4.374474609375,0.15391159057617188,0.3904132843017578,-0.8823414444923401
1733404710215484400,4.384484375,0.1682415008544922,0.46699047088623047,-1.0641831159591675
1733404710225494300,4.394494384765625,0.3204813003540039,0.5458371639251709,-1.4088025093078613
1733404710235504000,4.404504150390625,0.6099920272827148,0.28031349182128906,-1.4182387590408325
1733404710245483300,4.414483154296875,1.003605842590332,-0.18298983573913574,-0.8153538703918457
1733404710255492900,4.424492919921875,1.80108642578125,-0.6819870471954346,-0.01374080777168274
1733404710265502700,4.434502685546875,2.8856496810913086,-1.0264195203781128,0.936898946762085
1733404710275481900,4.44448193359375,4.303164482116699,-0.9949742555618286,1.5937809944152832
1733404710285491700,4.45449169921875,5.2089385986328125,-0.8229539394378662,1.7465307712554932
1733404710295501600,4.46450146484375,5.811437606811523,-0.18635261058807373,1.8231481313705444
1733404710305480700,4.474480712890625,5.652410507202148,0.08448910713195801,1.8456112146377563
1733404710315490600,4.484490478515625,4.675572395324707,0.00814199447631836,1.6934046745300293
1733404710325500400,4.49450048828125,3.5656003952026367,-0.4601517915725708,1.5617998838424683
1733404710335479600,4.5044794921875,2.661200523376465,-1.401964783668518,1.2147566080093384
1733404710345489200,4.5144892578125,2.5445985794067383,-2.397984504699707,0.500599205493927
1733404710355499000,4.5244990234375,3.1917057037353516,-2.891669750213623,0.004806622862815857
1733404710365478400,4.534478515625,3.854874610900879,-3.0807650089263916,-0.38387835025787354
1733404710375488000,4.544488037109375,3.6057357788085938,-3.184814453125,-0.4788591265678406
1733404710385497900,4.554497802734375,2.6031455993652344,-3.1198570728302,0.22382816672325134
1733404710395477000,4.56447705078125,1.0621223449707031,-3.0753567218780518,0.8261955380439758
1733404710405486800,4.57448681640625,-0.9356594085693359,-3.010573387145996,1.6967134475708008
1733404710415496700,4.58449658203125,-2.6921582221984863,-2.789882183074951,2.1637418270111084
1733404710425475800,4.594475830078125,-4.420084476470947,-2.475541353225708,2.3054585456848145
1733404710435485700,4.604485595703125,-5.622853755950928,-2.1519827842712402,2.2110605239868164
1733404710445495600,4.61449560546875,-6.444842338562012,-1.8237485885620117,2.0682497024536133
1733404710455474700,4.624474609375,-6.561158657073975,-1.6914366483688354,1.8921840190887451
1733404710465484500,4.634484619140625,-6.198779106140137,-1.7305024862289429,1.6447868347167969
1733404710475494100,4.644494140625,-5.107297420501709,-1.670324683189392,1.2087658643722534
1733404710485504000,4.65450390625,-3.815162181854248,-1.560692548751831,0.8440984487533569
1733404710495483100,4.664483154296875,-2.336700916290283,-1.537562370300293,0.4933083653450012
1733404710505493000,4.674492919921875,-1.1328010559082031,-1.4826581478118896,0.32376131415367126
1733404710515502800,4.6845029296875,-0.1542062759399414,-1.553490400314331,0.276674747467041
1733404710525482000,4.69448193359375,0.4646615982055664,-1.5588104724884033,0.19442075490951538
1733404710535491800,4.704491943359375,0.9116344451904297,-1.4780163764953613,0.10761517286300659
1733404710545501700,4.714501708984375,1.186537742614746,-1.3218574523925781,-0.14353978633880615
1733404710555480800,4.724480712890625,1.279637336730957,-1.2353644371032715,-0.3350970149040222
1733404710565490700,4.73449072265625,1.237447738647461,-1.1547296047210693,-0.3359840512275696
1733404710575500300,4.744500244140625,1.1185483932495117,-1.0185104608535767,-0.3177148699760437
1733404710585479400,4.7544794921875,0.955439567565918,-0.802027702331543,-0.3164917826652527
1733404710595489300,4.7644892578125,0.8726320266723633,-0.6152524948120117,-0.26530784368515015
1733404710605499100,4.7744990234375,0.6474800109863281,-0.5235323905944824,-0.18692994117736816
1733404710615478300,4.784478271484375,0.36864280700683594,-0.5060844421386719,0.05930033326148987
1733404710625488100,4.794488037109375,-0.0019931793212890625,-0.4143955707550049,0.07851308584213257
1733404710635498000,4.804498046875,-0.31371116638183594,-0.3672966957092285,0.2870516777038574
1733404710645477000,4.81447705078125,-0.6359987258911133,-0.29504668712615967,0.5420275330543518
1733404710655487000,4.824487060546875,-0.9687204360961914,-0.2265605926513672,0.702355146408081
1733404710665496600,4.83449658203125,-1.2479658126831055,-0.1684892177581787,0.8178033828735352
1733404710675475700,4.844475830078125,-1.4070444107055664,-0.0739516019821167,0.9540977478027344
1733404710685485600,4.854485595703125,-1.4678239822387695,0.012903213500976562,1.0646370649337769
1733404710695495400,4.864495361328125,-1.4376020431518555,0.11416542530059814,1.1014978885650635
1733404710705474600,4.874474609375,-1.4373903274536133,0.09488105773925781,1.0990906953811646
1733404710715484400,4.884484375,-1.4143571853637695,0.09843921661376953,1.104235053062439
1733404710725494300,4.894494384765625,-1.4150676727294922,0.08726668357849121,1.092607855796814
1733404710735504100,4.904504150390625,-1.298208236694336,0.03028571605682373,1.0175704956054688
1733404710745483300,4.914483154296875,-1.1117534637451172,0.05976295471191406,0.9919407367706299
1733404710755492900,4.924492919921875,-0.7530136108398438,0.10466814041137695,1.006464958190918
1733404710765502700,4.934502685546875,-0.4693489074707031,0.13464665412902832,0.9925835132598877
1733404710775481900,4.94448193359375,-0.1436481475830078,0.14919805526733398,0.9670741558074951
1733404710785491700,4.95449169921875,0.2281789779663086,0.17931246757507324,0.8701037764549255
1733404710795501600,4.96450146484375,0.541783332824707,0.18597650527954102,0.9985141754150391
1733404710805480700,4.974480712890625,0.9072456359863281,0.1382005214691162,1.2151433229446411
1733404710815490600,4.984490478515625,1.290858268737793,0.07134771347045898,1.4949443340301514
1733404710825500400,4.99450048828125,1.8457441329956055,-0.05208611488342285,1.6453205347061157
1733404710835479600,5.0044794921875,2.4691104888916016,-0.08669304847717285,1.731839656829834
1733404710845489400,5.014489501953125,3.096773147583008,-0.017862796783447266,1.5452806949615479
1733404710855499000,5.0244990234375,3.454183578491211,0.24371576309204102,1.045134425163269
1733404710865478400,5.034478515625,3.432131767272949,0.6264110803604126,0.3406842350959778
1733404710875488000,5.044488037109375,3.226468086242676,1.0228620767593384,-0.5693898797035217
1733404710885497900,5.054497802734375,2.94857120513916,1.1656426191329956,-1.1709001064300537
1733404710895477000,5.06447705078125,2.739335060119629,1.1119821071624756,-1.4057987928390503
1733404710905486800,5.07448681640625,2.7130813598632812,0.9847288131713867,-1.3264654874801636
1733404710915496700,5.08449658203125,2.694300651550293,0.8039536476135254,-1.4346537590026855
1733404710925475800,5.094475830078125,2.6705360412597656,0.27713751792907715,-1.4678817987442017
1733404710935485700,5.104485595703125,2.674915313720703,-0.7590314149856567,-1.1014612913131714
1733404710945495600,5.11449560546875,3.165813446044922,-1.8821778297424316,-0.6547150611877441
1733404710955474700,5.124474609375,4.251103401184082,-3.1313579082489014,-0.17537745833396912
1733404710965484500,5.134484619140625,5.4258222579956055,-3.809323787689209,-0.15866070985794067
1733404710975494100,5.144494140625,6.476032257080078,-3.7270336151123047,-0.6613691449165344
1733404710985504000,5.15450390625,6.418492317199707,-3.396111011505127,-1.0495647192001343
1733404710995483100,5.164483154296875,4.634281158447266,-3.0591318607330322,-1.444990873336792
1733404711005493000,5.174492919921875,2.067429542541504,-2.535710334777832,-1.8528136014938354
1733404711015502800,5.1845029296875,-0.5512409210205078,-2.125217914581299,-1.918534517288208
1733404711025482000,5.19448193359375,-3.5012288093566895,-1.9640846252441406,-1.9513453245162964
1733404711035491800,5.204491943359375,-5.5895094871521,-1.9546961784362793,-1.7348116636276245
1733404711045501700,5.214501708984375,-7.0963029861450195,-1.989362359046936,-1.3359050750732422
1733404711055480800,5.224480712890625,-7.477561950683594,-1.960766077041626,-0.8997038006782532
1733404711065490400,5.234490478515625,-6.728915214538574,-1.8808941841125488,-0.5416122674942017
1733404711075500300,5.244500244140625,-5.167705535888672,-1.8714168071746826,-0.24590125679969788
1733404711085874000,5.2548740234375,-3.234734058380127,-1.9977885484695435,0.3395393490791321
1733404711095883800,5.2648837890625,-1.5617356300354004,-2.101898670196533,0.5002747178077698
1733404711105893600,5.2748935546875,-0.043984413146972656,-2.0654916763305664,0.578224778175354
1733404711115872800,5.284872802734375,0.9155387878417969,-1.9268426895141602,0.6537554264068604
1733404711125882400,5.29488232421875,1.3369884490966797,-1.8145503997802734,0.7107560634613037
1733404711135892200,5.304892333984375,1.3610315322875977,-1.6135691404342651,0.7035248279571533
1733404711145871400,5.314871337890625,1.1650629043579102,-1.431161642074585,0.5885100960731506
1733404711155881200,5.324881103515625,0.571690559387207,-1.265062689781189,0.5148558616638184
1733404711165891000,5.33489111328125,-0.048442840576171875,-1.1035138368606567,0.39803874492645264
1733404711175870200,5.3448701171875,-0.5372123718261719,-0.8979299068450928,0.21471381187438965
1733404711185880000,5.354880126953125,-1.0868043899536133,-0.7452154159545898,0.13560199737548828
1733404711195890000,5.364889892578125,-1.712510585784912,-0.5846385955810547,0.0773036777973175
1733404711205869000,5.374869140625,-2.089468479156494,-0.47334933280944824,-0.02070573717355728
1733404711215879000,5.38487890625,-2.3932933807373047,-0.38449740409851074,-0.024338245391845703
1733404711225888500,5.394888427734375,-2.499910831451416,-0.31432080268859863,0.04471147060394287
1733404711235898400,5.4048984375,-2.544543743133545,-0.40253567695617676,0.15789172053337097
1733404711245877800,5.414877685546875,-2.4160900115966797,-0.41780924797058105,0.22911110520362854
1733404711255887400,5.424887451171875,-2.198103904724121,-0.3919792175292969,0.22157302498817444
1733404711265897200,5.434897216796875,-1.8328876495361328,-0.3448913097381592,0.16855201125144958
1733404711275876400,5.44487646484375,-1.3775005340576172,-0.2802720069885254,0.05489639937877655
1733404711285886200,5.45488623046875,-0.7669153213500977,-0.27846336364746094,-0.09860526770353317
1733404711295896000,5.46489599609375,-0.3285493850708008,-0.26020383834838867,-0.14209339022636414
1733404711305875200,5.474875244140625,0.10797595977783203,-0.2772541046142578,-0.189504474401474
1733404711315885000,5.484885009765625,0.48096752166748047,-0.2288217544555664,-0.2007519155740738
1733404711325895000,5.49489501953125,0.7065610885620117,-0.1727302074432373,-0.28369271755218506
1733404711335874000,5.5048740234375,0.7633037567138672,-0.10904479026794434,-0.15766170620918274
1733404711345883600,5.514883544921875,0.7484931945800781,-0.0050961971282958984,-0.1702142357826233
1733404711355893500,5.5248935546875,0.7309598922729492,0.122406005859375,-0.1735883206129074
1733404711365872600,5.53487255859375,0.7637882232666016,0.21396708488464355,-0.1329510509967804
1733404711375882500,5.544882568359375,0.7248859405517578,0.3913569450378418,-0.21386313438415527
1733404711385892400,5.554892333984375,0.6959152221679688,0.5267596244812012,-0.29387927055358887
1733404711395871500,5.56487158203125,0.7728996276855469,0.6340365409851074,-0.37584999203681946
1733404711405881300,5.57488134765625,0.7404413223266602,0.6030759811401367,-0.4859972596168518
1733404711415891200,5.58489111328125,0.889775276184082,0.5250310897827148,-0.5936593413352966
1733404711425870300,5.594870361328125,1.0669288635253906,0.4567451477050781,-0.8415498733520508
1733404711435880200,5.604880126953125,1.4044160842895508,0.3687770366668701,-0.9523547887802124
1733404711445889800,5.614889892578125,1.8427457809448242,0.22177648544311523,-0.7392482757568359
1733404711455869000,5.624868896484375,2.192974090576172,0.07943344116210938,-0.3898879289627075
1733404711465878800,5.634878662109375,2.73856258392334,-0.16440653800964355,0.21770496666431427
1733404711475888600,5.644888671875,3.2999963760375977,-0.3520374298095703,0.6087740659713745
1733404711485898500,5.6548984375,4.073769569396973,-0.2879190444946289,0.9304683208465576
1733404711495877600,5.664877685546875,4.687290191650391,-0.11206579208374023,1.1206878423690796
1733404711505887500,5.674887451171875,4.799604415893555,0.16529130935668945,1.0784878730773926
1733404711515897300,5.6848974609375,4.610906600952148,0.4593205451965332,0.9647201895713806
1733404711525876500,5.69487646484375,3.683547019958496,0.33718085289001465,0.9294221997261047
1733404711535886300,5.70488623046875,2.6317138671875,-0.2682034969329834,1.0834832191467285
1733404711545896000,5.71489599609375,1.6418037414550781,-1.3691940307617188,1.2460966110229492
1733404711555875000,5.724875,1.3727188110351562,-2.5871806144714355,0.9536007046699524
1733404711565885000,5.734885009765625,1.4828557968139648,-3.2626895904541016,0.7655060291290283
1733404711575894800,5.744894775390625,2.0412588119506836,-3.335054874420166,0.8190233707427979
1733404711585874000,5.7548740234375,2.122701644897461,-3.336761951446533,0.7149650454521179
1733404711595883800,5.7648837890625,1.4542579650878906,-3.4106616973876953,0.7732585668563843
1733404711605893600,5.7748935546875,0.32344722747802734,-3.3161115646362305,1.0221494436264038
1733404711615872800,5.784872802734375,-1.3452434539794922,-3.077573299407959,1.146712303161621
1733404711625882600,5.794882568359375,-2.9802589416503906,-2.7533774375915527,0.9922918677330017
1733404711635892200,5.804892333984375,-4.610296726226807,-2.240818500518799,0.7720009684562683
1733404711645871400,5.814871337890625,-5.757392883300781,-1.840136170387268,0.6037963628768921
1733404711655881200,5.824881103515625,-6.3849687576293945,-1.5101895332336426,0.3160819709300995
1733404711665891000,5.83489111328125,-6.122891426086426,-1.4311069250106812,0.12922754883766174
1733404711675870200,5.8448701171875,-5.216930389404297,-1.6394621133804321,0.12592485547065735
1733404711685880000,5.854880126953125,-3.6806440353393555,-1.9536573886871338,-0.17854689061641693
1733404711695890000,5.864889892578125,-2.088963508605957,-2.1558034420013428,-0.29723697900772095
1733404711705869000,5.874869140625,-0.4052906036376953,-2.329796075820923,-0.37230655550956726
1733404711715879000,5.88487890625,0.9293146133422852,-2.3654286861419678,-0.35199981927871704
1733404711725888500,5.894888427734375,1.9681634902954102,-2.3317759037017822,-0.4013240337371826
1733404711735898400,5.9048984375,2.4533605575561523,-2.197082281112671,-0.4784741997718811
1733404711745877800,5.914877685546875,2.599184036254883,-1.9651471376419067,-0.39627692103385925
1733404711755887400,5.924887451171875,2.3813228607177734,-1.721552848815918,-0.18171468377113342
1733404711765897200,5.934897216796875,1.6279716491699219,-1.3349344730377197,-0.19952332973480225
1733404711775876400,5.94487646484375,0.736149787902832,-0.8683532476425171,-0.19401821494102478
1733404711785886200,5.95488623046875,-0.22868824005126953,-0.5851014852523804,-0.04924464225769043
1733404711795896000,5.96489599609375,-1.0695667266845703,-0.41911065578460693,-0.07046103477478027
1733404711805875200,5.974875244140625,-1.4694147109985352,-0.23164081573486328,-0.15652340650558472
1733404711815885000,5.984885009765625,-1.6403770446777344,-0.19308948516845703,-0.15067878365516663
1733404711825895000,5.99489501953125,-1.5106515884399414,-0.17534637451171875,-0.22669866681098938
1733404711835874000,6.0048740234375,-1.1098194122314453,-0.22331690788269043,-0.09041941165924072
1733404711845884000,6.0148837890625,-0.6958866119384766,-0.3008004426956177,0.07977430522441864
1733404711855893500,6.0248935546875,-0.4355144500732422,-0.39993929862976074,0.19374710321426392
1733404711865872600,6.03487255859375,-0.36140918731689453,-0.44805240631103516,0.3181633949279785
1733404711875882500,6.044882568359375,-0.5805797576904297,-0.44170236587524414,0.38845354318618774
1733404711885892400,6.054892333984375,-0.8796119689941406,-0.406843900680542,0.39542096853256226
1733404711895871500,6.06487158203125,-1.1500663757324219,-0.3302114009857178,0.4985494613647461
1733404711905881300,6.07488134765625,-1.3524484634399414,-0.337634801864624,0.6595232486724854
1733404711915891200,6.08489111328125,-1.501673698425293,-0.3161071538925171,0.7128345370292664
1733404711925870300,6.094870361328125,-1.4691495895385742,-0.2911473512649536,0.6420076489448547
1733404711935880200,6.104880126953125,-1.1931581497192383,-0.2890404462814331,0.6556990146636963
1733404711945889800,6.114889892578125,-0.8605928421020508,-0.2610419988632202,0.592452347278595
1733404711955869000,6.124868896484375,-0.6291103363037109,-0.1797771453857422,0.4296841621398926
1733404711965878800,6.134878662109375,-0.37043094635009766,-0.10799026489257812,0.2954922020435333
1733404711975888600,6.144888671875,-0.18231487274169922,-0.04369544982910156,0.2164478600025177
1733404711985898500,6.1548984375,-0.05391407012939453,0.04922890663146973,0.0648922473192215
1733404711995877600,6.164877685546875,0.03269481658935547,0.05299234390258789,0.13259994983673096
1733404712005887500,6.174887451171875,0.17312145233154297,0.08561301231384277,0.22029803693294525
1733404712015897300,6.1848974609375,0.3323955535888672,0.06371474266052246,0.48024845123291016
1733404712025876500,6.19487646484375,0.599726676940918,-0.012537002563476562,0.6594061255455017
1733404712035886000,6.204885986328125,1.200021743774414,-0.1138300895690918,0.8123087882995605
1733404712045896000,6.21489599609375,2.025421142578125,-0.1228710412979126,1.0691838264465332
1733404712055875000,6.224875,2.993168830871582,-0.08947598934173584,1.1172858476638794
1733404712065885000,6.234885009765625,3.5991172790527344,0.22826671600341797,0.9649792909622192
1733404712075894800,6.244894775390625,3.7249069213867188,0.7590975761413574,0.587038516998291
1733404712085874000,6.2548740234375,3.3333473205566406,1.1763198375701904,0.14641447365283966
1733404712095883800,6.2648837890625,2.413015365600586,1.316449761390686,-0.292521208524704
1733404712105893600,6.2748935546875,1.6553544998168945,1.2682428359985352,-0.6358740329742432
1733404712115872800,6.284872802734375,1.5018491744995117,1.0409945249557495,-0.6027577519416809
1733404712125882400,6.29488232421875,1.7780838012695312,0.7402057647705078,-0.7625218629837036
1733404712135892200,6.304892333984375,2.186396598815918,0.357771635055542,-0.7349361777305603
1733404712145871400,6.314871337890625,2.721766471862793,-0.37329256534576416,-0.5335677266120911
1733404712155881200,6.324881103515625,3.1736106872558594,-1.2927660942077637,-0.23035189509391785
1733404712165891000,6.33489111328125,4.011262893676758,-2.525024890899658,0.27013272047042847
1733404712175870200,6.3448701171875,5.129513740539551,-3.4167327880859375,0.3602050542831421
1733404712185880000,6.354880126953125,6.296717643737793,-4.073328018188477,0.12899230420589447
1733404712195890000,6.364889892578125,6.725647926330566,-4.040355682373047,0.20396868884563446
1733404712205869000,6.374869140625,6.09561824798584,-3.578946590423584,-0.5565688014030457
1733404712215879000,6.38487890625,4.020949363708496,-3.083822250366211,-1.4012846946716309
1733404712225888800,6.394888671875,1.9685077667236328,-2.3050150871276855,-1.7725975513458252
1733404712235898400,6.4048984375,-0.7197589874267578,-1.592540979385376,-2.0720324516296387
1733404712245877800,6.414877685546875,-3.4019012451171875,-1.165207862854004,-2.421538829803467
1733404712255887400,6.424887451171875,-5.940738677978516,-0.8876161575317383,-2.401068687438965
1733404712265897200,6.434897216796875,-7.488253593444824,-0.7891323566436768,-2.0483615398406982
1733404712275876400,6.44487646484375,-8.261443138122559,-0.7007356882095337,-1.7509393692016602
1733404712285886200,6.45488623046875,-8.221440315246582,-0.8959865570068359,-1.6234873533248901
1733404712295896000,6.46489599609375,-7.565083980560303,-1.4475281238555908,-1.2629956007003784
1733404712305875200,6.474875244140625,-6.008330821990967,-1.602856993675232,-1.081080436706543
1733404712315885000,6.484885009765625,-3.9334778785705566,-1.8795337677001953,-0.7955588102340698
1733404712325895000,6.49489501953125,-2.1160740852355957,-2.2228779792785645,-0.7523876428604126
1733404712335874000,6.5048740234375,-0.3374013900756836,-2.404322862625122,-0.7920202016830444
1733404712345883600,6.514883544921875,1.4799423217773438,-2.507577896118164,-0.9287152886390686
1733404712355893500,6.5248935546875,2.8022146224975586,-2.6043741703033447,-0.8213286399841309
1733404712365872600,6.53487255859375,3.6841583251953125,-2.5579984188079834,-0.6776138544082642
1733404712375882500,6.544882568359375,3.6444177627563477,-2.4057111740112305,-0.6128917932510376
1733404712385892400,6.554892333984375,2.873167037963867,-1.9929872751235962,-0.5503475666046143
1733404712395871500,6.56487158203125,1.8686294555664062,-1.5316050052642822,-0.46963047981262207
1733404712405881300,6.57488134765625,0.8404083251953125,-1.0737264156341553,-0.40459954738616943
1733404712415891200,6.58489111328125,0.3193178176879883,-0.7322942018508911,-0.3601309657096863
1733404712425870300,6.594870361328125,-0.16717147827148438,-0.4665945768356323,-0.34063392877578735
1733404712435880200,6.604880126953125,-0.6891441345214844,-0.27850306034088135,-0.3824422359466553
1733404712445889800,6.614889892578125,-0.8352823257446289,0.11902213096618652,-0.532380998134613
1733404712455869000,6.624868896484375,-1.2782726287841797,0.30367183685302734,-0.563223123550415
1733404712465878800,6.634878662109375,-1.5800466537475586,0.2277836799621582,-0.6683319807052612
1733404712475888600,6.644888671875,-1.5426359176635742,0.08128023147583008,-0.552338182926178
1733404712485898500,6.6548984375,-1.3875064849853516,-0.11335086822509766,-0.4548001289367676
1733404712495877600,6.664877685546875,-1.1665563583374023,-0.3763091564178467,-0.49389559030532837
1733404712505887500,6.674887451171875,-0.7400722503662109,-0.5084129571914673,-0.38792192935943604
1733404712515897300,6.6848974609375,-0.3326292037963867,-0.6772452592849731,-0.44010698795318604
1733404712525876500,6.69487646484375,-0.056136131286621094,-0.7753438949584961,-0.3620305061340332
1733404712535886300,6.70488623046875,0.04852771759033203,-0.7258837223052979,-0.18568991124629974
1733404712545896000,6.71489599609375,-0.0861978530883789,-0.6055995225906372,0.04729527235031128
1733404712555875000,6.724875,-0.26681995391845703,-0.5324404239654541,0.07814757525920868
1733404712565885000,6.734885009765625,-0.43466758728027344,-0.3142561912536621,0.01732940971851349
1733404712575894800,6.744894775390625,-0.5020837783813477,-0.054135799407958984,0.03575688600540161
1733404712585874000,6.7548740234375,-0.47441959381103516,0.20254576206207275,-0.04415588080883026
1733404712595883800,6.7648837890625,-0.3281745910644531,0.4427837133407593,-0.2010153830051422
1733404712605893600,6.7748935546875,-0.12565231323242188,0.6041654348373413,-0.13606032729148865
1733404712615872800,6.784872802734375,-0.024593353271484375,0.680463433265686,0.06683635711669922
1733404712625882600,6.794882568359375,-0.02751636505126953,0.642723560333252,0.10201206803321838
1733404712635892200,6.804892333984375,-0.042799949645996094,0.6109893321990967,0.048353686928749084
1733404712645871600,6.81487158203125,0.02942943572998047,0.6038284301757812,0.07444703578948975
1733404712655881200,6.824881103515625,0.24084091186523438,0.5408773422241211,0.13730038702487946
1733404712665891000,6.83489111328125,0.5370311737060547,0.34797120094299316,0.150075763463974
1733404712675870500,6.844870361328125,0.8759899139404297,0.15581178665161133,0.24970996379852295
1733404712685880000,6.854880126953125,1.3219804763793945,0.10515260696411133,0.5336188077926636
1733404712695890000,6.864889892578125,1.6927738189697266,-0.0013556480407714844,0.7802545428276062
1733404712705869000,6.874869140625,1.8446836471557617,-0.12648510932922363,0.9387490749359131
1733404712715879000,6.88487890625,2.3135738372802734,-0.36681902408599854,1.2047696113586426
1733404712725888800,6.894888671875,2.8166418075561523,-0.5871810913085938,1.434290885925293
1733404712735898400,6.9048984375,3.083216667175293,-0.6467972993850708,1.494415044784546
1733404712745877800,6.914877685546875,3.132645606994629,-0.6482827663421631,1.2230489253997803
1733404712755887400,6.924887451171875,2.780299186706543,-0.926512598991394,1.0564744472503662
1733404712765897200,6.934897216796875,2.7440385818481445,-1.3284416198730469,1.2858428955078125
1733404712775876400,6.94487646484375,2.959284782409668,-1.8834421634674072,1.4171380996704102
1733404712785886200,6.95488623046875,3.3705520629882812,-2.652830123901367,1.537377119064331
1733404712795896000,6.96489599609375,4.063595771789551,-3.235172748565674,1.5174106359481812
1733404712805875200,6.974875244140625,4.775267601013184,-3.535823345184326,1.4786005020141602
1733404712815885000,6.984885009765625,4.918021202087402,-3.36448073387146,1.2437169551849365
1733404712825895000,6.99489501953125,4.120537757873535,-2.8620924949645996,0.9497536420822144
1733404712835874000,7.0048740234375,2.6607131958007812,-2.3720192909240723,0.6479995250701904
1733404712845884000,7.0148837890625,0.6915616989135742,-1.976739764213562,0.5354481935501099
1733404712855893500,7.0248935546875,-1.1987838745117188,-1.5022966861724854,0.23263025283813477
1733404712865872600,7.03487255859375,-3.258204460144043,-1.3401161432266235,0.11299377679824829
1733404712875882500,7.044882568359375,-4.846922397613525,-1.272055745124817,0.3372870087623596
1733404712885892400,7.054892333984375,-5.773299217224121,-1.195223331451416,0.48898208141326904
1733404712895871500,7.06487158203125,-6.330292701721191,-1.206088662147522,0.5414294600486755
1733404712905881300,7.07488134765625,-6.400809288024902,-1.4048875570297241,0.4011896252632141
1733404712915891200,7.08489111328125,-5.948859691619873,-1.7113877534866333,0.21051256358623505
1733404712925870300,7.094870361328125,-5.109657287597656,-2.0475008487701416,0.01580488681793213
1733404712935880200,7.104880126953125,-3.8192572593688965,-2.448765754699707,-0.18940964341163635
1733404712945889800,7.114889892578125,-2.3642373085021973,-2.799480676651001,-0.29552924633026123
1733404712955869000,7.124868896484375,-0.6036567687988281,-2.96147084236145,-0.531114935874939
1733404712965878800,7.134878662109375,0.8759889602661133,-2.9776296615600586,-0.7398048043251038
1733404712975888600,7.144888671875,2.096698760986328,-2.8594584465026855,-0.9045103788375854
1733404712985898500,7.1548984375,2.716062545776367,-2.5796914100646973,-1.0373351573944092
1733404712995877600,7.164877685546875,2.90789794921875,-2.123394012451172,-0.9862111806869507
1733404713005887500,7.174887451171875,2.5635061264038086,-1.615249752998352,-0.9406543374061584
1733404713015897300,7.1848974609375,1.9929285049438477,-1.246990442276001,-1.0125986337661743
1733404713025876500,7.19487646484375,1.3432817459106445,-0.9002170562744141,-0.9920193552970886
1733404713035886000,7.204885986328125,0.8830108642578125,-0.5918768644332886,-1.060111165046692
1733404713045896000,7.21489599609375,0.5418481826782227,-0.4254329204559326,-1.174654483795166
1733404713055875000,7.224875,0.3319845199584961,-0.3911595344543457,-1.1191608905792236
1733404713065885000,7.234885009765625,0.05834674835205078,-0.4205195903778076,-1.1632819175720215
1733404713075894800,7.244894775390625,-0.15697193145751953,-0.6091382503509521,-1.1730585098266602
1733404713085874000,7.2548740234375,-0.3311901092529297,-0.7175712585449219,-1.0603625774383545
1733404713095883800,7.2648837890625,-0.49809932708740234,-0.8164130449295044,-0.9707373976707458
1733404713105893600,7.2748935546875,-0.6408967971801758,-0.8870582580566406,-0.8607130646705627
1733404713115872800,7.284872802734375,-0.7000617980957031,-0.9165561199188232,-0.7822877168655396
1733404713125882400,7.29488232421875,-0.7239065170288086,-0.9559412002563477,-0.748414933681488
1733404713135892200,7.304892333984375,-0.7284698486328125,-0.717070460319519,-0.5474310517311096
1733404713145871600,7.31487158203125,-0.7016401290893555,-0.5146380662918091,-0.5002582669258118
1733404713155881200,7.324881103515625,-0.5563144683837891,-0.3350706100463867,-0.4536343812942505
1733404713165891000,7.33489111328125,-0.42879772186279297,-0.15680646896362305,-0.37412089109420776
1733404713175870200,7.3448701171875,-0.2730836868286133,0.022519826889038086,-0.27421486377716064
1733404713185880000,7.354880126953125,-0.32834529876708984,0.07468760013580322,-0.22486376762390137
1733404713195890000,7.364889892578125,-0.4908618927001953,0.017928481101989746,-0.20632731914520264
1733404713205869000,7.374869140625,-0.44733715057373047,-0.013473272323608398,-0.2503124475479126
1733404713215879000,7.38487890625,-0.229705810546875,0.01600325107574463,-0.37111997604370117
1733404713225888800,7.394888671875,0.09273815155029297,-0.10694718360900879,-0.6538679599761963
1733404713235898400,7.4048984375,0.6279153823852539,-0.2707698345184326,-0.7510143518447876
1733404713245877800,7.414877685546875,1.0915899276733398,-0.26988697052001953,-0.7149658203125
1733404713255887400,7.424887451171875,1.4199695587158203,-0.16903746128082275,-0.6065632104873657
1733404713265897200,7.434897216796875,1.4082307815551758,-0.1637359857559204,-0.27978789806365967
1733404713275876400,7.44487646484375,1.0818920135498047,-0.2808595895767212,-0.1334460973739624
1733404713285886200,7.45488623046875,0.8526830673217773,-0.528921365737915,-0.012314081192016602
1733404713295896000,7.46489599609375,0.7489213943481445,-0.5856701135635376,0.2663346529006958
1733404713305875200,7.474875244140625,0.6646823883056641,-0.7432531714439392,0.317618191242218
1733404713315885000,7.484885009765625,0.7054481506347656,-0.5845710039138794,0.3420753479003906
1733404713325895000,7.49489501953125,-0.06687736511230469,0.06661629676818848,0.6757681369781494
1733404713335874000,7.5048740234375,-0.5247831344604492,-0.16280996799468994,0.3152923583984375
1733404713345883600,7.514883544921875,-0.25931644439697266,-0.37901782989501953,0.6819864511489868
1733404713355893500,7.5248935546875,0.3123140335083008,-0.20268213748931885,1.1915886402130127
1733404713365872600,7.53487255859375,0.44733524322509766,-0.40256714820861816,1.409119725227356
1733404713375882500,7.544882568359375,0.8602428436279297,-0.9073758721351624,1.534584879875183
1733404713385892400,7.554892333984375,1.5771780014038086,-1.1078314781188965,1.5177197456359863
1733404713395871500,7.56487158203125,2.5797719955444336,-1.2125228643417358,1.5329101085662842
1733404713405881300,7.57488134765625,3.5639848709106445,-1.0492991209030151,1.0766806602478027
1733404713415891200,7.58489111328125,4.390732765197754,-1.2061331272125244,0.9686911106109619
1733404713425870300,7.594870361328125,4.621431350708008,-1.1221531629562378,0.7046608924865723
1733404713435880200,7.604880126953125,3.832076072692871,-0.8291001915931702,-0.0013199448585510254
1733404713445889800,7.614889892578125,2.141972541809082,-0.6753638982772827,-0.35229235887527466
1733404713455869000,7.624868896484375,0.2377939224243164,-0.6244713068008423,-0.6882312297821045
1733404713465878800,7.634878662109375,-1.5877437591552734,-0.477850079536438,-0.9707318544387817
1733404713475888600,7.644888671875,-2.8322081565856934,-0.6252665519714355,-0.7560310363769531
1733404713485898500,7.6548984375,-3.699662208557129,-0.6822551488876343,-0.706373929977417
1733404713495877600,7.664877685546875,-3.7041125297546387,-0.8336576223373413,-0.9644644260406494
1733404713505887500,7.674887451171875,-3.397502899169922,-0.9965040683746338,-1.3841549158096313
1733404713515897300,7.6848974609375,-2.8513131141662598,-1.2004709243774414,-1.5262424945831299
1733404713525876500,7.69487646484375,-2.1646509170532227,-1.464916706085205,-1.924355149269104
1733404713535886300,7.70488623046875,-1.3885602951049805,-1.7214802503585815,-1.9379866123199463
1733404713545896000,7.71489599609375,-0.5287466049194336,-1.952030062675476,-2.0436668395996094
1733404713555875000,7.724875,0.1968059539794922,-2.141240358352661,-2.1100194454193115
1733404713565885000,7.734885009765625,0.6869592666625977,-2.157945156097412,-2.147754192352295
1733404713575894800,7.744894775390625,0.8874597549438477,-2.273923397064209,-2.233527660369873
1733404713585874000,7.7548740234375,0.7888956069946289,-2.4203178882598877,-2.1471033096313477
1733404713595883800,7.7648837890625,0.5982236862182617,-2.495077610015869,-1.9140223264694214
1733404713605893600,7.7748935546875,0.3340444564819336,-2.474191665649414,-1.8221988677978516
1733404713615872800,7.784872802734375,0.050144195556640625,-2.494999647140503,-1.7447642087936401
1733404713625882600,7.794882568359375,0.12450885772705078,-2.4774370193481445,-1.7070282697677612
1733404713635892200,7.804892333984375,0.47780418395996094,-2.555879592895508,-1.654910683631897
1733404713645871600,7.81487158203125,0.9184961318969727,-2.5691850185394287,-1.5994946956634521
1733404713655881200,7.824881103515625,1.482553482055664,-2.5170300006866455,-1.4993940591812134
1733404713665891000,7.83489111328125,1.8921213150024414,-2.4521188735961914,-1.4496756792068481
1733404713675870200,7.8448701171875,1.9306297302246094,-2.3990437984466553,-1.3977482318878174
1733404713685880000,7.854880126953125,1.6988725662231445,-2.3298935890197754,-1.2230299711227417
1733404713695890000,7.864889892578125,1.1660442352294922,-2.349797248840332,-1.0916128158569336
1733404713705869000,7.874869140625,0.4061594009399414,-2.4296748638153076,-0.8495420217514038
1733404713715879000,7.88487890625,-0.1506204605102539,-2.4725377559661865,-0.6922377347946167
1733404713725888800,7.894888671875,-0.5649433135986328,-2.4865622520446777,-0.5153238773345947
1733404713735898400,7.9048984375,-0.8473787307739258,-2.5696797370910645,-0.3811049461364746
1733404713745877800,7.914877685546875,-0.9685201644897461,-2.550746202468872,-0.2670285701751709
1733404713755887400,7.924887451171875,-0.9619388580322266,-2.5525949001312256,-0.24720919132232666
1733404713765897200,7.934897216796875,-0.8846673965454102,-2.635735273361206,-0.24886369705200195
1733404713775876400,7.94487646484375,-0.631474494934082,-2.69840145111084,-0.2181152105331421
1733404713785886200,7.95488623046875,-0.4798431396484375,-1.9718475341796875,-0.05443406105041504
1733404713795896000,7.96489599609375,-0.15723609924316406,-1.976545810699463,-0.056473612785339355
1733404713805875200,7.974875244140625,0.27574920654296875,-1.9502968788146973,0.1085042953491211
1733404713815885000,7.984885009765625,0.7529020309448242,-1.9874271154403687,0.16495323181152344
1733404713825895000,7.99489501953125,1.2344961166381836,-1.9290075302124023,0.1706446409225464
1733404713835874000,8.0048740234375,1.6380062103271484,-1.8501564264297485,0.1335848569869995
1733404713845884000,8.0148837890625,1.8272066116333008,-1.8467283248901367,0.15614402294158936
1733404713855893500,8.0248935546875,1.7878837585449219,-1.8535616397857666,0.28311312198638916
1733404713865872600,8.03487255859375,1.6455345153808594,-1.7800259590148926,0.4595181941986084
1733404713875882500,8.044882568359375,1.4631290435791016,-1.779326319694519,0.7004725933074951
1733404713885892400,8.054892333984375,1.2144098281860352,-1.7993113994598389,0.9426918029785156
1733404713895871500,8.06487158203125,0.9465036392211914,-1.7912442684173584,1.2750756740570068
1733404713905881300,8.07488134765625,0.7788505554199219,-1.6786080598831177,1.6256211996078491
1733404713915891200,8.08489111328125,0.5676584243774414,-1.708032250404358,1.7797857522964478
1733404713925870300,8.094870361328125,0.31013011932373047,-1.6697125434875488,1.8869752883911133
1733404713935880200,8.104880126953125,0.08967781066894531,-1.6475403308868408,1.9970006942749023
1733404713945889800,8.114889892578125,-0.1272735595703125,-1.8244109153747559,2.223421096801758
1733404713955869000,8.124868896484376,-0.1588592529296875,-1.9824533462524414,2.4462411403656006
1733404713965878800,8.134878662109376,0.18689537048339844,-2.117469310760498,2.730654716491699
1733404713975888600,8.144888671875,0.6778945922851562,-2.2608165740966797,2.9150614738464355
1733404713985898500,8.1548984375,1.2476367950439453,-2.3408002853393555,3.0559258460998535
1733404713995877600,8.164877685546875,1.642782211303711,-2.3896992206573486,3.270054340362549
1733404714005887500,8.174887451171875,1.8878107070922852,-2.2920587062835693,3.436966896057129
1733404714015897300,8.1848974609375,1.9135513305664062,-2.06559419631958,3.7080349922180176
1733404714025876500,8.19487646484375,1.6313858032226562,-1.8512747287750244,3.7566375732421875
1733404714035886000,8.204885986328126,1.0699596405029297,-1.5110785961151123,3.6577327251434326
1733404714045896000,8.21489599609375,0.32796764373779297,-1.3068448305130005,3.5694241523742676
1733404714055875000,8.224875,-0.41224098205566406,-1.0848699808120728,3.408573627471924
1733404714065885000,8.234885009765625,-1.073709487915039,-0.9230409860610962,3.30564546585083
1733404714075894800,8.244894775390625,-1.814194679260254,-0.7836784720420837,3.3580617904663086
1733404714085874000,8.2548740234375,-2.3729348182678223,-0.7864949703216553,3.3970065116882324
1733404714095883800,8.2648837890625,-2.7777585983276367,-0.9298945665359497,3.4232020378112793
1733404714105893600,8.2748935546875,-2.8703503608703613,-1.0928175449371338,3.5790722370147705
1733404714115872800,8.284872802734375,-2.4940829277038574,-1.2849091291427612,3.6919994354248047
1733404714125882400,8.29488232421875,-1.7120256423950195,-1.5762035846710205,3.6924235820770264
1733404714135892200,8.304892333984375,-0.8668279647827148,-1.6535345315933228,3.460775375366211
1733404714145871600,8.31487158203125,-0.09683990478515625,-1.697655200958252,3.232550859451294
1733404714155881200,8.324881103515626,0.4965238571166992,-1.6816051006317139,2.9422757625579834
1733404714165891000,8.33489111328125,0.7857704162597656,-1.5305910110473633,2.69663405418396
1733404714175870200,8.3448701171875,0.5222663879394531,-1.5143256187438965,2.653712272644043
1733404714185880000,8.354880126953125,-0.1480388641357422,-1.5455009937286377,2.6613712310791016
1733404714195890000,8.364889892578125,-0.7297983169555664,-1.4759941101074219,2.716231346130371
1733404714205869000,8.374869140625,-1.121790885925293,-1.3874990940093994,3.078965663909912
1733404714215879000,8.38487890625,-0.9991731643676758,-1.194084644317627,3.307995319366455
1733404714225888800,8.394888671875,-0.6539955139160156,-0.9359750151634216,3.356067657470703
1733404714235898400,8.4048984375,-0.2261676788330078,-0.6868300437927246,3.1685097217559814
1733404714245877800,8.414877685546875,0.149169921875,-0.37843430042266846,2.965648651123047
1733404714255887400,8.424887451171875,0.6781654357910156,0.025223135948181152,2.72952938079834
1733404714265897200,8.434897216796875,1.0288677215576172,0.3691195249557495,2.327174425125122
1733404714275876400,8.44487646484375,1.0309228897094727,0.6879124641418457,1.843533992767334
1733404714285886200,8.45488623046875,0.9553537368774414,0.516353964805603,2.1231136322021484
1733404714295896000,8.46489599609375,0.9170360565185547,0.4617692232131958,2.288592576980591
1733404714305875200,8.474875244140625,1.030625343322754,0.34999287128448486,2.361182689666748
1733404714315885000,8.484885009765625,1.2554149627685547,0.2858145236968994,2.2719595432281494
1733404714325895000,8.49489501953125,1.5052413940429688,0.1740795373916626,2.3396096229553223
1733404714335874000,8.5048740234375,1.8080883026123047,0.1549891233444214,2.27659273147583
1733404714345883600,8.514883544921876,2.0101680755615234,0.17459511756896973,2.118252754211426
1733404714355893500,8.5248935546875,2.1858015060424805,0.2899155616760254,1.9537749290466309
1733404714365872600,8.53487255859375,2.1080446243286133,0.4355618953704834,1.5494637489318848
1733404714375882500,8.544882568359375,1.6794862747192383,0.7314549684524536,1.1491354703903198
1733404714385892400,8.554892333984375,0.9915342330932617,0.9600307941436768,1.009175419807434
1733404714395871500,8.56487158203125,0.16279125213623047,1.0836670398712158,0.9658602476119995
1733404714405881300,8.57488134765625,-0.6093206405639648,1.1889846324920654,0.7811183929443359
1733404714415891200,8.58489111328125,-1.2462701797485352,1.1629880666732788,0.6721848845481873
1733404714425870300,8.594870361328125,-1.674504280090332,1.0555508136749268,0.5067251324653625
1733404714435880200,8.604880126953125,-1.6962876319885254,0.8813834190368652,0.4487452208995819
1733404714445889800,8.614889892578125,-1.367030143737793,0.654624342918396,0.4772312045097351
1733404714455869000,8.624868896484376,-0.6565017700195312,0.4015771150588989,0.43530577421188354
1733404714465878800,8.634878662109376,0.02286052703857422,0.16158068180084229,0.5481833815574646
1733404714475888600,8.644888671875,0.8255643844604492,0.23398220539093018,0.6144030690193176
1733404714485898500,8.6548984375,1.2835769653320312,0.3592609167098999,0.49674752354621887
1733404714495877600,8.664877685546875,1.3713111877441406,0.48881590366363525,0.35543912649154663
1733404714505887500,8.674887451171875,1.147085189819336,0.614037036895752,0.356283962726593
1733404714515897300,8.6848974609375,0.5440454483032227,0.646851658821106,0.4305085241794586
1733404714525876500,8.69487646484375,-0.1339740753173828,0.6640870571136475,0.437779039144516
1733404714535886300,8.70488623046875,-0.6293201446533203,0.7876366376876831,0.3641204535961151
1733404714545896000,8.71489599609375,-0.8105392456054688,1.0525676012039185,0.10365962982177734
1733404714555875000,8.724875,-0.7467765808105469,1.3198356628417969,-0.1133418083190918
1733404714565885000,8.734885009765625,-0.6756296157836914,1.4951536655426025,-0.45345890522003174
1733404714575894800,8.744894775390625,-0.7769050598144531,1.409440040588379,-0.4302802085876465
1733404714585874000,8.7548740234375,-0.7900972366333008,0.824927568435669,-0.2415088415145874
1733404714595883800,8.7648837890625,-0.6818695068359375,0.41971826553344727,-0.08790856599807739
1733404714605893600,8.7748935546875,-0.36124324798583984,0.040791988372802734,0.10605913400650024
1733404714615872800,8.784872802734375,-0.03155231475830078,-0.31256532669067383,0.4285738170146942
1733404714625882600,8.794882568359375,0.3292551040649414,-0.5266461372375488,0.8498090505599976
1733404714635892200,8.804892333984375,0.639622688293457,-0.5132284164428711,0.9753650426864624
1733404714645871600,8.81487158203125,0.7474021911621094,-0.3798257112503052,0.7426511645317078
1733404714655881200,8.824881103515626,0.5054874420166016,-0.23807716369628906,0.6602908372879028
1733404714665891000,8.83489111328125,0.13591766357421875,-0.15258169174194336,0.7089358568191528
1733404714675870200,8.8448701171875,-0.3653545379638672,-0.0701441764831543,0.5957316160202026
1733404714685880000,8.854880126953125,-0.7680416107177734,0.0030889511108398438,0.5235537886619568
1733404714695890000,8.864889892578125,-1.1265878677368164,0.04897475242614746,0.5076454877853394
1733404714705869000,8.874869140625,-1.4321966171264648,0.0663299560546875,0.5203897953033447
1733404714715879000,8.88487890625,-1.7215766906738281,0.0539548397064209,0.5875718593597412
1733404714725888800,8.894888671875,-1.8442416191101074,0.16708803176879883,0.6316043138504028
1733404714735898400,8.9048984375,-1.9991989135742188,0.23051953315734863,0.6513807773590088
1733404714745877800,8.914877685546875,-1.9661402702331543,0.39804887771606445,0.5739074945449829
1733404714755887400,8.924887451171875,-1.735757827758789,0.5582590103149414,0.4797838032245636
1733404714765897200,8.934897216796875,-1.4674701690673828,0.5935804843902588,0.5419988632202148
1733404714775876400,8.94487646484375,-1.1053295135498047,0.5619301795959473,0.6599407196044922
1733404714785886200,8.95488623046875,-0.7118015289306641,0.5835776329040527,0.5159044861793518
1733404714795896000,8.96489599609375,-0.2843284606933594,0.6650862693786621,0.2753991484642029
1733404714805875200,8.974875244140625,-0.0018978118896484375,0.7434475421905518,0.12252414226531982
1733404714815885000,8.984885009765625,0.2632741928100586,0.8351953029632568,0.027626872062683105
1733404714825895000,8.99489501953125,0.5166940689086914,0.9538958072662354,-0.09881675243377686
1733404714835874000,9.0048740234375,0.8210268020629883,1.0847327709197998,-0.23657602071762085
1733404714845884000,9.0148837890625,1.1401500701904297,1.1903841495513916,-0.3472275137901306
1733404714855893500,9.0248935546875,1.3735017776489258,1.2547047138214111,-0.5389197468757629
1733404714865872600,9.03487255859375,1.5354185104370117,1.2415735721588135,-0.7094907164573669
1733404714875882500,9.044882568359375,1.705179214477539,1.264775276184082,-0.8539319634437561
1733404714885892400,9.054892333984375,1.7394752502441406,1.2223985195159912,-0.9453366994857788
1733404714895871500,9.06487158203125,1.7536725997924805,1.1366207599639893,-1.0141632556915283
1733404714905881300,9.07488134765625,1.784358024597168,1.0287885665893555,-1.0402755737304688
1733404714915891200,9.08489111328125,1.9262619018554688,1.024298906326294,-1.1138255596160889
1733404714925870300,9.094870361328125,2.047366142272949,1.0614922046661377,-0.9434722065925598
1733404714935880200,9.104880126953125,2.12839412689209,1.128650188446045,-0.8417904376983643
1733404714945889800,9.114889892578125,2.0906848907470703,1.0286388397216797,-0.7736037373542786
1733404714955869000,9.124868896484376,2.0061416625976562,0.8215725421905518,-0.639236330986023
1733404714965878800,9.134878662109376,1.953399658203125,0.6693973541259766,-0.5158563256263733
1733404714975888600,9.144888671875,2.041937828063965,0.6440913677215576,-0.6578880548477173
1733404714985898500,9.1548984375,2.0744028091430664,0.5388028621673584,-0.910537838935852
1733404714995877600,9.164877685546875,2.0342788696289062,0.3912959098815918,-1.104095458984375
1733404715005887500,9.174887451171875,1.9337291717529297,0.09814834594726562,-1.0501484870910645
1733404715015897300,9.1848974609375,1.8136310577392578,-0.21899199485778809,-0.9506962299346924
1733404715025876500,9.19487646484375,1.8843708038330078,-0.5711448192596436,-0.8371824622154236
1733404715035886000,9.204885986328126,1.9870920181274414,-1.005735993385315,-0.8350350856781006
1733404715045896000,9.21489599609375,2.274662971496582,-1.6651870012283325,-0.6306025385856628
1733404715055875000,9.224875,2.6431427001953125,-2.1142659187316895,-0.5913993120193481
1733404715065885000,9.234885009765625,3.1444616317749023,-2.395026206970215,-0.5379042625427246
1733404715075894800,9.244894775390625,3.5257253646850586,-2.5538017749786377,-0.34768903255462646
1733404715085874000,9.2548740234375,3.6518239974975586,-2.624321937561035,-0.23083603382110596
1733404715095883800,9.2648837890625,3.282332420349121,-2.6216814517974854,-0.025702685117721558
1733404715105893600,9.2748935546875,2.574183464050293,-2.5725550651550293,0.3386353850364685
1733404715115872800,9.284872802734375,1.645491600036621,-2.3819220066070557,0.8388895988464355
1733404715125882400,9.29488232421875,0.8695802688598633,-2.253922700881958,1.1699459552764893
1733404715135892200,9.304892333984375,-0.016759872436523438,-2.0855133533477783,1.6177091598510742
1733404715145871600,9.31487158203125,-0.9275226593017578,-1.9685065746307373,1.9343366622924805
1733404715155881200,9.324881103515626,-2.079044818878174,-1.9923744201660156,2.28419828414917
1733404715165891000,9.33489111328125,-2.9545645713806152,-2.0495471954345703,2.564668655395508
1733404715175870200,9.3448701171875,-3.675959587097168,-2.080308198928833,2.8142080307006836
1733404715185880000,9.354880126953125,-4.055752754211426,-2.0557708740234375,2.886439800262451
1733404715195890000,9.364889892578125,-4.373386859893799,-1.9830799102783203,2.816197633743286
1733404715205869000,9.374869140625,-4.646726131439209,-2.034465789794922,2.5315775871276855
1733404715215879000,9.38487890625,-4.609582901000977,-2.0590245723724365,2.2076404094696045
1733404715225888800,9.394888671875,-4.073660373687744,-2.0071394443511963,1.983566403388977
1733404715235898400,9.4048984375,-3.3201212882995605,-1.9822038412094116,1.6580102443695068
1733404715245877800,9.414877685546875,-2.3562402725219727,-1.9967646598815918,1.4261164665222168
1733404715255887400,9.424887451171875,-1.5236878395080566,-2.060483932495117,1.2578928470611572
1733404715265897200,9.434897216796875,-0.6564359664916992,-2.067638874053955,1.0491981506347656
1733404715275876400,9.44487646484375,0.10949230194091797,-1.8824107646942139,0.7963871955871582
1733404715285886200,9.45488623046875,0.7014198303222656,-1.7637755870819092,0.46965789794921875
1733404715295896000,9.46489599609375,1.1232185363769531,-1.6463285684585571,0.4020611047744751
1733404715305875200,9.474875244140625,1.4909934997558594,-1.4678945541381836,0.37606722116470337
1733404715315885000,9.484885009765625,1.5724210739135742,-1.2736122608184814,0.35640478134155273
1733404715325895000,9.49489501953125,1.3493099212646484,-1.162253499031067,0.3497069478034973
1733404715335874000,9.5048740234375,0.9955625534057617,-0.8880609273910522,0.3899838924407959
1733404715345883600,9.514883544921876,0.5899677276611328,-0.5838124752044678,0.3925207853317261
1733404715355893500,9.5248935546875,0.07059764862060547,-0.39940333366394043,0.4392688572406769
1733404715365872600,9.53487255859375,-0.42404747009277344,-0.3580939769744873,0.6006512641906738
1733404715375882500,9.544882568359375,-0.7605800628662109,-0.3281869888305664,0.711824893951416
1733404715385892400,9.554892333984375,-0.949493408203125,-0.2727065086364746,0.7615841627120972
1733404715395871500,9.56487158203125,-1.0848960876464844,-0.28678202629089355,0.7378766536712646
1733404715405881300,9.57488134765625,-1.157668113708496,-0.272777795791626,0.7312548160552979
1733404715415891200,9.58489111328125,-1.2110958099365234,-0.11250853538513184,0.5812589526176453
1733404715425870300,9.594870361328125,-1.3263578414916992,-0.026633739471435547,0.36066821217536926
1733404715435880200,9.604880126953125,-1.5200209617614746,-0.009277582168579102,0.1994098722934723
1733404715445889800,9.614889892578125,-1.7898693084716797,-0.0002231597900390625,0.1358269453048706
1733404715455869000,9.624868896484376,-1.9352664947509766,-0.062496185302734375,0.16650119423866272
1733404715465878800,9.634878662109376,-1.8372039794921875,-0.17439699172973633,0.2146257609128952
1733404715475888600,9.644888671875,-1.5635638236999512,-0.2635507583618164,0.13025112450122833
1733404715485898500,9.6548984375,-1.1482172012329102,-0.34062838554382324,0.027675211429595947
1733404715495877600,9.664877685546875,-0.7140827178955078,-0.3522188663482666,-0.10531052947044373
1733404715505887500,9.674887451171875,-0.06817150115966797,-0.26992177963256836,-0.1702316403388977
1733404715515897300,9.6848974609375,0.5292911529541016,-0.17978620529174805,-0.2595978081226349
1733404715525876500,9.69487646484375,1.3041820526123047,-0.03186345100402832,-0.41196638345718384
1733404715535886300,9.70488623046875,2.073577880859375,0.09932780265808105,-0.5550298094749451
1733404715545896000,9.71489599609375,2.5705041885375977,0.14472341537475586,-0.6091528534889221
1733404715555875000,9.724875,2.880035400390625,0.3121471405029297,-0.43065887689590454
1733404715565885000,9.734885009765625,2.620332717895508,0.3969719409942627,-0.048738330602645874
1733404715575894800,9.744894775390625,1.8438854217529297,0.26462316513061523,0.3264303207397461
1733404715585874000,9.7548740234375,1.155196189880371,0.12824726104736328,0.6052238941192627
1733404715595883800,9.7648837890625,0.47049713134765625,0.14751672744750977,1.2042591571807861
1733404715605893600,9.7748935546875,0.06020164489746094,0.17320609092712402,1.4974690675735474
1733404715615872800,9.784872802734375,0.08853721618652344,0.22729778289794922,1.4657596349716187
1733404715625882600,9.794882568359375,0.6202583312988281,0.5262589454650879,1.011746883392334
1733404715635892200,9.804892333984375,1.2053279876708984,0.7178969383239746,0.7345829010009766
1733404715645871600,9.81487158203125,1.4965362548828125,0.7704074382781982,0.3752429783344269
1733404715655881200,9.824881103515626,1.6687040328979492,0.8491230010986328,0.11506062746047974
1733404715665891000,9.83489111328125,1.7348918914794922,0.8698205947875977,-0.1193399429321289
1733404715675870200,9.8448701171875,1.7415685653686523,0.8568634986877441,-0.3413599133491516
1733404715685880000,9.854880126953125,1.6866588592529297,0.8673956394195557,-0.5113541483879089
1733404715695890000,9.864889892578125,1.6174116134643555,0.7380349636077881,-0.47538280487060547
1733404715705869000,9.874869140625,1.4849796295166016,0.39256834983825684,-0.28687822818756104
1733404715715879000,9.88487890625,1.6819982528686523,-0.3165149688720703,-0.11322808265686035
1733404715725888800,9.894888671875,2.395125389099121,-1.1658744812011719,0.09204548597335815
1733404715735898400,9.9048984375,3.272475242614746,-2.0593271255493164,0.23421812057495117
1733404715745877800,9.914877685546875,4.760417938232422,-3.0786919593811035,0.3545854985713959
1733404715755887400,9.924887451171875,6.630925178527832,-3.7297589778900146,0.22702109813690186
1733404715765897200,9.934897216796875,7.710792541503906,-3.827798843383789,-0.1027747392654419
1733404715775876400,9.94487646484375,7.651595115661621,-3.4722204208374023,-0.4861065149307251
1733404715785886200,9.95488623046875,6.104927062988281,-3.119349479675293,-0.6181943416595459
1733404715795896000,9.96489599609375,3.210172653198242,-2.589556932449341,-1.0292448997497559
1733404715805875200,9.974875244140625,0.1456451416015625,-2.1658108234405518,-1.3012791872024536
1733404715815885000,9.984885009765625,-3.037364959716797,-1.6581103801727295,-1.5606170892715454
1733404715825895000,9.99489501953125,-5.374339580535889,-1.3562567234039307,-1.6491210460662842
1733404715835874000,10.0048740234375,-7.329906940460205,-1.2869036197662354,-1.4982129335403442
1733404715845884000,10.0148837890625,-8.248048782348633,-1.3596982955932617,-1.389967679977417
1733404715856013600,10.025013671875,-7.928356170654297,-1.4737087488174438,-1.1095471382141113
1733404715865872600,10.03487255859375,-6.722315788269043,-1.722718358039856,-0.5485901832580566
1733404715875882500,10.044882568359375,-4.809337139129639,-2.0799100399017334,-0.22007308900356293
1733404715885892400,10.054892333984375,-2.560352325439453,-2.3861498832702637,0.07884207367897034
1733404715895871500,10.06487158203125,-0.971827507019043,-2.584566354751587,0.20443734526634216
1733404715905881300,10.07488134765625,0.41552734375,-2.606600761413574,0.2786872386932373
1733404715915891200,10.08489111328125,1.0330572128295898,-2.5565648078918457,0.193323016166687
1733404715925870300,10.094870361328125,1.2610368728637695,-2.460435628890991,0.08154095709323883
1733404715935880200,10.104880126953125,1.1831684112548828,-2.3093886375427246,0.05277779698371887
1733404715945889800,10.114889892578125,1.041107177734375,-2.105195999145508,0.12096607685089111
1733404715955869000,10.124868896484376,0.7873077392578125,-1.8004881143569946,0.11022759974002838
1733404715965878800,10.134878662109376,0.4814023971557617,-1.3825597763061523,0.006887279450893402
1733404715975888600,10.144888671875,-0.0867929458618164,-1.0901587009429932,-0.08013525605201721
1733404715985898500,10.1548984375,-0.6106414794921875,-0.8354663848876953,-0.008522838354110718
1733404715995877600,10.164877685546875,-1.2352209091186523,-0.6576845645904541,0.0895373597741127
1733404716005887500,10.174887451171875,-1.7470531463623047,-0.5430586338043213,0.06995952129364014
1733404716015897300,10.1848974609375,-2.278897762298584,-0.42810964584350586,0.08293138444423676
1733404716025876500,10.19487646484375,-2.340841770172119,-0.48708415031433105,0.10642462968826294
1733404716035886000,10.204885986328126,-2.182568073272705,-0.4518105983734131,0.05691884458065033
1733404716045896000,10.21489599609375,-1.79951810836792,-0.43880701065063477,0.03727671504020691
1733404716055875000,10.224875,-1.2367630004882812,-0.461223840713501,0.021916650235652924
1733404716065885000,10.234885009765625,-0.7783193588256836,-0.4572410583496094,0.053573623299598694
1733404716075894800,10.244894775390625,-0.3751811981201172,-0.3850522041320801,0.032753683626651764
1733404716085874000,10.2548740234375,-0.21472740173339844,-0.26981353759765625,-0.01231558620929718
1733404716095883800,10.2648837890625,-0.20092487335205078,-0.10542774200439453,-0.14607442915439606
1733404716105893600,10.2748935546875,-0.30529212951660156,0.005849599838256836,-0.31693127751350403
1733404716115872800,10.284872802734375,-0.3248720169067383,0.08740472793579102,-0.3618667721748352
1733404716125882400,10.29488232421875,-0.19658946990966797,0.1665489673614502,-0.31996840238571167
1733404716135892200,10.304892333984375,0.03547096252441406,0.11859917640686035,-0.20987290143966675
1733404716145871600,10.31487158203125,0.4018220901489258,0.13708710670471191,-0.08345993608236313
1733404716155881200,10.324881103515626,0.7008504867553711,0.09183645248413086,-0.006112344563007355
1733404716165891000,10.33489111328125,0.922947883605957,-0.00042057037353515625,0.07135646045207977
1733404716175870200,10.3448701171875,0.9847936630249023,-0.03130626678466797,0.1645827293395996
1733404716185880000,10.354880126953125,1.025862693786621,0.05936861038208008,0.0922030657529831
1733404716195890000,10.364889892578125,1.0995922088623047,0.17803668975830078,-0.037378862500190735
1733404716205869000,10.374869140625,1.136453628540039,0.2365121841430664,0.004423148930072784
1733404716215879000,10.38487890625,1.26763916015625,0.24379777908325195,0.013402059674263
1733404716225888800,10.394888671875,1.4652824401855469,0.14184856414794922,-0.05621097981929779
1733404716235898400,10.4048984375,1.8091983795166016,0.06324005126953125,-0.11938779056072235
1733404716245877800,10.414877685546875,2.016916275024414,0.08915185928344727,-0.14273476600646973
1733404716255887400,10.424887451171875,2.1051340103149414,0.06654214859008789,0.11667612195014954
1733404716265897200,10.434897216796875,2.1982412338256836,0.02450275421142578,0.46591830253601074
1733404716275876400,10.44487646484375,2.4751758575439453,-0.20002055168151855,1.0246014595031738
1733404716285886200,10.45488623046875,2.971151351928711,-0.2503514289855957,1.2565226554870605
1733404716295896000,10.46489599609375,3.5112524032592773,-0.15239882469177246,1.249547004699707
1733404716305875200,10.474875244140625,4.052618026733398,0.12418842315673828,1.2110000848770142
1733404716315885000,10.484885009765625,4.036794662475586,0.2837097644805908,1.035993218421936
1733404716325895000,10.49489501953125,3.4722909927368164,0.07990479469299316,0.7826831340789795
1733404716335874000,10.5048740234375,2.7615623474121094,-0.5118730068206787,0.5061379671096802
1733404716345883600,10.514883544921876,2.265070915222168,-1.6052963733673096,0.42194926738739014
1733404716355893500,10.5248935546875,2.43099308013916,-2.559563159942627,0.004974134266376495
1733404716365872600,10.53487255859375,3.4037933349609375,-3.2308337688446045,-0.2779049575328827
1733404716375882500,10.544882568359375,4.0074615478515625,-3.586682081222534,-0.4818272292613983
1733404716385892400,10.554892333984375,3.9692277908325195,-3.7195825576782227,-0.36703401803970337
1733404716395871500,10.56487158203125,3.0462474822998047,-3.763462543487549,-0.1448192447423935
1733404716405881300,10.57488134765625,1.2623186111450195,-3.689023971557617,0.6726723313331604
1733404716415891200,10.58489111328125,-0.9464445114135742,-3.6399617195129395,1.1743981838226318
1733404716425870300,10.594870361328125,-2.691065788269043,-3.3366637229919434,1.28700590133667
1733404716435880200,10.604880126953125,-4.210140228271484,-2.948051691055298,1.2386471033096313
1733404716445889800,10.614889892578125,-5.0089874267578125,-2.5989432334899902,1.1871469020843506
1733404716455869000,10.624868896484376,-5.461912155151367,-2.233147144317627,1.0527716875076294
1733404716465878800,10.634878662109376,-5.532567977905273,-1.9877362251281738,0.8499417901039124
1733404716475888600,10.644888671875,-5.246323585510254,-1.8192514181137085,0.6115690469741821
1733404716485898500,10.6548984375,-4.390965461730957,-1.8600550889968872,0.47555461525917053
1733404716495877600,10.664877685546875,-3.184408664703369,-2.0930495262145996,0.36198142170906067
1733404716505887500,10.674887451171875,-1.7523245811462402,-2.21395206451416,0.19413170218467712
1733404716515897300,10.6848974609375,-0.042206764221191406,-2.2416255474090576,0.20026084780693054
1733404716525876500,10.69487646484375,1.225118637084961,-2.216479778289795,0.06746521592140198
1733404716535886300,10.70488623046875,1.8647193908691406,-2.1188857555389404,-0.15323080122470856
1733404716545896000,10.71489599609375,2.192204475402832,-1.929139256477356,-0.32209670543670654
1733404716555875000,10.724875,2.254352569580078,-1.7389090061187744,-0.3772907853126526
1733404716565885000,10.734885009765625,2.0064620971679688,-1.4531875848770142,-0.389755517244339
1733404716575894800,10.744894775390625,1.3273773193359375,-1.191480040550232,-0.4092320501804352
1733404716585874000,10.7548740234375,0.3780698776245117,-0.894689679145813,-0.17273366451263428
1733404716595883800,10.7648837890625,-0.3343820571899414,-0.6291751861572266,0.03207820653915405
1733404716605893600,10.7748935546875,-0.925837516784668,-0.5317742824554443,0.11090785264968872
1733404716615872800,10.784872802734375,-1.2251710891723633,-0.5353877544403076,0.2061450332403183
1733404716625882600,10.794882568359375,-1.306208610534668,-0.5298848152160645,0.3799102306365967
1733404716635892200,10.804892333984375,-1.1989164352416992,-0.5979764461517334,0.49512869119644165
1733404716645871600,10.81487158203125,-1.0348567962646484,-0.66326904296875,0.5602455735206604
1733404716655881200,10.824881103515626,-1.0166683197021484,-0.7311053276062012,0.6930931210517883
1733404716665891000,10.83489111328125,-1.2265644073486328,-0.769960880279541,0.7788163423538208
1733404716675870200,10.8448701171875,-1.4949121475219727,-0.7454080581665039,0.9385865926742554
1733404716685880000,10.854880126953125,-1.6976895332336426,-0.6739249229431152,1.0951483249664307
1733404716695890000,10.864889892578125,-1.9529080390930176,-0.5699458122253418,1.2116875648498535
1733404716705869000,10.874869140625,-2.0339016914367676,-0.5576376914978027,1.3598257303237915
1733404716715879000,10.88487890625,-1.860015869140625,-0.418809175491333,1.3799619674682617
1733404716725888800,10.894888671875,-1.5467610359191895,-0.2566037178039551,1.227555513381958
1733404716735898600,10.904898681640624,-1.1132421493530273,-0.17152619361877441,1.093044400215149
1733404716745877800,10.914877685546875,-0.784489631652832,-0.1581861972808838,0.8591494560241699
1733404716755887400,10.924887451171875,-0.07539844512939453,-0.08046650886535645,0.6956656575202942
1733404716765897200,10.934897216796875,0.4160013198852539,-0.1844468116760254,0.5252442955970764
1733404716775876400,10.94487646484375,0.8224258422851562,-0.1030571460723877,0.46305570006370544
1733404716785886200,10.95488623046875,1.0006599426269531,0.015510082244873047,0.3140873908996582
1733404716795896000,10.96489599609375,1.0327119827270508,0.0783243179321289,0.24163411557674408
1733404716805875200,10.974875244140625,1.0621442794799805,0.07828545570373535,0.37594854831695557
1733404716815463700,10.984463623046874,1.103689193725586,0.0660390853881836,0.5978375673294067
1733404716825473300,10.994473388671874,1.102604866027832,0.04664325714111328,0.719253659248352
1733404716835452400,11.004452392578125,1.158787727355957,-0.08506059646606445,0.987939178943634
1733404716845462300,11.014462158203125,1.5511798858642578,-0.23824262619018555,1.2026634216308594
1733404716855472000,11.02447216796875,2.23093318939209,-0.3374342918395996,1.228073239326477
1733404716865451300,11.034451171875,2.8698062896728516,-0.09955835342407227,1.1221296787261963
1733404716875461000,11.044461181640624,3.418333053588867,0.2521355152130127,0.8818503618240356
1733404716885471000,11.054470947265624,3.382892608642578,0.5550355911254883,0.3194652795791626
1733404716895450000,11.0644501953125,2.987741470336914,0.8777000904083252,-0.07243546843528748
1733404716905460000,11.0744599609375,2.658968925476074,1.1367051601409912,-0.16358467936515808
1733404716915469600,11.084469482421875,2.5443859100341797,1.4474105834960938,-0.1832568347454071
1733404716925448700,11.09444873046875,2.4160261154174805,1.4864788055419922,-0.301925927400589
1733404716935458600,11.10445849609375,2.4171142578125,1.307831048965454,-0.2513832449913025
1733404716945468400,11.114468505859374,2.4947118759155273,0.9265782833099365,-0.5002079010009766
1733404716955447600,11.124447509765625,2.5478248596191406,-0.06317925453186035,-0.5653114914894104
1733404716965457400,11.13445751953125,2.7262353897094727,-1.321134090423584,-0.3520958423614502
1733404716975467300,11.14446728515625,3.374619483947754,-2.884701728820801,-0.07312071323394775
1733404716985477000,11.15447705078125,4.578770637512207,-3.9617719650268555,0.2667391896247864
1733404716995456300,11.164456298828124,5.798463821411133,-4.262527942657471,0.08020442724227905
1733404717005465900,11.1744658203125,6.233999252319336,-4.185610771179199,-0.30944526195526123
1733404717015475700,11.184475830078124,5.039875030517578,-3.9013774394989014,-0.4972382187843323
1733404717025454800,11.194454833984375,2.776177406311035,-3.401676893234253,-0.876026451587677
1733404717035464700,11.204464599609375,0.23836040496826172,-2.9690632820129395,-1.1155729293823242
1733404717045474600,11.214474609375,-2.9650020599365234,-2.489309787750244,-1.341949224472046
1733404717055453700,11.22445361328125,-5.60198974609375,-2.173271894454956,-1.3365085124969482
1733404717065463600,11.234463623046874,-7.900116920471191,-1.8391375541687012,-1.164839267730713
1733404717075473400,11.244473388671874,-9.246360778808594,-1.6643215417861938,-0.9814379215240479
1733404717085452500,11.25445263671875,-9.671426773071289,-1.7251304388046265,-0.7929947376251221
1733404717095615000,11.264614990234374,-8.911171913146973,-2.024333953857422,-0.46858635544776917
1733404717105472000,11.274471923828125,-6.948361396789551,-2.2325453758239746,-0.21870121359825134
1733404717115451100,11.284451171875,-4.275984764099121,-2.427274227142334,-0.052862703800201416
1733404717125461000,11.2944609375,-1.6513323783874512,-2.57879638671875,-0.16122469305992126
1733404717135470800,11.304470947265624,0.9259557723999023,-2.5585389137268066,-0.25472456216812134
1733404717145450000,11.314449951171875,2.4718713760375977,-2.462320327758789,-0.3098905682563782
1733404717155459800,11.3244599609375,3.4683046340942383,-2.2529680728912354,-0.4069330096244812
1733404717165469700,11.3344697265625,3.668145179748535,-1.9947547912597656,-0.3749673664569855
1733404717175448800,11.34444873046875,3.2235193252563477,-1.6692237854003906,-0.15313762426376343
1733404717185458700,11.354458740234374,2.336153984069824,-1.3472256660461426,-0.02021738886833191
1733404717195468300,11.36446826171875,1.2724132537841797,-0.9544292688369751,0.017571240663528442
1733404717205447700,11.37444775390625,0.4231710433959961,-0.5981833934783936,0.15337899327278137
1733404717215457300,11.384457275390625,-0.06950569152832031,-0.27689313888549805,0.17699718475341797
1733404717225467100,11.394467041015625,-0.42482948303222656,-0.07138180732727051,-0.07017019391059875
1733404717235477000,11.40447705078125,-0.7173528671264648,0.06736922264099121,-0.27582305669784546
1733404717245456100,11.4144560546875,-0.9638671875,0.09910225868225098,-0.38419148325920105
1733404717255466000,11.424466064453124,-1.0861263275146484,0.04096031188964844,-0.36213356256484985
1733404717265475800,11.434475830078124,-1.0864896774291992,-0.06416988372802734,-0.27484437823295593
1733404717275455000,11.444455078125,-0.9794178009033203,-0.20872068405151367,-0.2680616080760956
1733404717285464800,11.45446484375,-0.8659763336181641,-0.232224702835083,-0.11164990067481995
1733404717295474700,11.464474609375,-0.752314567565918,-0.22819733619689941,-0.05257532000541687
1733404717305453800,11.474453857421874,-0.6349506378173828,-0.2263643741607666,0.02131226658821106
1733404717315463400,11.48446337890625,-0.5564785003662109,-0.21103763580322266,0.02659296989440918
1733404717325473300,11.494473388671874,-0.5811214447021484,-0.08719539642333984,-0.12157103419303894
1733404717335452400,11.504452392578125,-0.5821304321289062,0.06686568260192871,-0.130010724067688
1733404717345462300,11.514462158203125,-0.6026458740234375,0.2183213233947754,-0.15915289521217346
1733404717355472100,11.52447216796875,-0.6931095123291016,0.26943063735961914,-0.11746752262115479
1733404717365451300,11.534451171875,-0.7792549133300781,0.3013899326324463,-0.06357574462890625
1733404717375461000,11.544461181640624,-0.7635040283203125,0.3064756393432617,0.04972505569458008
1733404717385471000,11.554470947265624,-0.5584573745727539,0.3828244209289551,0.010608851909637451
1733404717395450000,11.5644501953125,-0.27492713928222656,0.3938748836517334,-0.013415426015853882
1733404717405460000,11.5744599609375,0.11016082763671875,0.36370086669921875,-0.049856722354888916
1733404717415469600,11.584469482421875,0.6333379745483398,0.27869153022766113,-0.018524080514907837
1733404717425448700,11.59444873046875,1.0045394897460938,0.12348508834838867,0.10711801052093506
1733404717435458600,11.60445849609375,1.350555419921875,-0.0775907039642334,0.16183096170425415
1733404717445468400,11.614468505859374,1.8395462036132812,-0.18289852142333984,0.2346642017364502
1733404717455447600,11.624447509765625,2.2847795486450195,-0.13717341423034668,0.358020156621933
1733404717465457400,11.63445751953125,2.6798171997070312,-0.263657808303833,0.6130365133285522
1733404717475467300,11.64446728515625,2.9356794357299805,-0.4872756004333496,1.1278437376022339
1733404717485477000,11.65447705078125,3.2702808380126953,-0.6505616903305054,1.4018921852111816
1733404717495456300,11.664456298828124,3.7888412475585938,-0.3221428394317627,1.6068018674850464
1733404717505465900,11.6744658203125,4.113150596618652,0.03788614273071289,1.7075098752975464
1733404717515475700,11.684475830078124,4.165055274963379,0.263765811920166,1.5255510807037354
1733404717525454800,11.694454833984375,3.7466182708740234,0.30490589141845703,1.3592138290405273
1733404717535464700,11.704464599609375,3.0089988708496094,-0.10323667526245117,1.059544563293457
1733404717545474600,11.714474609375,2.530841827392578,-0.9815256595611572,0.6695175170898438
1733404717555453700,11.72445361328125,2.745732307434082,-2.186788320541382,0.36905837059020996
1733404717565463600,11.734463623046874,3.79616641998291,-3.0772318840026855,0.21043255925178528
1733404717575473400,11.744473388671874,5.275637626647949,-3.5899925231933594,0.01600077748298645
1733404717585452500,11.75445263671875,5.937136650085449,-3.6612699031829834,-0.03255493938922882
1733404717595462400,11.76446240234375,5.320474624633789,-3.6190571784973145,0.18260492384433746
1733404717605472000,11.774471923828125,3.7432165145874023,-3.524357795715332,0.6886149644851685
1733404717615451100,11.784451171875,1.1501340866088867,-3.346449136734009,1.1577608585357666
1733404717625461000,11.7944609375,-1.578512191772461,-3.122056245803833,1.3155391216278076
1733404717635470800,11.804470947265624,-4.446035385131836,-2.758781909942627,1.1762253046035767
1733404717645450000,11.814449951171875,-6.442065715789795,-2.204773426055908,1.0489580631256104
1733404717655459800,11.8244599609375,-7.429646015167236,-1.9158570766448975,0.8698599338531494
1733404717665469700,11.8344697265625,-7.660374641418457,-1.7622647285461426,0.6580356359481812
1733404717675448800,11.84444873046875,-6.884921073913574,-1.784041166305542,0.5716345310211182
1733404717685458700,11.854458740234374,-4.975977897644043,-2.010732650756836,0.36742109060287476
1733404717695468300,11.86446826171875,-3.1744723320007324,-2.3676819801330566,0.3244277834892273
1733404717705447700,11.87444775390625,-1.0684623718261719,-2.5198440551757812,0.18656228482723236
1733404717715457500,11.88445751953125,0.5810794830322266,-2.5266010761260986,0.1468895971775055
1733404717725467100,11.894467041015625,1.7853622436523438,-2.380563735961914,0.12142631411552429
1733404717735477000,11.90447705078125,2.2391462326049805,-2.1349291801452637,-0.014303863048553467
1733404717745456000,11.9144560546875,2.221405029296875,-1.9032599925994873,-0.12776637077331543
1733404717755466000,11.924466064453124,1.8138847351074219,-1.6303973197937012,-0.22213107347488403
1733404717765475800,11.934475830078124,1.3656883239746094,-1.3180944919586182,-0.3340679407119751
1733404717775455000,11.944455078125,0.7502412796020508,-0.997249960899353,-0.33402127027511597
1733404717785464800,11.95446484375,0.1211862564086914,-0.837252140045166,-0.2156195044517517
1733404717795474700,11.964474609375,-0.36505794525146484,-0.5665984153747559,-0.22614681720733643
1733404717805453800,11.974453857421874,-0.6828699111938477,-0.474031925201416,-0.1612638235092163
1733404717815463700,11.984463623046874,-1.0423555374145508,-0.45693373680114746,0.1034936010837555
1733404717825473300,11.994473388671874,-1.1593303680419922,-0.4328193664550781,0.1788625717163086
1733404717835452400,12.004452392578125,-1.2805900573730469,-0.5250492095947266,0.2870692312717438
1733404717845462300,12.014462158203125,-1.384169578552246,-0.7039384841918945,0.6732660531997681
1733404717855472000,12.02447216796875,-1.5442571640014648,-0.768282413482666,0.8742469549179077
1733404717865451300,12.034451171875,-1.5124626159667969,-0.74930739402771,0.980869472026825
1733404717875461000,12.044461181640624,-1.3775053024291992,-0.7326033115386963,1.1777721643447876
1733404717885471000,12.054470947265624,-1.2568368911743164,-0.6366854906082153,1.1852232217788696
1733404717895450000,12.0644501953125,-1.2124652862548828,-0.5777837038040161,1.1667348146438599
1733404717905460000,12.0744599609375,-1.229879379272461,-0.49442338943481445,1.157468318939209
1733404717915469600,12.084469482421875,-1.2490501403808594,-0.4614102840423584,1.184214472770691
1733404717925448700,12.09444873046875,-1.0410041809082031,-0.37236499786376953,1.1415975093841553
1733404717935458600,12.10445849609375,-0.7234821319580078,-0.3236689567565918,1.1162021160125732
1733404717945468400,12.114468505859374,-0.3996591567993164,-0.25238466262817383,1.1741870641708374
1733404717955447600,12.124447509765625,-0.07699775695800781,-0.15639591217041016,1.1566753387451172
1733404717965457400,12.13445751953125,0.20618057250976562,-0.03433823585510254,1.0856149196624756
1733404717975467300,12.14446728515625,0.4096031188964844,0.07605862617492676,1.1754809617996216
1733404717985477000,12.15447705078125,0.7091341018676758,0.3096177577972412,0.9909001588821411
1733404717995456300,12.164456298828124,0.7682428359985352,0.5365231037139893,0.9170513153076172
1733404718005465900,12.1744658203125,0.6070032119750977,0.571568489074707,0.988606333732605
1733404718015475700,12.184475830078124,0.2741107940673828,0.6558513641357422,0.9712573289871216
1733404718025454800,12.194454833984375,-0.03738689422607422,0.5971713066101074,1.0351297855377197
1733404718035464700,12.204464599609375,-0.020153045654296875,0.4327826499938965,1.154013991355896
1733404718045474600,12.214474609375,0.30786991119384766,0.15985989570617676,1.2563269138336182
1733404718055453700,12.22445361328125,1.0053110122680664,-0.10212159156799316,1.33133864402771
1733404718065463600,12.234463623046874,1.781001091003418,-0.3379995822906494,1.2420742511749268
1733404718075473400,12.244473388671874,2.5075111389160156,-0.3314387798309326,1.0540807247161865
1733404718085452500,12.25445263671875,2.8290205001831055,-0.09596991539001465,0.628664493560791
1733404718095462100,12.264462158203125,2.626922607421875,0.21099281311035156,0.2708730101585388
1733404718105472000,12.274471923828125,2.129448890686035,0.7063686847686768,-0.21382367610931396
1733404718115451100,12.284451171875,1.7533235549926758,1.102799892425537,-0.5136991739273071
1733404718125461000,12.2944609375,1.5672636032104492,1.1974310874938965,-0.7977197170257568
1733404718135470800,12.304470947265624,1.6250553131103516,0.8881545066833496,-0.9021661281585693
1733404718145450000,12.314449951171875,2.3425779342651367,0.7203962802886963,-0.7583132982254028
1733404718155459800,12.3244599609375,2.874601364135742,0.47832155227661133,-0.47532880306243896
1733404718165469700,12.3344697265625,3.380216598510742,0.05542111396789551,-0.40937715768814087
1733404718175448800,12.34444873046875,3.852789878845215,-0.37309861183166504,-0.16991764307022095
1733404718185458700,12.354458740234374,4.223105430603027,-1.161210060119629,0.07217073440551758
1733404718195468300,12.36446826171875,4.48162841796875,-2.1165647506713867,0.12430310249328613
1733404718205447700,12.37444775390625,4.727102279663086,-3.0088419914245605,0.3398529291152954
1733404718215457500,12.38445751953125,4.909320831298828,-3.587550640106201,0.6088858246803284
1733404718225467100,12.394467041015625,4.572297096252441,-3.650359630584717,0.4097141623497009
1733404718235477000,12.40447705078125,3.46152400970459,-3.621016502380371,0.19940951466560364
1733404718245456100,12.4144560546875,2.0050840377807617,-3.3593485355377197,-0.08849263191223145
1733404718255466000,12.424466064453124,-0.35335445404052734,-2.9494636058807373,-0.5551668405532837
1733404718265475800,12.434475830078124,-2.488001823425293,-2.687788724899292,-0.8293549418449402
1733404718275455000,12.444455078125,-4.721801280975342,-2.4259302616119385,-0.9075270295143127
1733404718285464800,12.45446484375,-6.330992698669434,-2.353900909423828,-0.9832080602645874
1733404718295474700,12.464474609375,-7.505785942077637,-2.277765989303589,-0.7537521719932556
1733404718305453800,12.474453857421874,-7.90390157699585,-2.4375734329223633,-0.2795554995536804
1733404718315463400,12.48446337890625,-7.3217973709106445,-2.5977840423583984,0.272739052772522
1733404718325473300,12.494473388671874,-5.4919586181640625,-2.7084248065948486,0.5367851853370667
1733404718335452400,12.504452392578125,-3.3965797424316406,-2.894103527069092,0.6140903830528259
1733404718345462300,12.514462158203125,-0.5997419357299805,-2.9559152126312256,0.2558167576789856
1733404718355472100,12.52447216796875,1.656346321105957,-2.8614258766174316,0.053556084632873535
1733404718365451300,12.534451171875,3.365232467651367,-2.674943208694458,-0.22294557094573975
1733404718375461000,12.544461181640624,4.076957702636719,-2.480380058288574,-0.3723061680793762
1733404718385471000,12.554470947265624,4.0017852783203125,-2.1717848777770996,-0.38510388135910034
1733404718395450000,12.5644501953125,3.274550437927246,-1.866855263710022,-0.24240225553512573
1733404718405460000,12.5744599609375,2.108883857727051,-1.476081371307373,-0.04691913723945618
1733404718415469600,12.584469482421875,1.0374183654785156,-1.0994278192520142,0.15628251433372498
1733404718425448700,12.59444873046875,0.4860982894897461,-0.7649217844009399,0.3039410710334778
1733404718435458600,12.60445849609375,0.18621063232421875,-0.4853968620300293,0.40461358428001404
1733404718445468400,12.614468505859374,0.05350017547607422,-0.35250091552734375,0.33199045062065125
1733404718455447600,12.624447509765625,0.019062042236328125,-0.14861488342285156,0.16590142250061035
1733404718465457400,12.63445751953125,-0.0720357894897461,-0.13156414031982422,0.11907845735549927
1733404718475467300,12.64446728515625,-0.38939762115478516,-0.2216815948486328,0.11786219477653503
1733404718485477000,12.65447705078125,-0.6691198348999023,-0.29160547256469727,0.06757721304893494
1733404718495456300,12.664456298828124,-1.0308446884155273,-0.4230790138244629,-0.02716648578643799
1733404718505465900,12.6744658203125,-1.2916698455810547,-0.3860616683959961,-0.08227905631065369
