time,seconds_elapsed,z,y,x
1733404706035657200,0.2046572265625,-0.09040805697441101,-0.12217304855585098,0.05497787147760391
1733404706045645300,0.214645263671875,-0.08796459436416626,-0.10384709388017654,0.03298672288656235
1733404706055646200,0.224646240234375,-0.0757472887635231,-0.08735372871160507,0.018936822190880775
1733404706065634600,0.234634521484375,-0.06719517707824707,-0.08429940044879913,0.01466076634824276
1733404706075666000,0.244666015625,-0.05803219974040985,-0.08491026610136032,0.02687807008624077
1733404706085623300,0.254623291015625,-0.04948008432984352,-0.0757472887635231,0.04764748737215996
1733404706095655200,0.2646552734375,-0.042760565876960754,-0.07880161702632904,0.07391469180583954
1733404706105642800,0.274642822265625,-0.04703662544488907,-0.1014036312699318,0.07635815441608429
1733404706115642400,0.284642333984375,-0.05375614017248154,-0.12461651116609573,0.0708603709936142
1733404706125631000,0.294630859375,-0.056810468435287476,-0.1264491081237793,0.05803219974040985
1733404706135662600,0.30466259765625,-0.05375614017248154,-0.1111774742603302,0.039706241339445114
1733404706145620000,0.314619873046875,-0.05742133408784866,-0.08735372871160507,0.006108652334660292
1733404706155651800,0.32465185546875,-0.05742133408784866,-0.05619960278272629,-0.02382374368607998
1733404706165639400,0.334639404296875,-0.04153883829712868,0.013439035043120384,-0.02871066704392433
1733404706175640600,0.344640625,-0.036651913076639175,0.016493361443281174,-0.01771509274840355
1733404706185628400,0.35462841796875,-0.04092797264456749,-0.01466076634824276,-0.005497787147760391
1733404706195660000,0.364659912109375,-0.04337143152952194,-0.039706241339445114,0.01038470957428217
1733404706205617700,0.37461767578125,-0.042760565876960754,-0.045204028487205505,0.024434609338641167
1733404706215649800,0.38464990234375,-0.03848451003432274,-0.04214970022439957,0.033597588539123535
1733404706225638000,0.394637939453125,-0.0403171069920063,-0.04948008432984352,0.036651913076639175
1733404706235669200,0.404669189453125,-0.05864306539297104,-0.07208210229873657,0.03237585723400116
1733404706245627000,0.414626953125,-0.0806342139840126,-0.08246681094169617,0.02687807008624077
1733404706255658200,0.424658203125,-0.07330382615327835,-0.05314527451992035,0.03481931984424591
1733404706265646600,0.434646484375,-0.06414084881544113,-0.024434609338641167,0.0354301854968071
1733404706275647700,0.444647705078125,-0.05619960278272629,-0.01466076634824276,0.021991148591041565
1733404706285635600,0.454635498046875,-0.04703662544488907,-0.00733038317412138,0.00366519158706069
1733404706295667200,0.464667236328125,-0.0403171069920063,-0.0024434609804302454,0.0006108652451075613
1733404706305624300,0.474624267578125,-0.039706241339445114,-0.007941247895359993,0.006719517521560192
1733404706315656200,0.48465625,-0.03787364438176155,-0.021380282938480377,0.030543262138962746
1733404706325644000,0.49464404296875,-0.036651913076639175,-0.02626720629632473,0.04886921867728233
1733404706335645000,0.50464501953125,-0.04153883829712868,-0.039706241339445114,0.04886921867728233
1733404706345633000,0.514633056640625,-0.0507018156349659,-0.06475171446800232,0.04337143152952194
1733404706355664600,0.52466455078125,-0.05864306539297104,-0.07330382615327835,0.03726277872920036
1733404706365622000,0.5346220703125,-0.05619960278272629,-0.04764748737215996,0.027488935738801956
1733404706375653600,0.544653564453125,-0.04642575979232788,-0.029932396486401558,0.00733038317412138
1733404706385641500,0.554641357421875,-0.04153883829712868,-0.054367005825042725,-0.02076941914856434
1733404706395643000,0.564642822265625,-0.04703662544488907,-0.07757988572120667,-0.019547687843441963
1733404706405630500,0.57463037109375,-0.0555887371301651,-0.09651670604944229,0
1733404706415662000,0.584662109375,-0.06169738993048668,-0.09773843735456467,0.019547687843441963
1733404706425619500,0.594619384765625,-0.059864792972803116,-0.08735372871160507,0.03176499158143997
1733404706435651000,0.604651123046875,-0.05192354694008827,-0.06414084881544113,0.03420845419168472
1733404706445639200,0.61463916015625,-0.04581489413976669,-0.03787364438176155,0.021991148591041565
1733404706455640300,0.624640380859375,-0.036651913076639175,-0.012217304669320583,-0.006108652334660292
1733404706465628200,0.634628173828125,-0.018936822190880775,-0.00427605677396059,-0.05192354694008827
1733404706475659500,0.644659423828125,-0.015882495790719986,-0.01710422709584236,-0.06475171446800232
1733404706485647600,0.654647705078125,-0.019547687843441963,-0.02871066704392433,-0.054367005825042725
1733404706495648500,0.6646484375,-0.021991148591041565,-0.03420845419168472,-0.02687807008624077
1733404706505636600,0.67463671875,-0.018325956538319588,-0.02687807008624077,0.01160643994808197
1733404706515668200,0.684668212890625,-0.009162978269159794,-0.018936822190880775,0.054367005825042725
1733404706525625600,0.69462548828125,-0.010995574295520782,-0.033597588539123535,0.08735372871160507
1733404706535657200,0.7046572265625,-0.01771509274840355,-0.036651913076639175,0.09407325088977814
1733404706545645300,0.714645263671875,-0.01771509274840355,-0.02687807008624077,0.07880161702632904
1733404706555646200,0.724646240234375,-0.019547687843441963,-0.03176499158143997,0.06169738993048668
1733404706565634300,0.73463427734375,-0.03237585723400116,-0.05375614017248154,0.04948008432984352
1733404706575665700,0.744665771484375,-0.05375614017248154,-0.07757988572120667,0.04153883829712868
1733404706585623300,0.754623291015625,-0.07024950534105301,-0.08552113175392151,0.03237585723400116
1733404706595655000,0.764655029296875,-0.07696902006864548,-0.08674286305904388,0.021380282938480377
1733404706605642800,0.774642822265625,-0.07391469180583954,-0.06963863968849182,0.009162978269159794
1733404706615644200,0.78464404296875,-0.06169738993048668,-0.05619960278272629,0.00427605677396059
1733404706625631700,0.7946318359375,-0.04642575979232788,-0.0507018156349659,0.0024434609804302454
1733404706635663000,0.8046630859375,-0.033597588539123535,-0.04337143152952194,-0.0012217304902151227
1733404706645620700,0.814620849609375,-0.027488935738801956,-0.042760565876960754,-0.015271631069481373
1733404706655652400,0.82465234375,-0.028099801391363144,-0.05375614017248154,-0.039095375686883926
1733404706665640400,0.834640380859375,-0.029932396486401558,-0.05803219974040985,-0.06169738993048668
1733404706675641300,0.844641357421875,-0.02932153269648552,-0.0507018156349659,-0.07391469180583954
1733404706685629400,0.85462939453125,-0.03176499158143997,-0.05375614017248154,-0.060475658625364304
1733404706695660800,0.864660888671875,-0.033597588539123535,-0.06475171446800232,-0.03237585723400116
1733404706705618200,0.8746181640625,-0.0403171069920063,-0.06780604273080826,-0.0024434609804302454
1733404706715649500,0.8846494140625,-0.04153883829712868,-0.05803219974040985,0.021991148591041565
1733404706725638000,0.894637939453125,-0.04092797264456749,-0.045204028487205505,0.036041051149368286
1733404706735669200,0.904669189453125,-0.0354301854968071,-0.03176499158143997,0.04214970022439957
1733404706745627000,0.914626953125,-0.036041051149368286,-0.02687807008624077,0.0354301854968071
1733404706755658500,0.924658447265625,-0.03848451003432274,-0.02932153269648552,0
1733404706765646600,0.934646484375,-0.04459316283464432,-0.03237585723400116,-0.022602014243602753
1733404706775647700,0.944647705078125,-0.04764748737215996,-0.03787364438176155,-0.033597588539123535
1733404706785635300,0.95463525390625,-0.051312681287527084,-0.036651913076639175,-0.02626720629632473
1733404706795667200,0.964667236328125,-0.04764748737215996,-0.02871066704392433,0.0012217304902151227
1733404706805624300,0.974624267578125,-0.04459316283464432,-0.015271631069481373,0.03787364438176155
1733404706815656200,0.98465625,-0.039095375686883926,-0.001832595793530345,0.07330382615327835
1733404706825644000,0.99464404296875,-0.0403171069920063,-0.00855211354792118,0.10567969083786011
1733404706835645000,1.00464501953125,-0.04948008432984352,-0.02871066704392433,0.10384709388017654
1733404706845633000,1.014633056640625,-0.05925392732024193,-0.03420845419168472,0.09040805697441101
1733404706855663900,1.024663818359375,-0.06658431142568588,-0.039095375686883926,0.07147123664617538
1733404706865622000,1.0346220703125,-0.0659734457731247,-0.048258353024721146,0.04398229718208313
1733404706875653000,1.044653076171875,-0.051312681287527084,-0.05864306539297104,0.009162978269159794
1733404706885641500,1.054641357421875,-0.027488935738801956,-0.05253441259264946,-0.02687807008624077
1733404706895641900,1.064641845703125,-0.00427605677396059,-0.03176499158143997,-0.05803219974040985
1733404706905630500,1.07463037109375,0.013439035043120384,-0.01771509274840355,-0.0861319974064827
1733404706915662000,1.084662109375,0.00427605677396059,-0.03176499158143997,-0.08796459436416626
1733404706925619700,1.09461962890625,-0.018325956538319588,-0.042760565876960754,-0.07513642311096191
1733404706935651000,1.104651123046875,-0.039706241339445114,-0.030543262138962746,-0.05314527451992035
1733404706945639200,1.11463916015625,-0.05253441259264946,-0.03237585723400116,-0.01710422709584236
1733404706955640300,1.124640380859375,-0.06780604273080826,-0.04764748737215996,0.03237585723400116
1733404706965628400,1.13462841796875,-0.07941248267889023,-0.05742133408784866,0.08368854224681854
1733404706975658800,1.14465869140625,-0.08002334833145142,-0.04886921867728233,0.12828169763088226
1733404706985647600,1.154647705078125,-0.06902777403593063,-0.0354301854968071,0.12522737681865692
1733404706995648000,1.16464794921875,-0.06352998316287994,-0.029932396486401558,0.10384709388017654
1733404707005636600,1.17463671875,-0.059864792972803116,-0.028099801391363144,0.07147123664617538
1733404707015667500,1.18466748046875,-0.04703662544488907,-0.027488935738801956,0.033597588539123535
1733404707025625900,1.1946259765625,-0.036041051149368286,-0.030543262138962746,-0.0012217304902151227
1733404707035656700,1.20465673828125,-0.025045474991202354,-0.02321287989616394,-0.025656340643763542
1733404707045645300,1.214645263671875,-0.012217304669320583,-0.00366519158706069,-0.02932153269648552
1733404707055645400,1.2246455078125,-0.00855211354792118,0.005497787147760391,-0.01038470957428217
1733404707065634300,1.23463427734375,-0.012828170321881771,0.007941247895359993,0.016493361443281174
1733404707075665200,1.2446650390625,-0.021380282938480377,0.019547687843441963,0.039095375686883926
1733404707085623300,1.254623291015625,-0.019547687843441963,0.021991148591041565,0.05375614017248154
1733404707095654000,1.26465380859375,-0.014049900695681572,0.027488935738801956,0.06414084881544113
1733404707105671400,1.27467138671875,-0.003054326167330146,0.02871066704392433,0.07330382615327835
1733404707115641600,1.2846416015625,0.013439035043120384,0.025656340643763542,0.08124507963657379
1733404707125631000,1.294630859375,0.042760565876960754,0.012828170321881771,0.08368854224681854
1733404707135662000,1.304662109375,0.06658431142568588,0,0.06658431142568588
1733404707145619700,1.31461962890625,0.09285151958465576,-0.01038470957428217,0.039706241339445114
1733404707155651000,1.324651123046875,0.12828169763088226,-0.00366519158706069,0.006719517521560192
1733404707165639400,1.334639404296875,0.1563815027475357,0.01771509274840355,-0.033597588539123535
1733404707175640600,1.344640625,0.1618792861700058,0.045204028487205505,-0.0708603709936142
1733404707185628400,1.35462841796875,0.16982053220272064,0.03848451003432274,-0.11056660860776901
1733404707195660300,1.364660400390625,0.17287486791610718,-0.00366519158706069,-0.13439035415649414
1733404707205617700,1.37461767578125,0.14294247329235077,-0.0354301854968071,-0.12095131725072861
1733404707215649800,1.38464990234375,0.10445795953273773,-0.05925392732024193,-0.08735372871160507
1733404707225638000,1.394637939453125,0.07024950534105301,-0.07696902006864548,-0.031154127791523933
1733404707235668700,1.404668701171875,0.039095375686883926,-0.07330382615327835,0.02871066704392433
1733404707245627000,1.414626953125,0.015271631069481373,-0.1014036312699318,0.07819075137376785
1733404707255658000,1.424657958984375,0.0006108652451075613,-0.1508837193250656,0.11056660860776901
1733404707265646600,1.434646484375,-0.04337143152952194,-0.22663100063800812,0.07880161702632904
1733404707275647000,1.44464697265625,-0.07330382615327835,-0.2583959996700287,-0.021991148591041565
1733404707285635600,1.454635498046875,-0.09162978827953339,-0.25961771607398987,-0.16432274878025055
1733404707295666400,1.46466650390625,-0.09346238523721695,-0.2217440903186798,-0.3170390725135803
1733404707305624300,1.474624267578125,-0.07147123664617538,-0.17043140530586243,-0.4599815309047699
1733404707315655400,1.484655517578125,-0.039706241339445114,-0.10690141469240189,-0.5589417219161987
1733404707325644000,1.49464404296875,-0.00855211354792118,-0.036041051149368286,-0.5949827432632446
1733404707335644400,1.50464453125,0.019547687843441963,0.021380282938480377,-0.5571091175079346
1733404707345633000,1.514633056640625,0.0507018156349659,0.05314527451992035,-0.3995058834552765
1733404707355664000,1.524663818359375,0.06536258012056351,0.05742133408784866,-0.2565633952617645
1733404707365622300,1.534622314453125,0.07208210229873657,0.0555887371301651,-0.10812314599752426
1733404707375652600,1.544652587890625,0.07757988572120667,0.0507018156349659,0.021991148591041565
1733404707385641500,1.554641357421875,0.08307767659425735,0.04886921867728233,0.12522737681865692
1733404707395641900,1.564641845703125,0.08918632566928864,0.060475658625364304,0.20097467303276062
1733404707405630500,1.57463037109375,0.09896016865968704,0.0757472887635231,0.2528982162475586
1733404707415661300,1.584661376953125,0.10018189996480942,0.09224065393209457,0.31642818450927734
1733404707425619500,1.594619384765625,0.08307767659425735,0.09896016865968704,0.35552358627319336
1733404707435650600,1.604650634765625,0.051312681287527084,0.08979719132184982,0.3842342495918274
1733404707445639200,1.61463916015625,0.012217304669320583,0.06536258012056351,0.3995058834552765
1733404707455639800,1.624639892578125,-0.03848451003432274,0.03726277872920036,0.3988949954509735
1733404707465628200,1.634628173828125,-0.09224065393209457,0.001832595793530345,0.3689626157283783
1733404707475659000,1.644658935546875,-0.13744467496871948,-0.03726277872920036,0.3139847218990326
1733404707485647600,1.654647705078125,-0.1716531366109848,-0.08002334833145142,0.19486601650714874
1733404707495648000,1.66464794921875,-0.17043140530586243,-0.08979719132184982,0.1062905490398407
1733404707505636600,1.67463671875,-0.1466076523065567,-0.07880161702632904,0.013439035043120384
1733404707515667700,1.684667724609375,-0.10445795953273773,-0.04764748737215996,-0.07330382615327835
1733404707525625600,1.69462548828125,-0.05864306539297104,-0.01038470957428217,-0.14538592100143433
1733404707535656700,1.70465673828125,-0.02015855349600315,0.02382374368607998,-0.19792033731937408
1733404707545645300,1.714645263671875,0.009162978269159794,0.048258353024721146,-0.23029619455337524
1733404707555645700,1.724645751953125,0.012828170321881771,0.04703662544488907,-0.24495697021484375
1733404707565634300,1.73463427734375,-0.02382374368607998,-0.01160643994808197,-0.23640485107898712
1733404707575665200,1.7446650390625,-0.07024950534105301,-0.07880161702632904,-0.20036379992961884
1733404707585623300,1.754623291015625,-0.12217304855585098,-0.1569923609495163,-0.13500121235847473
1733404707595654100,1.764654052734375,-0.16493362188339233,-0.21991148591041565,-0.04459316283464432
1733404707605642800,1.774642822265625,-0.1869247704744339,-0.23640485107898712,0.06291911751031876
1733404707615643100,1.78464306640625,-0.1765400618314743,-0.2064724564552307,0.16737708449363708
1733404707625631700,1.7946318359375,-0.1319468915462494,-0.1417207419872284,0.26450464129447937
1733404707635662800,1.804662841796875,-0.03787364438176155,-0.01160643994808197,0.37751471996307373
1733404707645620700,1.814620849609375,0.012828170321881771,0.04459316283464432,0.4147774875164032
1733404707655651800,1.82465185546875,0.03726277872920036,0.05192354694008827,0.4178318381309509
1733404707665640400,1.834640380859375,0.04092797264456749,0.025045474991202354,0.3903428912162781
1733404707675640800,1.844640869140625,0.025045474991202354,-0.021380282938480377,0.3536909818649292
1733404707685629400,1.85462939453125,0.0012217304902151227,-0.060475658625364304,0.3176499307155609
1733404707695660000,1.864659912109375,-0.030543262138962746,-0.09896016865968704,0.2889392673969269
1733404707705618400,1.874618408203125,-0.12400564551353455,-0.1918116807937622,0.26145032048225403
1733404707715649300,1.884649169921875,-0.19792033731937408,-0.2638937830924988,0.22846360504627228
1733404707725638000,1.894637939453125,-0.25595253705978394,-0.3017674386501312,0.19120082259178162
1733404707735668700,1.904668701171875,-0.2981022298336029,-0.32070425152778625,0.17348572611808777
1733404707745627000,1.914626953125,-0.31093040108680725,-0.3121521472930908,0.192422553896904
1733404707755658000,1.924657958984375,-0.2834414839744568,-0.2767219543457031,0.23640485107898712
1733404707765646600,1.934646484375,-0.2321287989616394,-0.21991148591041565,0.2932153046131134
1733404707775647000,1.94464697265625,-0.1618792861700058,-0.15577064454555511,0.33475416898727417
1733404707785635300,1.95463525390625,-0.051312681287527084,-0.06414084881544113,0.31581732630729675
1733404707795666400,1.96466650390625,0.012217304669320583,-0.013439035043120384,0.24373523890972137
1733404707805624600,1.97462451171875,0.05619960278272629,0.02015855349600315,0.1417207419872284
1733404707815656000,1.984656005859375,0.08429940044879913,0.036651913076639175,0.030543262138962746
1733404707825644000,1.99464404296875,0.08552113175392151,0.0507018156349659,-0.05619960278272629
1733404707835645200,2.004645263671875,0.05497787147760391,0.06291911751031876,-0.08918632566928864
1733404707845633000,2.014633056640625,-0.014049900695681572,0.07147123664617538,-0.0403171069920063
1733404707855664400,2.024664306640625,-0.1313360333442688,0.09468411654233932,0.19975294172763824
1733404707865622000,2.0346220703125,-0.20952677726745605,0.10018189996480942,0.45142942667007446
1733404707875653600,2.044653564453125,-0.2577851414680481,0.1007927656173706,0.7202101349830627
1733404707885641700,2.054641845703125,-0.2742784917354584,0.0806342139840126,0.921795666217804
1733404707895642600,2.064642578125,-0.26145032048225403,0.05192354694008827,1.0085384845733643
1733404707905630500,2.07463037109375,-0.23518311977386475,0.06963863968849182,0.9645562171936035
1733404707915661000,2.0846611328125,-0.23457226157188416,0.1014036312699318,0.8069530129432678
1733404707925619700,2.09461962890625,-0.28466320037841797,0.08185594528913498,0.45692721009254456
1733404707935649800,2.10464990234375,-0.34636059403419495,0.01038470957428217,0.22907446324825287
1733404707945639200,2.11463916015625,-0.3891211748123169,-0.013439035043120384,0.07024950534105301
1733404707955640300,2.124640380859375,-0.4098905920982361,0.006719517521560192,-0.009162978269159794
1733404707965628200,2.134628173828125,-0.394618958234787,0.06841690838336945,-0.015271631069481373
1733404707975660000,2.144659912109375,-0.3396410644054413,0.11972958594560623,0.00427605677396059
1733404707985647600,2.154647705078125,-0.26450464129447937,0.13072516024112701,0.01771509274840355
1733404707995648000,2.16464794921875,-0.19120082259178162,0.10751228034496307,-0.012828170321881771
1733404708005636600,2.17463671875,-0.1472185254096985,-0.01771509274840355,-0.16982053220272064
1733404708015667500,2.18466748046875,-0.13744467496871948,-0.07147123664617538,-0.3176499307155609
1733404708025625600,2.19462548828125,-0.15027284622192383,-0.13255776464939117,-0.4691445231437683
1733404708035657200,2.2046572265625,-0.18325957655906677,-0.20525072515010834,-0.5949827432632446
1733404708045645300,2.214645263671875,-0.2125810980796814,-0.2620611786842346,-0.6707300543785095
1733404708055646200,2.224646240234375,-0.23579397797584534,-0.2773328125476837,-0.6927211880683899
1733404708065634300,2.23463427734375,-0.2577851414680481,-0.2571742534637451,-0.6572909951210022
1733404708075666000,2.244666015625,-0.2718350291252136,-0.17409659922122955,-0.5112941861152649
1733404708085623300,2.254623291015625,-0.2730567753314972,-0.1270599663257599,-0.3805690407752991
1733404708095655000,2.264655029296875,-0.27000242471694946,-0.08246681094169617,-0.25595253705978394
1733404708105643000,2.27464306640625,-0.2681698501110077,-0.03481931984424591,-0.15271630883216858
1733404708115641600,2.2846416015625,-0.2669481039047241,0.00366519158706069,-0.07880161702632904
1733404708125631000,2.294630859375,-0.27122417092323303,0.029932396486401558,-0.04703662544488907
1733404708135662000,2.304662109375,-0.2626720666885376,0.059864792972803116,-0.048258353024721146
1733404708145620000,2.314619873046875,-0.2070833146572113,0.08796459436416626,-0.08735372871160507
1733404708155651000,2.324651123046875,-0.15577064454555511,0.09468411654233932,-0.11484266817569733
1733404708165639400,2.334639404296875,-0.09651670604944229,0.11423180252313614,-0.13072516024112701
1733404708175639800,2.344639892578125,-0.024434609338641167,0.14416420459747314,-0.13927727937698364
1733404708185628400,2.35462841796875,0.05009094998240471,0.15577064454555511,-0.13927727937698364
1733404708195659500,2.364659423828125,0.10812314599752426,0.13500121235847473,-0.13927727937698364
1733404708205617700,2.37461767578125,0.14233160018920898,0.0806342139840126,-0.14416420459747314
1733404708215649300,2.384649169921875,0.15943582355976105,0.030543262138962746,-0.16310101747512817
1733404708225638000,2.394637939453125,0.13255776464939117,-0.01160643994808197,-0.2217440903186798
1733404708235669000,2.4046689453125,0.08185594528913498,-0.04459316283464432,-0.28955012559890747
1733404708245627000,2.414626953125,0.021380282938480377,-0.06719517707824707,-0.37262779474258423
1733404708255657700,2.42465771484375,-0.04642575979232788,-0.08552113175392151,-0.4434881806373596
1733404708265646600,2.434646484375,-0.12461651116609573,-0.11545353382825851,-0.4764748811721802
1733404708275646700,2.444646728515625,-0.20341812074184418,-0.15577064454555511,-0.4538728892803192
1733404708285635300,2.45463525390625,-0.2773328125476837,-0.19608774781227112,-0.37568211555480957
1733404708295666200,2.464666259765625,-0.34025195240974426,-0.23335053026676178,-0.21380282938480377
1733404708305624300,2.474624267578125,-0.342695415019989,-0.24556782841682434,-0.10384709388017654
1733404708315655700,2.48465576171875,-0.32559117674827576,-0.25534167885780334,-0.0012217304902151227
1733404708325644000,2.49464404296875,-0.3023782968521118,-0.27122417092323303,0.06963863968849182
1733404708335644700,2.504644775390625,-0.2932153046131134,-0.2968805134296417,0.08491026610136032
1733404708345633000,2.514633056640625,-0.3121521472930908,-0.3280346393585205,0.04153883829712868
1733404708355664000,2.524663818359375,-0.3543018400669098,-0.37201693654060364,-0.03481931984424591
1733404708365622000,2.5346220703125,-0.4331034719944,-0.41599923372268677,-0.1368338167667389
1733404708375653600,2.544653564453125,-0.46547931432724,-0.40133845806121826,-0.1514945775270462
1733404708385641500,2.554641357421875,-0.45326200127601624,-0.3549126982688904,-0.1062905490398407
1733404708395643000,2.564642822265625,-0.3988949954509735,-0.27611109614372253,-0.007941247895359993
1733404708405630500,2.57463037109375,-0.30604347586631775,-0.1771509200334549,0.12889257073402405
1733404708415661600,2.58466162109375,-0.19364428520202637,-0.09651670604944229,0.2675589919090271
1733404708425619500,2.594619384765625,-0.0708603709936142,-0.04214970022439957,0.3640756905078888
1733404708435650600,2.604650634765625,0.03726277872920036,0,0.38667771220207214
1733404708445639200,2.61463916015625,0.12522737681865692,0.027488935738801956,0.2987131178379059
1733404708455639600,2.6246396484375,0.12522737681865692,0.030543262138962746,0.21074850857257843
1733404708465628200,2.634628173828125,0.09957103431224823,0.015271631069481373,0.13316862285137177
1733404708475659000,2.644658935546875,0.0708603709936142,-0.00733038317412138,0.06352998316287994
1733404708485647600,2.654647705078125,0.04398229718208313,-0.025045474991202354,0.001832595793530345
1733404708495649000,2.66464892578125,0.009773843921720982,-0.03848451003432274,-0.05192354694008827
1733404708505636600,2.67463671875,-0.02626720629632473,-0.06108652427792549,-0.06780604273080826
1733404708515668200,2.684668212890625,-0.06841690838336945,-0.06230825558304787,0.03298672288656235
1733404708525625600,2.69462548828125,-0.0757472887635231,-0.02932153269648552,0.20402899384498596
1733404708535657200,2.7046572265625,-0.054367005825042725,0.0024434609804302454,0.44104471802711487
1733404708545645300,2.714645263671875,-0.001832595793530345,-0.001832595793530345,0.694553792476654
1733404708555646200,2.724646240234375,0.06719517707824707,-0.02321287989616394,0.912021815776825
1733404708565634300,2.73463427734375,0.1618792861700058,-0.04092797264456749,1.0445796251296997
1733404708575664400,2.744664306640625,0.24923302233219147,0.010995574295520782,1.081842303276062
1733404708585623300,2.754623291015625,0.34086281061172485,0.036651913076639175,0.9370672702789307
1733404708595653400,2.7646533203125,0.37751471996307373,-0.048258353024721146,0.7073819637298584
1733404708605642800,2.774642822265625,0.394008070230484,-0.18570303916931152,0.3927863538265228
1733404708615643000,2.784642822265625,0.3995058834552765,-0.28527405858039856,0.04581489413976669
1733404708625631700,2.7946318359375,0.39584067463874817,-0.32070425152778625,-0.28588494658470154
1733404708635663600,2.80466357421875,0.3830125033855438,-0.30970868468284607,-0.5619960427284241
1733404708645620700,2.814620849609375,0.35246923565864563,-0.2583959996700287,-0.7409795522689819
1733404708655652400,2.82465234375,0.3078760802745819,-0.18448130786418915,-0.8045095205307007
1733404708665640400,2.834640380859375,0.2174680233001709,-0.09162978827953339,-0.7012733221054077
1733404708675641600,2.8446416015625,0.13927727937698364,-0.06169738993048668,-0.5338962078094482
1733404708685629400,2.85462939453125,0.05619960278272629,-0.06963863968849182,-0.32986724376678467
1733404708695660800,2.864660888671875,-0.022602014243602753,-0.10690141469240189,-0.14233160018920898
1733404708705618200,2.8746181640625,-0.07819075137376785,-0.1514945775270462,-0.018936822190880775
1733404708715649500,2.8846494140625,-0.09957103431224823,-0.17470745742321014,0.03176499158143997
1733404708725638000,2.894637939453125,-0.0959058403968811,-0.17531833052635193,0.02932153269648552
1733404708735669200,2.904669189453125,-0.05009094998240471,-0.1466076523065567,-0.01771509274840355
1733404708745627000,2.914626953125,0.006719517521560192,-0.10751228034496307,-0.039706241339445114
1733404708755658000,2.924657958984375,0.0708603709936142,-0.05253441259264946,-0.05009094998240471
1733404708765646600,2.934646484375,0.13500121235847473,-0.006719517521560192,-0.04764748737215996
1733404708775647200,2.944647216796875,0.1722639948129654,0.00733038317412138,-0.04092797264456749
1733404708785635300,2.95463525390625,0.18387043476104736,0.005497787147760391,-0.03298672288656235
1733404708795666400,2.96466650390625,0.1771509200334549,-0.0024434609804302454,-0.019547687843441963
1733404708805624300,2.974624267578125,0.13255776464939117,-0.09407325088977814,-0.012828170321881771
1733404708815655700,2.98465576171875,0.0959058403968811,-0.14782938361167908,-0.021991148591041565
1733404708825644000,2.99464404296875,0.05314527451992035,-0.19120082259178162,-0.04214970022439957
1733404708835644400,3.00464453125,-0.005497787147760391,-0.20891591906547546,-0.08185594528913498
1733404708845633000,3.014633056640625,-0.04703662544488907,-0.1966986060142517,-0.12461651116609573
1733404708855664000,3.0246640625,-0.07391469180583954,-0.15332718193531036,-0.15332718193531036
1733404708865622000,3.0346220703125,-0.09285151958465576,-0.10812314599752426,-0.16859880089759827
1733404708875653000,3.044653076171875,-0.09896016865968704,-0.06963863968849182,-0.1667662113904953
1733404708885641500,3.054641357421875,-0.08185594528913498,-0.015882495790719986,-0.11667526513338089
1733404708895641600,3.0646416015625,-0.06780604273080826,0.028099801391363144,-0.05619960278272629
1733404708905630500,3.07463037109375,-0.06475171446800232,0.05925392732024193,0.009773843921720982
1733404708915661600,3.08466162109375,-0.07635815441608429,0.05192354694008827,0.06108652427792549
1733404708925619700,3.09461962890625,-0.0910189226269722,0.012217304669320583,0.08429940044879913
1733404708935650800,3.10465087890625,-0.10751228034496307,-0.024434609338641167,0.08368854224681854
1733404708945639200,3.11463916015625,-0.14233160018920898,-0.06108652427792549,0.05742133408784866
1733404708955639800,3.124639892578125,-0.19364428520202637,-0.12889257073402405,-0.04214970022439957
1733404708965628200,3.134628173828125,-0.20891591906547546,-0.17104226350784302,-0.13255776464939117
1733404708975659300,3.1446591796875,-0.2076941877603531,-0.19975294172763824,-0.22296582162380219
1733404708985647600,3.154647705078125,-0.2015855312347412,-0.2119702398777008,-0.29993483424186707
1733404708995648000,3.16464794921875,-0.19975294172763824,-0.21624629199504852,-0.3500257730484009
1733404709005636600,3.17463671875,-0.1973094791173935,-0.22663100063800812,-0.3597996234893799
1733404709015668200,3.184668212890625,-0.192422553896904,-0.252287358045578,-0.33658674359321594
1733404709025625600,3.19462548828125,-0.2028072625398636,-0.2724458873271942,-0.23457226157188416
1733404709035656400,3.204656494140625,-0.20463985204696655,-0.24862214922904968,-0.13805554807186127
1733404709045645300,3.214645263671875,-0.21319197118282318,-0.22113321721553802,-0.045204028487205505
1733404709055646200,3.224646240234375,-0.24068090319633484,-0.2070833146572113,0.018936822190880775
1733404709065634300,3.23463427734375,-0.2877175211906433,-0.21991148591041565,0.048258353024721146
1733404709075666200,3.244666259765625,-0.35124751925468445,-0.2877175211906433,0.06108652427792549
1733404709085623300,3.254623291015625,-0.3995058834552765,-0.3933972120285034,0.08491026610136032
1733404709095654400,3.264654296875,-0.4105014503002167,-0.46181413531303406,0.14355333149433136
1733404709105673000,3.2746728515625,-0.3488040566444397,-0.4489859640598297,0.24923302233219147
1733404709115641600,3.2846416015625,-0.2919935882091522,-0.3604104816913605,0.2816088795661926
1733404709125631000,3.294630859375,-0.22602014243602753,-0.27122417092323303,0.24129177629947662
1733404709135662600,3.30466259765625,-0.15332718193531036,-0.18509216606616974,0.11850785464048386
1733404709145619700,3.31461962890625,-0.08918632566928864,-0.09834930300712585,-0.059864792972803116
1733404709155651600,3.324651611328125,-0.04459316283464432,-0.006719517521560192,-0.23335053026676178
1733404709165639400,3.334639404296875,-0.031154127791523933,0.09712757170200348,-0.3292563557624817
1733404709175640300,3.344640380859375,-0.04948008432984352,0.25961771607398987,-0.2076941877603531
1733404709185628400,3.35462841796875,-0.07147123664617538,0.2883284091949463,0.060475658625364304
1733404709195660000,3.364659912109375,-0.10567969083786011,0.23273965716362,0.4129449129104614
1733404709205617700,3.37461767578125,-0.16859880089759827,0.1215621829032898,0.7745771408081055
1733404709215649800,3.38464990234375,-0.2742784917354584,0.01771509274840355,1.06657075881958
1733404709225638000,3.394637939453125,-0.394008070230484,-0.08552113175392151,1.2412781715393066
1733404709235669200,3.404669189453125,-0.4746423065662384,-0.19120082259178162,1.2803735733032227
1733404709245627000,3.414626953125,-0.484416127204895,-0.2687807083129883,1.1313223838806152
1733404709255658000,3.424657958984375,-0.4294382631778717,-0.21563543379306793,0.9089674949645996
1733404709265646600,3.434646484375,-0.33047810196876526,-0.08857546001672745,0.5943718552589417
1733404709275647000,3.44464697265625,-0.1966986060142517,0.07696902006864548,0.2119702398777008
1733404709285635600,3.454635498046875,-0.08918632566928864,0.24007004499435425,-0.18814650177955627
1733404709295666700,3.464666748046875,0.01038470957428217,0.3439171314239502,-0.5583308339118958
1733404709305624300,3.474624267578125,0.08491026610136032,0.3799581825733185,-0.836885392665863
1733404709315655700,3.48465576171875,0.12217304855585098,0.4086688458919525,-0.9706648588180542
1733404709325644000,3.49464404296875,0.11667526513338089,0.41661009192466736,-0.9040805697441101
1733404709335645000,3.50464501953125,0.07880161702632904,0.3988949954509735,-0.7385360598564148
1733404709345633000,3.514633056640625,0.029932396486401558,0.3585779070854187,-0.5406157374382019
1733404709355664600,3.52466455078125,-0.021991148591041565,0.28955012559890747,-0.3530801236629486
1733404709365622300,3.534622314453125,-0.06536258012056351,0.19547687470912933,-0.22479841113090515
1733404709375653400,3.5446533203125,-0.08368854224681854,0.09346238523721695,-0.1918116807937622
1733404709385641500,3.554641357421875,-0.12217304855585098,0.02626720629632473,-0.2321287989616394
1733404709395641900,3.564641845703125,-0.17531833052635193,-0.05925392732024193,-0.37262779474258423
1733404709405630500,3.57463037109375,-0.17592918872833252,-0.1258382350206375,-0.45814892649650574
1733404709415661300,3.584661376953125,-0.1508837193250656,-0.1618792861700058,-0.504574716091156
1733404709425619500,3.594619384765625,-0.1014036312699318,-0.15332718193531036,-0.49724429845809937
1733404709435650300,3.604650390625,-0.033597588539123535,-0.1062905490398407,-0.43249258399009705
1733404709445639000,3.614638916015625,0.039706241339445114,-0.0403171069920063,-0.32498031854629517
1733404709455640000,3.62464013671875,0.09468411654233932,0.00427605677396059,-0.19486601650714874
1733404709465628200,3.634628173828125,0.1313360333442688,0.04214970022439957,-0.01771509274840355
1733404709475659800,3.64465966796875,0.12767083942890167,0.036041051149368286,0.05375614017248154
1733404709485647600,3.654647705078125,0.09468411654233932,0.036041051149368286,0.09407325088977814
1733404709495648000,3.66464794921875,0.051312681287527084,0.025045474991202354,0.10445795953273773
1733404709505636600,3.67463671875,0.012828170321881771,-0.00855211354792118,0.09896016865968704
1733404709515667500,3.68466748046875,-0.02076941914856434,-0.05314527451992035,0.09834930300712585
1733404709525625600,3.69462548828125,-0.042760565876960754,-0.06414084881544113,0.10751228034496307
1733404709535656700,3.70465673828125,-0.04581489413976669,-0.042760565876960754,0.12217304855585098
1733404709545645300,3.714645263671875,-0.019547687843441963,0.01160643994808197,0.12828169763088226
1733404709555645700,3.724645751953125,-0.001832595793530345,0.036041051149368286,0.12034045159816742
1733404709565634300,3.73463427734375,0.00427605677396059,0.036041051149368286,0.10934487730264664
1733404709575665200,3.7446650390625,-0.00427605677396059,0.009162978269159794,0.09957103431224823
1733404709585623300,3.754623291015625,-0.025045474991202354,-0.025045474991202354,0.08185594528913498
1733404709595654100,3.764654052734375,-0.05375614017248154,-0.06352998316287994,0.04459316283464432
1733404709605642800,3.774642822265625,-0.09162978827953339,-0.1007927656173706,-0.006719517521560192
1733404709615643100,3.78464306640625,-0.1514945775270462,-0.14538592100143433,-0.10690141469240189
1733404709625631700,3.7946318359375,-0.18509216606616974,-0.1563815027475357,-0.17592918872833252
1733404709635663400,3.804663330078125,-0.2119702398777008,-0.15882496535778046,-0.22907446324825287
1733404709645620700,3.814620849609375,-0.251676470041275,-0.11056660860776901,-0.24984388053417206
1733404709655652400,3.82465234375,-0.27550023794174194,-0.09529497474431992,-0.22602014243602753
1733404709665640400,3.834640380859375,-0.25473082065582275,-0.10323622822761536,-0.13988813757896423
1733404709675641300,3.844641357421875,-0.17531833052635193,-0.08429940044879913,-0.00855211354792118
1733404709685629200,3.854629150390625,-0.02321287989616394,-0.04642575979232788,0.19058994948863983
1733404709695660300,3.864660400390625,0.09407325088977814,-0.01710422709584236,0.2632829248905182
1733404709705618200,3.8746181640625,0.19853121042251587,0.04398229718208313,0.2577851414680481
1733404709715649300,3.884649169921875,0.25534167885780334,0.10995574295520782,0.1875356286764145
1733404709725638000,3.894637939453125,0.294437050819397,0.1368338167667389,0.09529497474431992
1733404709735669500,3.90466943359375,0.32620203495025635,0.1258382350206375,0.03298672288656235
1733404709745627000,3.914626953125,0.3170390725135803,0.11178833991289139,0.018936822190880775
1733404709755658500,3.924658447265625,0.26083946228027344,0.04764748737215996,0.039706241339445114
1733404709765646600,3.934646484375,0.09468411654233932,-0.1007927656173706,0.12767083942890167
1733404709775647500,3.9446474609375,-0.06108652427792549,-0.1472185254096985,0.24129177629947662
1733404709785635300,3.95463525390625,-0.20097467303276062,-0.20341812074184418,0.4184426963329315
1733404709795667200,3.964667236328125,-0.2669481039047241,-0.2565633952617645,0.6603453159332275
1733404709805624300,3.974624267578125,-0.2480112910270691,-0.26145032048225403,0.9535606503486633
1733404709815656000,3.984656005859375,-0.19547687470912933,-0.23335053026676178,1.228450059890747
1733404709825644000,3.99464404296875,-0.12095131725072861,-0.1765400618314743,1.4184291362762451
1733404709835643600,4.0046435546875,0.03237585723400116,-0.06902777403593063,1.4049900770187378
1733404709845633000,4.014633056640625,0.1313360333442688,0.009162978269159794,1.187522053718567
1733404709855663000,4.0246630859375,0.20463985204696655,0.05925392732024193,0.8313875794410706
1733404709865622000,4.0346220703125,0.2480112910270691,0.08735372871160507,0.39706242084503174
1733404709875652900,4.04465283203125,0.25045475363731384,0.10201449692249298,-0.06780604273080826
1733404709885641700,4.054641845703125,0.20952677726745605,0.07024950534105301,-0.50335294008255
1733404709895642600,4.064642578125,0.13439035415649414,-0.005497787147760391,-0.8662069439888
1733404709905630500,4.07463037109375,0.06230825558304787,-0.0354301854968071,-1.166752576828003
1733404709915662000,4.084662109375,0.04337143152952194,-0.01038470957428217,-1.188132882118225
1733404709925619700,4.09461962890625,0.02626720629632473,0.001832595793530345,-1.0867292881011963
1733404709935651000,4.104651123046875,0.022602014243602753,-0.02015855349600315,-0.9046914577484131
1733404709945639200,4.11463916015625,0.01160643994808197,-0.05619960278272629,-0.6786713004112244
1733404709955640000,4.12464013671875,-0.00366519158706069,-0.08429940044879913,-0.4447098970413208
1733404709965628200,4.134628173828125,-0.01160643994808197,-0.09651670604944229,-0.23579397797584534
1733404709975659800,4.14465966796875,-0.010995574295520782,-0.09896016865968704,-0.0659734457731247
1733404709985647600,4.154647705078125,0.0024434609804302454,-0.0910189226269722,0.10995574295520782
1733404709995647700,4.164647705078125,0.010995574295520782,-0.08918632566928864,0.16798794269561768
1733404710005636600,4.17463671875,0.01466076634824276,-0.10323622822761536,0.18020524084568024
1733404710015667700,4.184667724609375,0.012217304669320583,-0.13439035415649414,0.15882496535778046
1733404710025625600,4.19462548828125,0.00855211354792118,-0.16310101747512817,0.12950342893600464
1733404710035656700,4.20465673828125,0.003054326167330146,-0.1722639948129654,0.10018189996480942
1733404710045645300,4.214645263671875,0.0006108652451075613,-0.16004669666290283,0.07024950534105301
1733404710055645700,4.224645751953125,-0.007941247895359993,-0.12095131725072861,0.018325956538319588
1733404710065634300,4.23463427734375,-0.01160643994808197,-0.08491026610136032,-0.015271631069481373
1733404710075665200,4.2446650390625,-0.013439035043120384,-0.05742133408784866,-0.036651913076639175
1733404710085623300,4.254623291015625,-0.012217304669320583,-0.04398229718208313,-0.04886921867728233
1733404710095654100,4.264654052734375,-0.01466076634824276,-0.03726277872920036,-0.05192354694008827
1733404710105643000,4.27464306640625,-0.021991148591041565,-0.024434609338641167,-0.054367005825042725
1733404710115641300,4.284641357421875,-0.0354301854968071,-0.02321287989616394,-0.060475658625364304
1733404710125631000,4.294630859375,-0.056810468435287476,-0.04948008432984352,-0.07513642311096191
1733404710135661600,4.30466162109375,-0.06780604273080826,-0.06658431142568588,-0.07330382615327835
1733404710145620000,4.314619873046875,-0.08491026610136032,-0.05864306539297104,-0.051312681287527084
1733404710155650800,4.32465087890625,-0.10018189996480942,-0.04581489413976669,-0.00733038317412138
1733404710165639400,4.334639404296875,-0.10690141469240189,-0.03420845419168472,0.060475658625364304
1733404710175640000,4.34464013671875,-0.10873401165008545,-0.039095375686883926,0.13927727937698364
1733404710185628400,4.35462841796875,-0.10934487730264664,-0.05925392732024193,0.21380282938480377
1733404710195659500,4.364659423828125,-0.10506882518529892,-0.09773843735456467,0.2583959996700287
1733404710205617700,4.37461767578125,-0.06963863968849182,-0.12339477986097336,0.2431243658065796
1733404710215649300,4.384649169921875,-0.02626720629632473,-0.09407325088977814,0.18875735998153687
1733404710225638000,4.394637939453125,0.04153883829712868,-0.02932153269648552,0.10995574295520782
1733404710235669000,4.4046689453125,0.12217304855585098,0.0354301854968071,0.014049900695681572
1733404710245627000,4.414626953125,0.18570303916931152,0.059864792972803116,-0.10018189996480942
1733404710255658500,4.424658447265625,0.2028072625398636,0.03726277872920036,-0.21930062770843506
1733404710265646600,4.434646484375,0.15760323405265808,-0.015882495790719986,-0.3182607889175415
1733404710275647500,4.4446474609375,-0.03298672288656235,-0.1722639948129654,-0.37690386176109314
1733404710285635300,4.45463525390625,-0.19364428520202637,-0.3017674386501312,-0.32131510972976685
1733404710295667000,4.4646669921875,-0.3243694305419922,-0.4178318381309509,-0.19608774781227112
1733404710305624300,4.474624267578125,-0.41722095012664795,-0.513126790523529,-0.019547687843441963
1733404710315656000,4.484656005859375,-0.4697553813457489,-0.5809328556060791,0.14782938361167908
1733404710325644000,4.49464404296875,-0.4648684561252594,-0.607200026512146,0.24068090319633484
1733404710335645000,4.50464501953125,-0.4147774875164032,-0.5803219676017761,0.22846360504627228
1733404710345633000,4.514633056640625,-0.2724458873271942,-0.34574973583221436,0.07941248267889023
1733404710355664600,4.52466455078125,-0.1459967941045761,-0.07513642311096191,0.021380282938480377
1733404710365622000,4.5346220703125,-0.015882495790719986,0.22052235901355743,0.1062905490398407
1733404710375653600,4.544653564453125,0.10751228034496307,0.4740314185619354,0.33719760179519653
1733404710385641700,4.554641845703125,0.19303341209888458,0.6243042945861816,0.6499606370925903
1733404710395642600,4.564642578125,0.20097467303276062,0.6035348773002625,0.9627236127853394
1733404710405630500,4.57463037109375,0.14294247329235077,0.4807509481906891,1.2162326574325562
1733404710415661000,4.5846611328125,0.007941247895359993,0.27550023794174194,1.3683381080627441
1733404710425619500,4.594619384765625,-0.27550023794174194,-0.16859880089759827,1.3231340646743774
1733404710435649500,4.6046494140625,-0.4502076804637909,-0.4288274049758911,1.1239920854568481
1733404710445639200,4.61463916015625,-0.5693264007568359,-0.5687155723571777,0.8246681094169617
1733404710455638800,4.624638671875,-0.6401867866516113,-0.588263213634491,0.45814892649650574
1733404710465628200,4.634628173828125,-0.6609562039375305,-0.5143485069274902,0.06291911751031876
1733404710475658500,4.644658447265625,-0.627358615398407,-0.3543018400669098,-0.3121521472930908
1733404710485647600,4.654647705078125,-0.5338962078094482,-0.12522737681865692,-0.6188064813613892
1733404710495648800,4.664648681640625,-0.3243694305419922,0.18509216606616974,-0.9089674949645996
1733404710505636600,4.67463671875,-0.18325957655906677,0.33169981837272644,-0.9749409556388855
1733404710515668200,4.684668212890625,-0.07269296050071716,0.4178318381309509,-0.9560040831565857
1733404710525625600,4.69462548828125,-0.01038470957428217,0.413555771112442,-0.8869763612747192
1733404710535657200,4.7046572265625,0.01710422709584236,0.3494149148464203,-0.7916813492774963
1733404710545645300,4.714645263671875,0.009773843921720982,0.24495697021484375,-0.6902777552604675
1733404710555646200,4.724646240234375,-0.005497787147760391,0.11972958594560623,-0.5858197808265686
1733404710565634300,4.73463427734375,-0.03726277872920036,-0.009162978269159794,-0.4349360466003418
1733404710575665700,4.744665771484375,-0.06108652427792549,-0.06963863968849182,-0.35246923565864563
1733404710585623300,4.754623291015625,-0.07391469180583954,-0.10506882518529892,-0.28466320037841797
1733404710595655000,4.764655029296875,-0.06963863968849182,-0.14966198801994324,-0.2217440903186798
1733404710605642800,4.774642822265625,-0.054367005825042725,-0.19547687470912933,-0.15882496535778046
1733404710615643600,4.7846435546875,-0.04153883829712868,-0.18875735998153687,-0.08979719132184982
1733404710625631700,4.7946318359375,-0.039706241339445114,-0.15882496535778046,-0.029932396486401558
1733404710635663400,4.804663330078125,-0.029932396486401558,-0.11667526513338089,0.01710422709584236
1733404710645620700,4.814620849609375,-0.013439035043120384,-0.04764748737215996,0.0659734457731247
1733404710655651600,4.824651611328125,-0.00733038317412138,-0.013439035043120384,0.08552113175392151
1733404710665640400,4.834640380859375,-0.003054326167330146,0.00427605677396059,0.09407325088977814
1733404710675640800,4.844640869140625,0.00366519158706069,0.00855211354792118,0.09162978827953339
1733404710685629400,4.85462939453125,0.012217304669320583,0.01160643994808197,0.08674286305904388
1733404710695660000,4.864659912109375,0.019547687843441963,0.016493361443281174,0.08246681094169617
1733404710705618200,4.8746181640625,0.029932396486401558,0.024434609338641167,0.07941248267889023
1733404710715649300,4.884649169921875,0.04764748737215996,0.05253441259264946,0.08185594528913498
1733404710725638000,4.894637939453125,0.05742133408784866,0.09285151958465576,0.08491026610136032
1733404710735669000,4.9046689453125,0.054367005825042725,0.13255776464939117,0.08185594528913498
1733404710745627000,4.914626953125,0.04642575979232788,0.1514945775270462,0.07147123664617538
1733404710755658000,4.924657958984375,0.031154127791523933,0.1258382350206375,0.054367005825042725
1733404710765646600,4.934646484375,0.012217304669320583,0.0659734457731247,0.048258353024721146
1733404710775647200,4.944647216796875,-0.012217304669320583,-0.009773843921720982,0.04398229718208313
1733404710785635300,4.95463525390625,-0.05742133408784866,-0.1007927656173706,0.01771509274840355
1733404710795666200,4.964666259765625,-0.09468411654233932,-0.12889257073402405,-0.01466076634824276
1733404710805624300,4.974624267578125,-0.13255776464939117,-0.1270599663257599,-0.059864792972803116
1733404710815655700,4.98465576171875,-0.17959438264369965,-0.10995574295520782,-0.11178833991289139
1733404710825644000,4.99464404296875,-0.23640485107898712,-0.09712757170200348,-0.16249015927314758
1733404710835645200,5.004645263671875,-0.2938261926174164,-0.09529497474431992,-0.19425514340400696
1733404710845633000,5.014633056640625,-0.33719760179519653,-0.10323622822761536,-0.1814269721508026
1733404710855664600,5.02466455078125,-0.34697145223617554,-0.11301007121801376,-0.12034045159816742
1733404710865622300,5.034622314453125,-0.28466320037841797,-0.07208210229873657,0.03420845419168472
1733404710875653400,5.0446533203125,-0.17898350954055786,-0.02871066704392433,0.13072516024112701
1733404710885641500,5.054641357421875,-0.014049900695681572,0.05864306539297104,0.20463985204696655
1733404710895641900,5.064641845703125,0.14355333149433136,0.14782938361167908,0.24495697021484375
1733404710905630500,5.07463037109375,0.25595253705978394,0.18936823308467865,0.251676470041275
1733404710915661600,5.08466162109375,0.304210901260376,0.182648703455925,0.2376265823841095
1733404710925619700,5.09461962890625,0.31520646810531616,0.18509216606616974,0.2070833146572113
1733404710935651000,5.104651123046875,0.2681698501110077,0.16310101747512817,0.11484266817569733
1733404710945639200,5.11463916015625,0.18325957655906677,0.13561208546161652,0.03298672288656235
1733404710955640300,5.124640380859375,0.06719517707824707,0.02932153269648552,-0.02871066704392433
1733404710965628200,5.134628173828125,-0.05314527451992035,-0.0959058403968811,-0.014049900695681572
1733404710975659800,5.14465966796875,-0.1411098688840866,-0.14416420459747314,0.1417207419872284
1733404710985647600,5.154647705078125,-0.16065755486488342,-0.12461651116609573,0.4550946056842804
1733404710995648800,5.164648681640625,-0.12461651116609573,-0.04642575979232788,0.8833111524581909
1733404711005636600,5.17463671875,-0.00733038317412138,0.07880161702632904,1.4917329549789429
1733404711015667200,5.184667236328125,0.09040805697441101,0.09834930300712585,1.7440202236175537
1733404711025625600,5.19462548828125,0.17592918872833252,0.07880161702632904,1.822821855545044
1733404711035656000,5.204656005859375,0.24678955972194672,0.006719517521560192,1.700037956237793
1733404711045645300,5.214645263671875,0.2816088795661926,-0.0910189226269722,1.395827054977417
1733404711055645000,5.22464501953125,0.2724458873271942,-0.18325957655906677,0.9529497623443604
1733404711065634300,5.23463427734375,0.2321287989616394,-0.2480112910270691,0.42699480056762695
1733404711075665200,5.2446650390625,0.18448130786418915,-0.2620611786842346,-0.09285151958465576
1733404711086017500,5.255017578125,0.1258382350206375,-0.18325957655906677,-0.6664539575576782
1733404711096049400,5.26504931640625,0.0757472887635231,-0.11911872029304504,-0.856433093547821
1733404711106065700,5.275065673828125,0.029932396486401558,-0.08368854224681854,-0.8979719281196594
1733404711116036600,5.28503662109375,0.006719517521560192,-0.08491026610136032,-0.8222246170043945
1733404711126025200,5.295025146484375,0.0024434609804302454,-0.10751228034496307,-0.6670648455619812
1733404711136056800,5.305056884765625,0.014049900695681572,-0.12889257073402405,-0.47342056035995483
1733404711146014200,5.31501416015625,0.04337143152952194,-0.1362229436635971,-0.2730567753314972
1733404711156045800,5.3250458984375,0.10812314599752426,-0.09040805697441101,-0.014049900695681572
1733404711166034000,5.335033935546875,0.14844025671482086,-0.0555887371301651,0.09773843735456467
1733404711176034300,5.345034423828125,0.18020524084568024,-0.03298672288656235,0.15027284622192383
1733404711186023200,5.355023193359375,0.20463985204696655,-0.033597588539123535,0.16859880089759827
1733404711196054300,5.36505419921875,0.21502456068992615,-0.019547687843441963,0.15760323405265808
1733404711206012000,5.375011962890625,0.2119702398777008,-0.009773843921720982,0.11728613078594208
1733404711216043800,5.385043701171875,0.20097467303276062,-0.02871066704392433,0.06108652427792549
1733404711226032400,5.395032470703125,0.1661553531885147,-0.07880161702632904,-0.036041051149368286
1733404711236063500,5.4050634765625,0.12522737681865692,-0.12889257073402405,-0.09773843735456467
1733404711246021400,5.415021484375,0.06780604273080826,-0.16920967400074005,-0.15332718193531036
1733404711256052200,5.42505224609375,0.0012217304902151227,-0.1869247704744339,-0.19914206862449646
1733404711266040800,5.435040771484375,-0.06414084881544113,-0.18875735998153687,-0.23335053026676178
1733404711276041200,5.445041259765625,-0.11667526513338089,-0.16859880089759827,-0.252287358045578
1733404711286029800,5.45502978515625,-0.1459967941045761,-0.1270599663257599,-0.24923302233219147
1733404711296061000,5.46506103515625,-0.14844025671482086,-0.09285151958465576,-0.22907446324825287
1733404711306018800,5.475018798828125,-0.13377949595451355,-0.0354301854968071,-0.18875735998153687
1733404711316049700,5.485049560546875,-0.1111774742603302,0.014049900695681572,-0.15515977144241333
1733404711326038500,5.49503857421875,-0.0959058403968811,0.04886921867728233,-0.11728613078594208
1733404711336039200,5.5050390625,-0.08674286305904388,0.05192354694008827,-0.08185594528913498
1733404711346027500,5.515027587890625,-0.08857546001672745,0.024434609338641167,-0.05375614017248154
1733404711356058600,5.52505859375,-0.10384709388017654,-0.01710422709584236,-0.02382374368607998
1733404711366016500,5.5350166015625,-0.11911872029304504,-0.08796459436416626,0.00733038317412138
1733404711376047600,5.545047607421875,-0.14966198801994324,-0.18631389737129211,0.04764748737215996
1733404711386036000,5.555035888671875,-0.15821409225463867,-0.21563543379306793,0.06414084881544113
1733404711396036400,5.565036376953125,-0.152105450630188,-0.20586158335208893,0.06536258012056351
1733404711406025000,5.57502490234375,-0.13377949595451355,-0.17837265133857727,0.0555887371301651
1733404711416056000,5.58505615234375,-0.11972958594560623,-0.1569923609495163,0.021380282938480377
1733404711426014000,5.595013916015625,-0.09285151958465576,-0.13072516024112701,-0.02626720629632473
1733404711436045000,5.605045166015625,-0.04153883829712868,-0.09651670604944229,-0.08002334833145142
1733404711446033700,5.61503369140625,0.027488935738801956,-0.05314527451992035,-0.1466076523065567
1733404711456033800,5.62503369140625,0.03237585723400116,-0.0555887371301651,-0.1869247704744339
1733404711466022400,5.6350224609375,-0.006719517521560192,-0.10201449692249298,-0.22357667982578278
1733404711476054000,5.645053955078125,-0.08674286305904388,-0.1966986060142517,-0.24984388053417206
1733404711486042000,5.6550419921875,-0.1722639948129654,-0.3170390725135803,-0.24129177629947662
1733404711496043000,5.66504296875,-0.25045475363731384,-0.4129449129104614,-0.17470745742321014
1733404711506031000,5.675031005859375,-0.31520646810531616,-0.4764748811721802,-0.048258353024721146
1733404711516062000,5.68506201171875,-0.3433062732219696,-0.5125159621238708,0.09712757170200348
1733404711526020000,5.69502001953125,-0.2993239760398865,-0.5534439086914062,0.294437050819397
1733404711536051700,5.7050517578125,-0.23579397797584534,-0.5210680365562439,0.36713001132011414
1733404711546039800,5.715039794921875,-0.17837265133857727,-0.4612032473087311,0.36529740691185
1733404711556040700,5.725040771484375,-0.15332718193531036,-0.3640756905078888,0.29993483424186707
1733404711566028800,5.73502880859375,-0.1459967941045761,-0.23884831368923187,0.22663100063800812
1733404711576060200,5.74506005859375,-0.1661553531885147,-0.06291911751031876,0.2125810980796814
1733404711586017500,5.755017578125,-0.19486601650714874,0.051312681287527084,0.2938261926174164
1733404711596049200,5.765049072265625,-0.2321287989616394,0.13072516024112701,0.5601634383201599
1733404711606037200,5.775037353515625,-0.2590068578720093,0.12522737681865692,0.7629706859588623
1733404711616038100,5.7850380859375,-0.3017674386501312,0.07269296050071716,0.921795666217804
1733404711626026200,5.795026123046875,-0.35246923565864563,-0.033597588539123535,0.9847147464752197
1733404711636057600,5.8050576171875,-0.3854559659957886,-0.12950342893600464,0.9254608750343323
1733404711646015200,5.81501513671875,-0.384845107793808,-0.2070833146572113,0.7428121566772461
1733404711656046000,5.825046142578125,-0.34574973583221436,-0.21868975460529327,0.45204028487205505
1733404711666034700,5.83503466796875,-0.21624629199504852,-0.10934487730264664,-0.10873401165008545
1733404711676035300,5.845035400390625,-0.1215621829032898,0.02932153269648552,-0.48685958981513977
1733404711686023700,5.855023681640625,-0.04764748737215996,0.19608774781227112,-0.8136724829673767
1733404711696055300,5.86505517578125,0.021991148591041565,0.3225368559360504,-1.0555751323699951
1733404711706013000,5.875012939453125,0.07452555745840073,0.43615779280662537,-1.1826350688934326
1733404711716044300,5.885044189453125,0.10690141469240189,0.5375614166259766,-1.1942415237426758
1733404711726032400,5.895032470703125,0.11545353382825851,0.598647952079773,-1.1007791757583618
1733404711736063700,5.905063720703125,0.0959058403968811,0.6017022728919983,-0.9334021210670471
1733404711746021400,5.915021484375,0.03176499158143997,0.4746423065662384,-0.6023131608963013
1733404711756053000,5.925052978515625,-0.0403171069920063,0.32559117674827576,-0.3646865487098694
1733404711766040800,5.935040771484375,-0.12217304855585098,0.14844025671482086,-0.1472185254096985
1733404711776042000,5.9450419921875,-0.1722639948129654,-0.012217304669320583,0.016493361443281174
1733404711786029800,5.95502978515625,-0.18325957655906677,-0.12339477986097336,0.11667526513338089
1733404711796061000,5.96506103515625,-0.1771509200334549,-0.14905111491680145,0.1417207419872284
1733404711806018800,5.975018798828125,-0.15577064454555511,-0.13500121235847473,0.09651670604944229
1733404711816050200,5.98505029296875,-0.09407325088977814,-0.07819075137376785,-0.04398229718208313
1733404711826038500,5.99503857421875,-0.03848451003432274,-0.022602014243602753,-0.14294247329235077
1733404711836039000,6.005038818359375,0.02321287989616394,0.04642575979232788,-0.21319197118282318
1733404711846027500,6.015027587890625,0.07513642311096191,0.09712757170200348,-0.2382374405860901
1733404711856058000,6.02505810546875,0.10384709388017654,0.11362093687057495,-0.21991148591041565
1733404711866016500,6.0350166015625,0.11423180252313614,0.10323622822761536,-0.1661553531885147
1733404711876047000,6.045047119140625,0.11545353382825851,0.06719517707824707,-0.09040805697441101
1733404711886036000,6.055035888671875,0.1160643994808197,0.021380282938480377,0.019547687843441963
1733404711896036400,6.065036376953125,0.12950342893600464,0.001832595793530345,0.06841690838336945
1733404711906025000,6.07502490234375,0.13927727937698364,0.0024434609804302454,0.08857546001672745
1733404711916055800,6.085055908203125,0.13561208546161652,0.005497787147760391,0.07757988572120667
1733404711926014200,6.09501416015625,0.13377949595451355,0.012828170321881771,0.04153883829712868
1733404711936045000,6.105045166015625,0.1417207419872284,0.036041051149368286,-0.00427605677396059
1733404711946033700,6.11503369140625,0.15027284622192383,0.07391469180583954,-0.036041051149368286
1733404711956034300,6.125034423828125,0.15577064454555511,0.12217304855585098,-0.04764748737215996
1733404711966023000,6.13502294921875,0.16920967400074005,0.1722639948129654,-0.027488935738801956
1733404711976053500,6.145053466796875,0.1722639948129654,0.16920967400074005,0.00427605677396059
1733404711986042000,6.1550419921875,0.17348572611808777,0.14477506279945374,0.03848451003432274
1733404711996042500,6.16504248046875,0.18081611394882202,0.10567969083786011,0.0659734457731247
1733404712006031000,6.175031005859375,0.16859880089759827,0.05314527451992035,0.07330382615327835
1733404712016062200,6.185062255859375,0.14049901068210602,-0.018325956538319588,0.05497787147760391
1733404712026020000,6.19502001953125,0.09773843735456467,-0.09468411654233932,0.001832595793530345
1733404712036051200,6.20505126953125,0.005497787147760391,-0.18387043476104736,-0.12767083942890167
1733404712046039800,6.215039794921875,-0.059864792972803116,-0.22052235901355743,-0.20341812074184418
1733404712056041000,6.225041015625,-0.12400564551353455,-0.25106561183929443,-0.22296582162380219
1733404712066028800,6.23502880859375,-0.1661553531885147,-0.26572638750076294,-0.17409659922122955
1733404712076059400,6.245059326171875,-0.16920967400074005,-0.24495697021484375,-0.06291911751031876
1733404712086017500,6.255017578125,-0.12339477986097336,-0.19425514340400696,0.0806342139840126
1733404712096048600,6.265048583984375,-0.024434609338641167,-0.15027284622192383,0.19792033731937408
1733404712106037200,6.275037353515625,0.18020524084568024,-0.05253441259264946,0.2474004179239273
1733404712116036000,6.2850361328125,0.2816088795661926,0.029932396486401558,0.192422553896904
1733404712126025200,6.295025146484375,0.3170390725135803,0.06902777403593063,0.0959058403968811
1733404712136056300,6.305056396484375,0.32681289315223694,0.08552113175392151,-0.013439035043120384
1733404712146014500,6.315014404296875,0.30604347586631775,0.06963863968849182,-0.12217304855585098
1733404712156046000,6.325046142578125,0.2590068578720093,0.018936822190880775,-0.23029619455337524
1733404712166034000,6.335033935546875,0.18570303916931152,-0.03237585723400116,-0.3384193480014801
1733404712176034800,6.345034912109375,0.09407325088977814,-0.08124507963657379,-0.4190535545349121
1733404712186023000,6.35502294921875,-0.009773843921720982,-0.08002334833145142,-0.34697145223617554
1733404712196054300,6.36505419921875,-0.04642575979232788,0.012828170321881771,-0.1215621829032898
1733404712206012000,6.375011962890625,-0.08674286305904388,0.1014036312699318,0.22418753802776337
1733404712216044300,6.385044189453125,-0.03298672288656235,0.12889257073402405,0.6334672570228577
1733404712226032400,6.395032470703125,0.0959058403968811,0.1820378452539444,1.0311405658721924
1733404712236062500,6.4050625,0.251676470041275,0.26939156651496887,1.3823879957199097
1733404712246021400,6.415021484375,0.40683624148368835,0.32620203495025635,1.6126842498779297
1733404712256053800,6.4250537109375,0.6065891981124878,0.32681289315223694,1.6029103994369507
1733404712266040800,6.435040771484375,0.6627888083457947,0.27550023794174194,1.367727279663086
1733404712276042800,6.445042724609375,0.6401867866516113,0.1771509200334549,1.0012081861495972
1733404712286029800,6.45502978515625,0.5577199459075928,0.015271631069481373,0.5674937963485718
1733404712296062500,6.4650625,0.45875978469848633,-0.17776179313659668,0.12278391420841217
1733404712306018800,6.475018798828125,0.33719760179519653,-0.36163222789764404,-0.2926044464111328
1733404712316050400,6.485050537109375,0.23945917189121246,-0.4691445231437683,-0.6224716901779175
1733404712326038500,6.49503857421875,0.1508837193250656,-0.4612032473087311,-0.9443976879119873
1733404712336039400,6.505039306640625,0.1258382350206375,-0.35552358627319336,-1.0580185651779175
1733404712346027500,6.515027587890625,0.1362229436635971,-0.22968533635139465,-1.073290228843689
1733404712356059000,6.525058837890625,0.15577064454555511,-0.0708603709936142,-0.9847147464752197
1733404712366016500,6.5350166015625,0.17043140530586243,0.05619960278272629,-0.7941248416900635
1733404712376048000,6.545048095703125,0.16493362188339233,0.10506882518529892,-0.5320636034011841
1733404712386036200,6.5550361328125,0.14538592100143433,0.06352998316287994,-0.2571742534637451
1733404712396036900,6.565036865234375,0.12339477986097336,-0.02932153269648552,-0.031154127791523933
1733404712406025000,6.57502490234375,0.10323622822761536,-0.17348572611808777,0.15943582355976105
1733404712416056600,6.585056640625,0.09957103431224823,-0.23396138846874237,0.19975294172763824
1733404712426014000,6.595013916015625,0.1007927656173706,-0.27550023794174194,0.2119702398777008
1733404712436044800,6.605044921875,0.10690141469240189,-0.29138273000717163,0.19853121042251587
1733404712446033700,6.61503369140625,0.13377949595451355,-0.27977627515792847,0.15943582355976105
1733404712456034000,6.625033935546875,0.192422553896904,-0.2535090744495392,0.12950342893600464
1733404712466022700,6.635022705078125,0.2535090744495392,-0.21868975460529327,0.07880161702632904
1733404712476053800,6.6450537109375,0.3237585723400116,-0.14477506279945374,-0.02382374368607998
1733404712486042000,6.6550419921875,0.3274237811565399,-0.10690141469240189,-0.0659734457731247
1733404712496042500,6.66504248046875,0.30604347586631775,-0.09651670604944229,-0.08246681094169617
1733404712506031000,6.675031005859375,0.2626720666885376,-0.0861319974064827,-0.07269296050071716
1733404712516062700,6.685062744140625,0.20402899384498596,-0.09285151958465576,-0.03298672288656235
1733404712526020000,6.69502001953125,0.14538592100143433,-0.09651670604944229,0.033597588539123535
1733404712536051700,6.7050517578125,0.07819075137376785,-0.10690141469240189,0.11545353382825851
1733404712546039800,6.715039794921875,-0.027488935738801956,-0.15515977144241333,0.22479841113090515
1733404712556041000,6.725041015625,-0.09529497474431992,-0.19914206862449646,0.2583959996700287
1733404712566028800,6.73502880859375,-0.14966198801994324,-0.23151792585849762,0.24190263450145721
1733404712576059400,6.745059326171875,-0.1814269721508026,-0.2376265823841095,0.19486601650714874
1733404712586017500,6.755017578125,-0.1875356286764145,-0.19303341209888458,0.1368338167667389
1733404712596048600,6.765048583984375,-0.1661553531885147,-0.1215621829032898,0.08124507963657379
1733404712606037200,6.775037353515625,-0.11789698898792267,-0.04581489413976669,0.042760565876960754
1733404712616038000,6.785037841796875,-0.07330382615327835,0.015271631069481373,0.02932153269648552
1733404712626026200,6.795026123046875,-0.04214970022439957,0.036041051149368286,0.028099801391363144
1733404712636057300,6.805057373046875,-0.036041051149368286,0.00366519158706069,0.031154127791523933
1733404712646015500,6.815015380859375,-0.036651913076639175,-0.06108652427792549,0.03237585723400116
1733404712656046000,6.825046142578125,-0.048258353024721146,-0.11545353382825851,0.039095375686883926
1733404712666034700,6.83503466796875,-0.06719517707824707,-0.1667662113904953,0.04948008432984352
1733404712676035000,6.84503515625,-0.08857546001672745,-0.22113321721553802,0.06291911751031876
1733404712686023700,6.855023681640625,-0.12217304855585098,-0.28527405858039856,0.0806342139840126
1733404712696054500,6.865054443359375,-0.21380282938480377,-0.40072759985923767,0.12278391420841217
1733404712706012700,6.8750126953125,-0.2889392673969269,-0.47769662737846375,0.1466076523065567
1733404712716044300,6.885044189453125,-0.3597996234893799,-0.523511528968811,0.15821409225463867
1733404712726032400,6.895032470703125,-0.4343251883983612,-0.5125159621238708,0.17592918872833252
1733404712736063700,6.905063720703125,-0.513737678527832,-0.44226643443107605,0.21319197118282318
1733404712746021400,6.915021484375,-0.5827654600143433,-0.34208452701568604,0.25045475363731384
1733404712756053000,6.925052978515625,-0.6224716901779175,-0.2675589919090271,0.2626720666885376
1733404712766040800,6.935040771484375,-0.6487388610839844,-0.17409659922122955,0.18509216606616974
1733404712776042000,6.9450419921875,-0.6615670323371887,-0.16859880089759827,0.07208210229873657
1733404712786029800,6.95502978515625,-0.6713408827781677,-0.16004669666290283,-0.05742133408784866
1733404712796061400,6.9650615234375,-0.6768386960029602,-0.13255776464939117,-0.17409659922122955
1733404712806018800,6.975018798828125,-0.6719517707824707,-0.07635815441608429,-0.22846360504627228
1733404712816050700,6.98505078125,-0.6670648455619812,0.00855211354792118,-0.1820378452539444
1733404712826038500,6.99503857421875,-0.6517932415008545,0.10812314599752426,-0.025656340643763542
1733404712836039400,7.005039306640625,-0.616973876953125,0.1918116807937622,0.21930062770843506
1733404712846027500,7.015027587890625,-0.5491678714752197,0.32131510972976685,0.626747727394104
1733404712856059000,7.025058837890625,-0.5015203952789307,0.39156460762023926,0.8411614298820496
1733404712866016500,7.0350166015625,-0.44715335965156555,0.3982841372489929,0.9627236127853394
1733404712876047400,7.04504736328125,-0.41172316670417786,0.342695415019989,0.969443142414093
1733404712886036000,7.055035888671875,-0.4141666293144226,0.22846360504627228,0.8662069439888
1733404712896035800,7.065035888671875,-0.43127086758613586,0.08124507963657379,0.6768386960029602
1733404712906025000,7.07502490234375,-0.4447098970413208,-0.05375614017248154,0.423329621553421
1733404712916056300,7.085056396484375,-0.4306600093841553,-0.16982053220272064,-0.02626720629632473
1733404712926014200,7.09501416015625,-0.4001167416572571,-0.16982053220272064,-0.3280346393585205
1733404712936045800,7.1050458984375,-0.36102136969566345,-0.12095131725072861,-0.6065891981124878
1733404712946033700,7.11503369140625,-0.3341432809829712,-0.06169738993048668,-0.8319984674453735
1733404712956034800,7.125034912109375,-0.32070425152778625,0.0012217304902151227,-0.9779952764511108
1733404712966022700,7.135022705078125,-0.313373863697052,0.0659734457731247,-1.0293079614639282
1733404712976054300,7.14505419921875,-0.303600013256073,0.12828169763088226,-0.9834930300712585
1733404712986042400,7.15504248046875,-0.26511552929878235,0.2119702398777008,-0.7764097452163696
1733404712996043300,7.165043212890625,-0.23151792585849762,0.2376265823841095,-0.588874101638794
1733404713006031000,7.175031005859375,-0.20830504596233368,0.22907446324825287,-0.3995058834552765
1733404713016062700,7.185062744140625,-0.18509216606616974,0.20402899384498596,-0.23945917189121246
1733404713026020400,7.195020263671875,-0.15332718193531036,0.17104226350784302,-0.12461651116609573
1733404713036051700,7.2050517578125,-0.11239920556545258,0.14355333149433136,-0.04214970022439957
1733404713046039800,7.215039794921875,-0.06475171446800232,0.11301007121801376,0.009773843921720982
1733404713056040400,7.22504052734375,-0.012217304669320583,0.1007927656173706,0.048258353024721146
1733404713066028800,7.23502880859375,0.06108652427792549,0.11484266817569733,0.08918632566928864
1733404713076060400,7.245060302734375,0.09651670604944229,0.16493362188339233,0.10690141469240189
1733404713086017500,7.255017578125,0.11728613078594208,0.19364428520202637,0.11545353382825851
1733404713096049200,7.265049072265625,0.1270599663257599,0.1869247704744339,0.11362093687057495
1733404713106066000,7.27506591796875,0.13500121235847473,0.14538592100143433,0.09651670604944229
1733404713116036600,7.28503662109375,0.14538592100143433,0.09224065393209457,0.06475171446800232
1733404713126025200,7.295025146484375,0.15821409225463867,0.0507018156349659,0.031154127791523933
1733404713136057000,7.30505712890625,0.1973094791173935,0.03237585723400116,-0.02382374368607998
1733404713146014200,7.31501416015625,0.242513507604599,0.0403171069920063,-0.06108652427792549
1733404713156045800,7.3250458984375,0.31093040108680725,0.05314527451992035,-0.09529497474431992
1733404713166034000,7.335033935546875,0.3933972120285034,0.08674286305904388,-0.11911872029304504
1733404713176034800,7.345034912109375,0.475253164768219,0.13866640627384186,-0.1258382350206375
1733404713186023000,7.35502294921875,0.5485569834709167,0.17776179313659668,-0.12339477986097336
1733404713196054500,7.365054443359375,0.5974262356758118,0.18081611394882202,-0.11972958594560623
1733404713206012000,7.375011962890625,0.6285803318023682,0.1313360333442688,-0.13561208546161652
1733404713216044300,7.385044189453125,0.6298020482063293,0.08124507963657379,-0.14294247329235077
1733404713226032400,7.395032470703125,0.6352998614311218,0.03176499158143997,-0.13744467496871948
1733404713236064000,7.40506396484375,0.6530149579048157,0.019547687843441963,-0.10384709388017654
1733404713246021400,7.415021484375,0.6921103000640869,0.039095375686883926,-0.027488935738801956
1733404713256052700,7.425052734375,0.7391469478607178,0.06536258012056351,0.08491026610136032
1733404713266040800,7.435040771484375,0.7825183868408203,0.0659734457731247,0.22602014243602753
1733404713276042200,7.445042236328125,0.8093964457511902,0.01160643994808197,0.3683517575263977
1733404713286029800,7.45502978515625,0.8283332586288452,-0.10812314599752426,0.523511528968811
1733404713296061400,7.4650615234375,0.8313875794410706,-0.17287486791610718,0.5803219676017761
1733404713306018800,7.475018798828125,0.8203920125961304,-0.19914206862449646,0.6151412725448608
1733404713316050700,7.48505078125,0.8203920125961304,-0.15821409225463867,0.6249151229858398
1733404713326038500,7.49503857421875,0.8338310718536377,-0.07269296050071716,0.607810914516449
1733404713336039700,7.505039794921875,0.8539896011352539,0.08735372871160507,0.5259549617767334
1733404713346027500,7.515027587890625,0.8845328688621521,0.12828169763088226,0.3488040566444397
1733404713356059100,7.52505908203125,0.8808676600456238,0.018325956538319588,0.1014036312699318
1733404713366016500,7.5350166015625,0.8546004891395569,-0.0403171069920063,0.01771509274840355
1733404713376048000,7.545048095703125,0.8118399381637573,-0.11301007121801376,-0.08429940044879913
1733404713386036000,7.555035888671875,0.7709119319915771,-0.1563815027475357,-0.2174680233001709
1733404713396036900,7.565036865234375,0.7367035150527954,-0.11178833991289139,-0.3341432809829712
1733404713406025000,7.57502490234375,0.7092145681381226,0.04153883829712868,-0.3885102868080139
1733404713416056600,7.585056640625,0.7275404930114746,0.2370157092809677,-0.3536909818649292
1733404713426014200,7.59501416015625,0.7745771408081055,0.455705463886261,-0.07024950534105301
1733404713436045600,7.605045654296875,0.8191702961921692,0.5442809462547302,0.24984388053417206
1733404713446033700,7.61503369140625,0.8924741148948669,0.5717698931694031,0.5638286471366882
1733404713456034800,7.625034912109375,0.9810495972633362,0.5546656250953674,0.7757988572120667
1733404713466022400,7.6350224609375,1.0873401165008545,0.5290092825889587,0.8332201838493347
1733404713476053000,7.645052978515625,1.2125675678253174,0.49235737323760986,0.7434229850769043
1733404713486042000,7.6550419921875,1.3084733486175537,0.48685958981513977,0.543059229850769
1733404713496042000,7.6650419921875,1.3726142644882202,0.5222898125648499,0.2742784917354584
1733404713506031000,7.675031005859375,1.4691308736801147,0.5216789245605469,-0.16554448008537292
1733404713516061700,7.685061767578125,1.549154281616211,0.513737678527832,-0.4239404797554016
1733404713526020000,7.69502001953125,1.6303993463516235,0.5174028873443604,-0.6236934065818787
1733404713536050700,7.70505078125,1.718363881111145,0.5155702829360962,-0.7568620443344116
1733404713546039800,7.715039794921875,1.788002610206604,0.5314527750015259,-0.8026769161224365
1733404713556039700,7.725039794921875,1.845423936843872,0.5564982295036316,-0.7635815739631653
1733404713566028800,7.73502880859375,1.8832975625991821,0.5534439086914062,-0.6603453159332275
1733404713576059100,7.74505908203125,1.8857409954071045,0.44593164324760437,-0.423329621553421
1733404713586017500,7.755017578125,1.8588629961013794,0.32131510972976685,-0.2638937830924988
1733404713596048400,7.76504833984375,1.8014415502548218,0.2015855312347412,-0.14294247329235077
1733404713606037000,7.775037109375,1.7336355447769165,0.06902777403593063,-0.07452555745840073
1733404713616037000,7.785037109375,1.665218710899353,-0.001832595793530345,-0.06719517707824707
1733404713626026200,7.795026123046875,1.6102408170700073,-0.022602014243602753,-0.11728613078594208
1733404713636056600,7.805056640625,1.5778648853302002,-0.02076941914856434,-0.18936823308467865
1733404713646015200,7.81501513671875,1.5809192657470703,-0.0012217304902151227,-0.2822197377681732
1733404713656045600,7.825045654296875,1.6187928915023804,0.06352998316287994,-0.28649580478668213
1733404713666034700,7.83503466796875,1.6896532773971558,0.15027284622192383,-0.23457226157188416
1733404713676034600,7.84503466796875,1.786780834197998,0.2278527319431305,-0.13988813757896423
1733404713686023700,7.855023681640625,1.8955148458480835,0.2993239760398865,-0.022602014243602753
1733404713696054000,7.865053955078125,2.0024163722991943,0.35613444447517395,0.08918632566928864
1733404713706012700,7.8750126953125,2.0952677726745605,0.39767327904701233,0.16859880089759827
1733404713716043000,7.88504296875,2.1642956733703613,0.42638394236564636,0.20525072515010834
1733404713726032400,7.895032470703125,2.2290472984313965,0.4550946056842804,0.19486601650714874
1733404713736062700,7.905062744140625,2.250427484512329,0.455705463886261,0.15882496535778046
1733404713746021400,7.915021484375,2.2577579021453857,0.4343251883983612,0.10018189996480942
1733404713756053000,7.925052978515625,2.2602014541625977,0.4056145250797272,0.0354301854968071
1733404713766040800,7.935040771484375,2.2650883197784424,0.3830125033855438,-0.02321287989616394
1733404713776042200,7.945042236328125,2.2766947746276855,0.35674530267715454,-0.07513642311096191
1733404713786030000,7.955030029296875,2.2870795726776123,0.31520646810531616,-0.12278391420841217
1733404713796061400,7.9650615234375,2.308459758758545,0.26633724570274353,-0.20891591906547546
1733404713806018800,7.975018798828125,2.3316726684570312,0.2632829248905182,-0.27000242471694946
1733404713816050400,7.985050537109375,2.3524420261383057,0.29077184200286865,-0.3121521472930908
1733404713826038500,7.99503857421875,2.378098487854004,0.3286454975605011,-0.32986724376678467
1733404713836039400,8.005039306640626,2.4000895023345947,0.35674530267715454,-0.3176499307155609
1733404713846027500,8.015027587890625,2.4159719944000244,0.37568211555480957,-0.27550023794174194
1733404713856059400,8.025059326171874,2.4275784492492676,0.38240164518356323,-0.2125810980796814
1733404713866016500,8.0350166015625,2.41719388961792,0.36713001132011414,-0.08796459436416626
1733404713876048100,8.045048095703125,2.3805418014526367,0.3335324227809906,-0.004886921960860491
1733404713886036000,8.055035888671876,2.323120594024658,0.27977627515792847,0.06658431142568588
1733404713896037000,8.065037109375,2.258368730545044,0.22663100063800812,0.11972958594560623
1733404713906025000,8.07502490234375,2.1838431358337402,0.18570303916931152,0.1569923609495163
1733404713916056800,8.085056884765624,2.0977113246917725,0.13316862285137177,0.18387043476104736
1733404713926014000,8.095013916015626,2.0164661407470703,0.07880161702632904,0.1966986060142517
1733404713936045600,8.105045654296875,1.9529361724853516,0.04459316283464432,0.18936823308467865
1733404713946033700,8.11503369140625,1.8918496370315552,0.05497787147760391,0.13439035415649414
1733404713956034800,8.125034912109374,1.86497163772583,0.0861319974064827,0.0555887371301651
1733404713966022700,8.135022705078125,1.8393152952194214,0.11178833991289139,-0.03787364438176155
1733404713976054300,8.14505419921875,1.8069393634796143,0.13316862285137177,-0.12034045159816742
1733404713986042000,8.1550419921875,1.7745635509490967,0.1368338167667389,-0.1722639948129654
1733404713996042000,8.1650419921875,1.740355134010315,0.12828169763088226,-0.18081611394882202
1733404714006031000,8.175031005859376,1.7067575454711914,0.10506882518529892,-0.1472185254096985
1733404714016061400,8.1850615234375,1.655444860458374,0.05192354694008827,-0.03726277872920036
1733404714026020000,8.19502001953125,1.613295078277588,0.00733038317412138,0.05803219974040985
1733404714036050700,8.20505078125,1.578475832939148,-0.006108652334660292,0.15821409225463867
1733404714046039800,8.215039794921875,1.5619823932647705,0.014049900695681572,0.25473082065582275
1733404714056039700,8.225039794921875,1.5644259452819824,0.07696902006864548,0.33475416898727417
1733404714066028800,8.23502880859375,1.5821410417556763,0.18570303916931152,0.394618958234787
1733404714076059100,8.24505908203125,1.6035212278366089,0.3084869384765625,0.4245513379573822
1733404714086017500,8.255017578125,1.5833626985549927,0.43249258399009705,0.37262779474258423
1733404714096048400,8.26504833984375,1.5338826179504395,0.43737950921058655,0.2773328125476837
1733404714106037200,8.275037353515625,1.463022232055664,0.4043927788734436,0.13866640627384186
1733404714116035800,8.285035888671874,1.3701707124710083,0.3396410644054413,-0.016493361443281174
1733404714126025200,8.295025146484376,1.2492194175720215,0.2431243658065796,-0.1618792861700058
1733404714136055800,8.305055908203125,1.1288789510726929,0.12889257073402405,-0.2681698501110077
1733404714146014200,8.31501416015625,1.0390818119049072,0.0354301854968071,-0.31031954288482666
1733404714156046000,8.325046142578126,0.9896016716957092,-0.009162978269159794,-0.28527405858039856
1733404714166034000,8.335033935546875,0.9804387092590332,0.006108652334660292,-0.14416420459747314
1733404714176034800,8.345034912109375,0.998153805732727,0.042760565876960754,-0.018325956538319588
1733404714186023000,8.35502294921875,1.007927656173706,0.07269296050071716,0.0757472887635231
1733404714196053200,8.36505322265625,0.9999864101409912,0.0959058403968811,0.09957103431224823
1733404714206012200,8.37501220703125,0.9663888216018677,0.10018189996480942,0.04459316283464432
1733404714216043300,8.385043212890626,0.8839219808578491,0.07330382615327835,-0.07269296050071716
1733404714226032400,8.395032470703125,0.7666358947753906,0.006719517521560192,-0.21135938167572021
1733404714236062700,8.405062744140626,0.5766568183898926,-0.11178833991289139,-0.37629300355911255
1733404714246021400,8.415021484375,0.47708576917648315,-0.18448130786418915,-0.4300491213798523
1733404714256053200,8.42505322265625,0.4080579876899719,-0.2541199326515198,-0.44226643443107605
1733404714266040800,8.435040771484376,0.3683517575263977,-0.3072652220726013,-0.4178318381309509
1733404714276041200,8.445041259765626,0.375071257352829,-0.3219259977340698,-0.3842342495918274
1733404714286029800,8.45502978515625,0.4178318381309509,-0.28955012559890747,-0.36651915311813354
1733404714296061200,8.465061279296876,0.4306600093841553,-0.2168571650981903,-0.37140607833862305
1733404714306018800,8.475018798828126,0.41722095012664795,-0.09712757170200348,-0.3952298164367676
1733404714316050700,8.48505078125,0.3530801236629486,0.04153883829712868,-0.4147774875164032
1733404714326038500,8.49503857421875,0.2785545587539673,0.048258353024721146,-0.42699480056762695
1733404714336039400,8.505039306640626,0.1716531366109848,-0.015882495790719986,-0.42210787534713745
1733404714346027500,8.515027587890625,0.0757472887635231,-0.11911872029304504,-0.3897320330142975
1733404714356059000,8.525058837890626,-0.0012217304902151227,-0.20830504596233368,-0.3243694305419922
1733404714366016500,8.5350166015625,-0.06230825558304787,-0.27611109614372253,-0.2168571650981903
1733404714376047400,8.54504736328125,-0.08674286305904388,-0.3084869384765625,-0.08735372871160507
1733404714386036000,8.555035888671876,-0.04948008432984352,-0.27061331272125244,0.10323622822761536
1733404714396036400,8.565036376953126,-0.00733038317412138,-0.2168571650981903,0.19058994948863983
1733404714406025000,8.57502490234375,0.033597588539123535,-0.14538592100143433,0.23396138846874237
1733404714416056000,8.58505615234375,0.0659734457731247,-0.08124507963657379,0.23151792585849762
1733404714426014000,8.595013916015626,0.07880161702632904,-0.05742133408784866,0.17959438264369965
1733404714436045000,8.605045166015625,0.07147123664617538,-0.07024950534105301,0.0861319974064827
1733404714446033700,8.61503369140625,0.04703662544488907,-0.09896016865968704,-0.02687807008624077
1733404714456033800,8.62503369140625,-0.024434609338641167,-0.14416420459747314,-0.17837265133857727
1733404714466023000,8.63502294921875,-0.06719517707824707,-0.15577064454555511,-0.2321287989616394
1733404714476054000,8.645053955078126,-0.10567969083786011,-0.15577064454555511,-0.23090706765651703
1733404714486042000,8.6550419921875,-0.12950342893600464,-0.1563815027475357,-0.17592918872833252
1733404714496042800,8.665042724609375,-0.12950342893600464,-0.11667526513338089,-0.08185594528913498
1733404714506031000,8.675031005859376,-0.1062905490398407,-0.0507018156349659,0.031154127791523933
1733404714516062000,8.68506201171875,-0.07635815441608429,-0.01710422709584236,0.13500121235847473
1733404714526020000,8.69502001953125,-0.05864306539297104,-0.016493361443281174,0.20402899384498596
1733404714536051200,8.70505126953125,-0.04581489413976669,0.009162978269159794,0.22540926933288574
1733404714546039800,8.715039794921875,-0.030543262138962746,0.05253441259264946,0.2021963894367218
1733404714556040400,8.72504052734375,-0.00366519158706069,0.10873401165008545,0.1716531366109848
1733404714566028800,8.73502880859375,0.03848451003432274,0.1472185254096985,0.14294247329235077
1733404714576059400,8.745059326171875,0.08857546001672745,0.16432274878025055,0.11239920556545258
1733404714586017500,8.755017578125,0.12217304855585098,0.18570303916931152,0.06780604273080826
1733404714596048600,8.765048583984376,0.12278391420841217,0.22357667982578278,0.01771509274840355
1733404714606037000,8.775037109375,0.08429940044879913,0.2590068578720093,-0.05375614017248154
1733404714616037400,8.785037353515625,0.036651913076639175,0.24007004499435425,-0.0757472887635231
1733404714626026200,8.795026123046876,-0.0354301854968071,0.2076941877603531,-0.06352998316287994
1733404714636057900,8.805057861328125,-0.12034045159816742,0.18631389737129211,-0.01160643994808197
1733404714646015200,8.81501513671875,-0.18509216606616974,0.18387043476104736,0.07757988572120667
1733404714656046000,8.825046142578126,-0.22540926933288574,0.17409659922122955,0.19058994948863983
1733404714666034700,8.83503466796875,-0.24373523890972137,0.1661553531885147,0.30115658044815063
1733404714676035000,8.84503515625,-0.23945917189121246,0.1716531366109848,0.42088615894317627
1733404714686023700,8.855023681640626,-0.21441370248794556,0.18570303916931152,0.45326200127601624
1733404714696054800,8.8650546875,-0.1765400618314743,0.21074850857257843,0.4453207552433014
1733404714706012700,8.8750126953125,-0.1264491081237793,0.26022860407829285,0.4050036668777466
1733404714716043800,8.885043701171876,-0.07208210229873657,0.34574973583221436,0.3390302062034607
1733404714726032400,8.895032470703125,-0.01771509274840355,0.47342056035995483,0.2583959996700287
1733404714736063500,8.9050634765625,0.02321287989616394,0.616973876953125,0.16798794269561768
1733404714746021400,8.915021484375,0.051312681287527084,0.7318165898323059,0.06719517707824707
1733404714756052200,8.92505224609375,0.04886921867728233,0.7586946487426758,-0.0806342139840126
1733404714766040800,8.935040771484376,0.014049900695681572,0.6591235995292664,-0.15577064454555511
1733404714776041200,8.945041259765626,-0.06169738993048668,0.47708576917648315,-0.2070833146572113
1733404714786030000,8.955030029296875,-0.16371189057826996,0.24862214922904968,-0.22968533635139465
1733404714796060700,8.965060791015626,-0.26511552929878235,0.021991148591041565,-0.22479841113090515
1733404714806018800,8.975018798828126,-0.34086281061172485,-0.15882496535778046,-0.19975294172763824
1733404714816050200,8.98505029296875,-0.3891211748123169,-0.27061331272125244,-0.16737708449363708
1733404714826038500,8.99503857421875,-0.4196644127368927,-0.34758231043815613,-0.1368338167667389
1733404714836039200,9.0050390625,-0.4184426963329315,-0.3488040566444397,-0.12400564551353455
1733404714846027500,9.015027587890625,-0.40256020426750183,-0.3280346393585205,-0.09957103431224823
1733404714856059000,9.025058837890626,-0.37568211555480957,-0.30604347586631775,-0.07330382615327835
1733404714866016500,9.0350166015625,-0.33169981837272644,-0.2742784917354584,-0.03848451003432274
1733404714876047600,9.045047607421875,-0.2828305959701538,-0.23029619455337524,0.00427605677396059
1733404714886036000,9.055035888671876,-0.23090706765651703,-0.182648703455925,0.05375614017248154
1733404714896036600,9.06503662109375,-0.17043140530586243,-0.12217304855585098,0.13011430203914642
1733404714906025000,9.07502490234375,-0.14538592100143433,-0.11178833991289139,0.17470745742321014
1733404714916056000,9.08505615234375,-0.13439035415649414,-0.13744467496871948,0.21319197118282318
1733404714926014200,9.09501416015625,-0.13744467496871948,-0.1814269721508026,0.252287358045578
1733404714936045000,9.105045166015625,-0.16310101747512817,-0.2119702398777008,0.2981022298336029
1733404714946033700,9.11503369140625,-0.19425514340400696,-0.22968533635139465,0.3445279896259308
1733404714956034000,9.125033935546876,-0.21624629199504852,-0.25045475363731384,0.37262779474258423
1733404714966023000,9.13502294921875,-0.23579397797584534,-0.2779437005519867,0.3744603991508484
1733404714976053800,9.1450537109375,-0.2583959996700287,-0.3139847218990326,0.3341432809829712
1733404714986042400,9.15504248046875,-0.24678955972194672,-0.32070425152778625,0.29993483424186707
1733404714996042500,9.16504248046875,-0.2070833146572113,-0.30115658044815063,0.2675589919090271
1733404715006031000,9.175031005859376,-0.15515977144241333,-0.2626720666885376,0.24007004499435425
1733404715016062200,9.185062255859375,-0.11362093687057495,-0.22907446324825287,0.2021963894367218
1733404715026020000,9.19502001953125,-0.0861319974064827,-0.21074850857257843,0.1368338167667389
1733404715036051700,9.2050517578125,-0.07024950534105301,-0.19303341209888458,0.05742133408784866
1733404715046039800,9.215039794921875,-0.05314527451992035,-0.13866640627384186,-0.06658431142568588
1733404715056040700,9.225040771484375,-0.05497787147760391,-0.08918632566928864,-0.12461651116609573
1733404715066028800,9.23502880859375,-0.06230825558304787,-0.03787364438176155,-0.14844025671482086
1733404715076060400,9.245060302734375,-0.07208210229873657,0.018936822190880775,-0.11850785464048386
1733404715086017500,9.255017578125,-0.09224065393209457,0.06169738993048668,-0.031154127791523933
1733404715096049700,9.265049560546874,-0.1160643994808197,0.09224065393209457,0.1111774742603302
1733404715106062600,9.2750625,-0.14416420459747314,0.10445795953273773,0.2871066629886627
1733404715116036600,9.28503662109375,-0.2064724564552307,0.09651670604944229,0.5497786998748779
1733404715126025200,9.295025146484376,-0.2583959996700287,0.10018189996480942,0.7086036801338196
1733404715136056800,9.305056884765625,-0.3078760802745819,0.08979719132184982,0.8491026759147644
1733404715146014500,9.315014404296875,-0.35674530267715454,0.07208210229873657,0.9590584635734558
1733404715156044800,9.325044921875,-0.4050036668777466,0.05375614017248154,1.0329731702804565
1733404715166034000,9.335033935546875,-0.4544837474822998,0.012217304669320583,1.0433578491210938
1733404715176033500,9.345033447265624,-0.5051855444908142,-0.0354301854968071,0.9957103729248047
1733404715186023000,9.35502294921875,-0.5528330206871033,-0.06841690838336945,0.8973610401153564
1733404715196053200,9.36505322265625,-0.5870414972305298,-0.07269296050071716,0.6884451508522034
1733404715206012000,9.375011962890625,-0.5864306092262268,-0.05925392732024193,0.5076290369033813
1733404715216043300,9.385043212890626,-0.5656611919403076,-0.036651913076639175,0.2993239760398865
1733404715226032400,9.395032470703125,-0.5222898125648499,-0.031154127791523933,0.0708603709936142
1733404715236063500,9.4050634765625,-0.46853363513946533,-0.06108652427792549,-0.15271630883216858
1733404715246021400,9.415021484375,-0.413555771112442,-0.12828169763088226,-0.35246923565864563
1733404715256053000,9.425052978515625,-0.37568211555480957,-0.21441370248794556,-0.5229006409645081
1733404715266040800,9.435040771484376,-0.36529740691185,-0.323147714138031,-0.6896668672561646
1733404715276042000,9.4450419921875,-0.3695734739303589,-0.3952298164367676,-0.7434229850769043
1733404715286029800,9.45502978515625,-0.3689626157283783,-0.46303585171699524,-0.7562511563301086
1733404715296061400,9.4650615234375,-0.35552358627319336,-0.4697553813457489,-0.7391469478607178
1733404715306018800,9.475018798828126,-0.34513887763023376,-0.44593164324760437,-0.6896668672561646
1733404715316050400,9.485050537109375,-0.3500257730484009,-0.41172316670417786,-0.6035348773002625
1733404715326038500,9.49503857421875,-0.37751471996307373,-0.394008070230484,-0.484416127204895
1733404715336039400,9.505039306640626,-0.46792277693748474,-0.3842342495918274,-0.2877175211906433
1733404715346027500,9.515027587890625,-0.5418374538421631,-0.42088615894317627,-0.16859880089759827
1733404715356058600,9.52505859375,-0.6200281977653503,-0.4740314185619354,-0.06291911751031876
1733404715366016500,9.5350166015625,-0.6957755088806152,-0.5265658497810364,0.015271631069481373
1733404715376047600,9.545047607421875,-0.7635815739631653,-0.5650503635406494,0.05864306539297104
1733404715386036200,9.5550361328125,-0.8148942589759827,-0.5791002511978149,0.07208210229873657
1733404715396036600,9.56503662109375,-0.8387179970741272,-0.5626068711280823,0.06780604273080826
1733404715406025000,9.57502490234375,-0.8301658630371094,-0.513126790523529,0.0555887371301651
1733404715416056300,9.585056396484376,-0.7562511563301086,-0.3842342495918274,0.048258353024721146
1733404715426014000,9.595013916015626,-0.6701191663742065,-0.2974913716316223,0.05742133408784866
1733404715436045000,9.605045166015625,-0.5583308339118958,-0.22418753802776337,0.06475171446800232
1733404715446033700,9.61503369140625,-0.43615779280662537,-0.1563815027475357,0.05619960278272629
1733404715456034300,9.625034423828126,-0.31642818450927734,-0.0910189226269722,0.02076941914856434
1733404715466022400,9.6350224609375,-0.21930062770843506,-0.04764748737215996,-0.045204028487205505
1733404715476053800,9.6450537109375,-0.15515977144241333,-0.02015855349600315,-0.12339477986097336
1733404715486042000,9.6550419921875,-0.09651670604944229,0.00366519158706069,-0.23579397797584534
1733404715496042500,9.66504248046875,-0.0708603709936142,0.021380282938480377,-0.2919935882091522
1733404715506031000,9.675031005859376,-0.048258353024721146,0.07269296050071716,-0.32498031854629517
1733404715516062000,9.68506201171875,-0.02382374368607998,0.1459967941045761,-0.3274237811565399
1733404715526020000,9.69502001953125,0.004886921960860491,0.2528982162475586,-0.28038713335990906
1733404715536051000,9.705051025390626,0.04153883829712868,0.3640756905078888,-0.18325957655906677
1733404715546039800,9.715039794921875,0.08796459436416626,0.45692721009254456,-0.03420845419168472
1733404715556040400,9.72504052734375,0.18509216606616974,0.6065891981124878,0.25045475363731384
1733404715566028800,9.73502880859375,0.2370157092809677,0.626747727394104,0.44165557622909546
1733404715576059600,9.7450595703125,0.24556782841682434,0.5974262356758118,0.5815436840057373
1733404715586017500,9.755017578125,0.2174680233001709,0.5400048494338989,0.6377432942390442
1733404715596048600,9.765048583984376,0.14416420459747314,0.4495968222618103,0.5955936312675476
1733404715606037000,9.775037109375,0.012217304669320583,0.29626965522766113,0.45875978469848633
1733404715616037600,9.78503759765625,-0.15515977144241333,0.10567969083786011,0.2638937830924988
1733404715626026200,9.795026123046876,-0.28466320037841797,-0.07024950534105301,0.06352998316287994
1733404715636057300,9.805057373046875,-0.2822197377681732,-0.24068090319633484,-0.13805554807186127
1733404715646015200,9.81501513671875,-0.18325957655906677,-0.27977627515792847,-0.1966986060142517
1733404715656046000,9.825046142578126,-0.04214970022439957,-0.26939156651496887,-0.22479841113090515
1733404715666034700,9.83503466796875,0.11484266817569733,-0.1966986060142517,-0.23518311977386475
1733404715676035300,9.845035400390625,0.24923302233219147,-0.09040805697441101,-0.23884831368923187
1733404715686023700,9.855023681640626,0.34574973583221436,-0.013439035043120384,-0.25961771607398987
1733404715696054800,9.8650546875,0.39767327904701233,0.01771509274840355,-0.30543261766433716
1733404715706012700,9.8750126953125,0.36224308609962463,-0.024434609338641167,-0.4349360466003418
1733404715716043500,9.88504345703125,0.26450464129447937,-0.09651670604944229,-0.5607742667198181
1733404715726032400,9.895032470703125,0.14538592100143433,-0.18875735998153687,-0.6951646208763123
1733404715736063700,9.905063720703126,0.03176499158143997,-0.27000242471694946,-0.7941248416900635
1733404715746021400,9.915021484375,-0.06475171446800232,-0.3341432809829712,-0.8387179970741272
1733404715756053000,9.925052978515625,-0.13561208546161652,-0.3591887652873993,-0.7764097452163696
1733404715766040800,9.935040771484376,-0.1661553531885147,-0.32498031854629517,-0.5632177591323853
1733404715776042000,9.9450419921875,-0.10934487730264664,-0.2382374405860901,0.06352998316287994
1733404715786029800,9.95502978515625,-0.03481931984424591,-0.21013765037059784,0.6139195561408997
1733404715796061400,9.9650615234375,0.04581489413976669,-0.21441370248794556,1.1410962343215942
1733404715806018800,9.975018798828126,0.13805554807186127,-0.21013765037059784,1.5515977144241333
1733404715816049200,9.985049072265625,0.23457226157188416,-0.2223549485206604,1.7690657377243042
1733404715826038500,9.99503857421875,0.33047810196876526,-0.2431243658065796,1.7843374013900757
1733404715836040400,10.00504052734375,0.4050036668777466,-0.23579397797584534,1.6200146675109863
1733404715846027500,10.015027587890625,0.44165557622909546,-0.22113321721553802,1.3017538785934448
1733404715856182300,10.025182373046874,0.44226643443107605,-0.2321287989616394,0.6377432942390442
1733404715866016500,10.0350166015625,0.4001167416572571,-0.2577851414680481,0.19608774781227112
1733404715876047600,10.045047607421875,0.3237585723400116,-0.25961771607398987,-0.17043140530586243
1733404715886036000,10.055035888671876,0.24923302233219147,-0.24495697021484375,-0.40072759985923767
1733404715896037000,10.065037109375,0.182648703455925,-0.2015855312347412,-0.4917465150356293
1733404715906025000,10.07502490234375,0.13255776464939117,-0.13316862285137177,-0.46731191873550415
1733404715916056600,10.085056640625,0.10323622822761536,-0.09224065393209457,-0.3683517575263977
1733404715926014000,10.095013916015626,0.09224065393209457,-0.05375614017248154,-0.18936823308467865
1733404715936045600,10.105045654296875,0.10445795953273773,-0.03726277872920036,-0.0910189226269722
1733404715946033700,10.11503369140625,0.1215621829032898,-0.01038470957428217,-0.022602014243602753
1733404715956034800,10.125034912109374,0.1417207419872284,0.027488935738801956,0.02382374368607998
1733404715966022700,10.135022705078125,0.16798794269561768,0.05619960278272629,0.06230825558304787
1733404715976053500,10.145053466796876,0.20341812074184418,0.04948008432984352,0.09162978827953339
1733404715986042000,10.1550419921875,0.24617868661880493,0.01771509274840355,0.11178833991289139
1733404715996042800,10.165042724609375,0.29138273000717163,-0.022602014243602753,0.12095131725072861
1733404716006031000,10.175031005859376,0.304210901260376,-0.054367005825042725,0.09224065393209457
1733404716016062200,10.185062255859375,0.3078760802745819,-0.09346238523721695,0.03237585723400116
1733404716026020000,10.19502001953125,0.2932153046131134,-0.0861319974064827,-0.05314527451992035
1733404716036051500,10.205051513671876,0.25961771607398987,-0.08368854224681854,-0.1459967941045761
1733404716046039800,10.215039794921875,0.21563543379306793,-0.05253441259264946,-0.2278527319431305
1733404716056040200,10.225040283203125,0.1722639948129654,-0.024434609338641167,-0.2785545587539673
1733404716066028800,10.23502880859375,0.1313360333442688,-0.009773843921720982,-0.29077184200286865
1733404716076059600,10.2450595703125,0.07024950534105301,-0.006108652334660292,-0.2376265823841095
1733404716086017800,10.255017822265625,0.04153883829712868,-0.015882495790719986,-0.17592918872833252
1733404716096049000,10.265048828125,0.02871066704392433,-0.03298672288656235,-0.11789698898792267
1733404716106037200,10.275037353515625,0.03237585723400116,-0.04337143152952194,-0.08246681094169617
1733404716116036000,10.2850361328125,0.05619960278272629,-0.03176499158143997,-0.06780604273080826
1733404716126025200,10.295025146484376,0.08368854224681854,-0.004886921960860491,-0.06780604273080826
1733404716136056300,10.305056396484375,0.10323622822761536,0.010995574295520782,-0.07819075137376785
1733404716146014500,10.315014404296875,0.11423180252313614,0.005497787147760391,-0.07696902006864548
1733404716156045600,10.325045654296876,0.10567969083786011,-0.016493361443281174,-0.05009094998240471
1733404716166034000,10.335033935546875,0.08002334833145142,-0.06414084881544113,-0.005497787147760391
1733404716176034600,10.34503466796875,0.03481931984424591,-0.11545353382825851,0.04581489413976669
1733404716186023000,10.35502294921875,-0.015882495790719986,-0.1612684279680252,0.09162978827953339
1733404716196053800,10.3650537109375,-0.05619960278272629,-0.18081611394882202,0.1270599663257599
1733404716206012200,10.37501220703125,-0.07452555745840073,-0.17592918872833252,0.152105450630188
1733404716216043800,10.385043701171876,-0.0757472887635231,-0.13255776464939117,0.16737708449363708
1733404716226032400,10.395032470703125,-0.06658431142568588,-0.08674286305904388,0.1716531366109848
1733404716236063200,10.405063232421876,-0.051312681287527084,-0.06536258012056351,0.1765400618314743
1733404716246021400,10.415021484375,-0.042760565876960754,-0.060475658625364304,0.18448130786418915
1733404716256052200,10.42505224609375,-0.04764748737215996,-0.07391469180583954,0.18631389737129211
1733404716266040800,10.435040771484376,-0.0708603709936142,-0.09407325088977814,0.16737708449363708
1733404716276041200,10.445041259765626,-0.10506882518529892,-0.1417207419872284,0.12278391420841217
1733404716286029800,10.45502978515625,-0.16859880089759827,-0.20586158335208893,0.07391469180583954
1733404716296060700,10.465060791015626,-0.27061331272125244,-0.29077184200286865,0.03298672288656235
1733404716306018800,10.475018798828126,-0.31031954288482666,-0.3292563557624817,0.0555887371301651
1733404716316050000,10.4850498046875,-0.3243694305419922,-0.3500257730484009,0.12461651116609573
1733404716326038500,10.49503857421875,-0.30970868468284607,-0.3396410644054413,0.2021963894367218
1733404716336039000,10.505038818359376,-0.2590068578720093,-0.29077184200286865,0.24068090319633484
1733404716346027500,10.515027587890625,-0.18814650177955627,-0.19364428520202637,0.2125810980796814
1733404716356059100,10.52505908203125,-0.1411098688840866,-0.05192354694008827,0.13072516024112701
1733404716366016500,10.5350166015625,-0.09407325088977814,0.192422553896904,0.036041051149368286
1733404716376048000,10.545048095703125,-0.07819075137376785,0.32559117674827576,0.10934487730264664
1733404716386036000,10.555035888671876,-0.07208210229873657,0.40256020426750183,0.30970868468284607
1733404716396036900,10.565036865234376,-0.08124507963657379,0.3646865487098694,0.5803219676017761
1733404716406025000,10.57502490234375,-0.11545353382825851,0.25534167885780334,0.8546004891395569
1733404716416056600,10.585056640625,-0.20952677726745605,0.08185594528913498,1.054964303970337
1733404716426014000,10.595013916015626,-0.3280346393585205,-0.11972958594560623,1.129489779472351
1733404716436044000,10.6050439453125,-0.47342056035995483,-0.3628539443016052,1.0109820365905762
1733404716446033700,10.61503369140625,-0.5204572081565857,-0.45326200127601624,0.8106181621551514
1733404716456033300,10.625033203125,-0.5222898125648499,-0.44715335965156555,0.5577199459075928
1733404716466022700,10.635022705078125,-0.47708576917648315,-0.35063666105270386,0.2742784917354584
1733404716476053800,10.6450537109375,-0.3830125033855438,-0.1918116807937622,-0.02871066704392433
1733404716486042000,10.6550419921875,-0.251676470041275,0.05009094998240471,-0.33536502718925476
1733404716496042200,10.665042236328125,-0.11850785464048386,0.29016098380088806,-0.6163630485534668
1733404716506031000,10.675031005859376,-0.021991148591041565,0.44593164324760437,-0.8484918475151062
1733404716516062500,10.6850625,0.06230825558304787,0.5479460954666138,-1.0256427526474
1733404716526020400,10.695020263671875,0.07635815441608429,0.5351179838180542,-1.0115928649902344
1733404716536051700,10.7050517578125,0.06902777403593063,0.4911356568336487,-0.911410927772522
1733404716546039800,10.715039794921875,0.048258353024721146,0.4196644127368927,-0.7641924023628235
1733404716556040700,10.725040771484375,0.015271631069481373,0.3182607889175415,-0.5931501388549805
1733404716566028800,10.73502880859375,-0.025045474991202354,0.2015855312347412,-0.4105014503002167
1733404716576060200,10.74506005859375,-0.06352998316287994,0.08124507963657379,-0.23029619455337524
1733404716586017500,10.755017578125,-0.09957103431224823,-0.07208210229873657,-0.02626720629632473
1733404716596048600,10.765048583984376,-0.11911872029304504,-0.14416420459747314,0.031154127791523933
1733404716606037200,10.775037353515625,-0.13500121235847473,-0.17837265133857727,0.036651913076639175
1733404716616037600,10.78503759765625,-0.1411098688840866,-0.18020524084568024,0.00366519158706069
1733404716626026200,10.795026123046876,-0.13866640627384186,-0.16554448008537292,-0.04337143152952194
1733404716636057300,10.805057373046875,-0.13072516024112701,-0.13561208546161652,-0.08124507963657379
1733404716646015200,10.81501513671875,-0.11301007121801376,-0.09834930300712585,-0.08674286305904388
1733404716656046600,10.825046630859376,-0.07880161702632904,-0.05864306539297104,-0.03298672288656235
1733404716666034700,10.83503466796875,-0.059864792972803116,-0.0555887371301651,0.014049900695681572
1733404716676035300,10.845035400390625,-0.0403171069920063,-0.05864306539297104,0.04886921867728233
1733404716686023700,10.855023681640626,-0.025656340643763542,-0.07269296050071716,0.05925392732024193
1733404716696054800,10.8650546875,-0.021380282938480377,-0.09162978827953339,0.04092797264456749
1733404716706013000,10.875012939453125,-0.01710422709584236,-0.10262536257505417,-0.006108652334660292
1733404716716043800,10.885043701171876,-0.021380282938480377,-0.10506882518529892,-0.0757472887635231
1733404716726032400,10.895032470703125,-0.030543262138962746,-0.0959058403968811,-0.1466076523065567
1733404716736063500,10.9050634765625,-0.02076941914856434,-0.029932396486401558,-0.22296582162380219
1733404716746021400,10.915021484375,0.0024434609804302454,0.03787364438176155,-0.2480112910270691
1733404716756052200,10.92505224609375,0.036041051149368286,0.09957103431224823,-0.24984388053417206
1733404716766040800,10.935040771484376,0.06414084881544113,0.13805554807186127,-0.2119702398777008
1733404716776041200,10.945041259765626,0.07147123664617538,0.1814269721508026,-0.14294247329235077
1733404716786030000,10.955030029296875,0.06352998316287994,0.21502456068992615,-0.056810468435287476
1733404716796060700,10.965060791015626,0.05009094998240471,0.22602014243602753,0.02871066704392433
1733404716806018800,10.975018798828126,0.022602014243602753,0.17104226350784302,0.13316862285137177
1733404716815628500,10.984628662109374,-0.016493361443281174,0.10934487730264664,0.16493362188339233
1733404716825617000,10.994616943359375,-0.06902777403593063,0.04581489413976669,0.15943582355976105
1733404716835617300,11.0046171875,-0.13439035415649414,0.004886921960860491,0.10995574295520782
1733404716845606100,11.014606201171874,-0.21868975460529327,-0.039095375686883926,0.018325956538319588
1733404716855637000,11.024636962890625,-0.30604347586631775,-0.09712757170200348,-0.07819075137376785
1733404716865595000,11.034594970703125,-0.3591887652873993,-0.13927727937698364,-0.1411098688840866
1733404716875626200,11.044626220703124,-0.3341432809829712,-0.14538592100143433,-0.1313360333442688
1733404716885614600,11.054614501953125,-0.2571742534637451,-0.11911872029304504,-0.0659734457731247
1733404716895615200,11.064615234375,-0.14294247329235077,-0.07269296050071716,-0.005497787147760391
1733404716905603600,11.074603515625,-0.031154127791523933,0.00427605677396059,0.025045474991202354
1733404716915634700,11.084634765625,0.04581489413976669,0.09162978827953339,0.03298672288656235
1733404716925592800,11.0945927734375,0.07513642311096191,0.14294247329235077,0.029932396486401558
1733404716935623400,11.10462353515625,0.06169738993048668,0.16249015927314758,0.02076941914856434
1733404716945612300,11.1146123046875,0.010995574295520782,0.14294247329235077,0.001832595793530345
1733404716955612400,11.1246123046875,-0.04948008432984352,0.056810468435287476,-0.045204028487205505
1733404716965601000,11.13460107421875,-0.06902777403593063,0.012828170321881771,-0.10384709388017654
1733404716975632600,11.144632568359375,-0.0806342139840126,-0.004886921960860491,-0.18325957655906677
1733404716985620700,11.154620849609374,-0.10751228034496307,0.01710422709584236,-0.23945917189121246
1733404716995621600,11.16462158203125,-0.16493362188339233,0.056810468435287476,-0.20402899384498596
1733404717005609700,11.174609619140625,-0.2076941877603531,0.10445795953273773,0.010995574295520782
1733404717015641300,11.184641357421874,-0.20036379992961884,0.1362229436635971,0.4141666293144226
1733404717025598700,11.1945986328125,-0.15760323405265808,0.07635815441608429,1.1282681226730347
1733404717035630300,11.20463037109375,-0.08735372871160507,0.005497787147760391,1.5332717895507812
1733404717045618400,11.214618408203124,0.00366519158706069,-0.09957103431224823,1.7812830209732056
1733404717055618000,11.2246181640625,0.08552113175392151,-0.18997909128665924,1.8209892511367798
1733404717065607200,11.234607177734375,0.1508837193250656,-0.2724458873271942,1.6365079879760742
1733404717075639300,11.244639404296874,0.192422553896904,-0.303600013256073,1.2583824396133423
1733404717085596200,11.25459619140625,0.21868975460529327,-0.30054569244384766,0.7373143434524536
1733404717095781400,11.264781494140625,0.23640485107898712,-0.2376265823841095,-0.17409659922122955
1733404717105642500,11.274642578125,0.2370157092809677,-0.14538592100143433,-0.749531626701355
1733404717115614200,11.2846142578125,0.22846360504627228,-0.08429940044879913,-1.2064588069915771
1733404717125603800,11.294603759765625,0.21013765037059784,-0.010995574295520782,-1.4752395153045654
1733404717135635500,11.304635498046874,0.19914206862449646,0.05864306539297104,-1.5308283567428589
1733404717145592800,11.3145927734375,0.18936823308467865,0.09040805697441101,-1.4129313230514526
1733404717155624400,11.32462451171875,0.18631389737129211,0.08246681094169617,-1.1789699792861938
1733404717165612500,11.334612548828124,0.19120082259178162,0.06352998316287994,-0.8790351152420044
1733404717175613400,11.344613525390624,0.19120082259178162,-0.00366519158706069,-0.43127086758613586
1733404717185601500,11.3546015625,0.1661553531885147,-0.06963863968849182,-0.19364428520202637
1733404717195633000,11.3646328125,0.1313360333442688,-0.13072516024112701,-0.03298672288656235
1733404717205590500,11.374590576171874,0.09529497474431992,-0.16310101747512817,0.059864792972803116
1733404717215622100,11.3846220703125,0.06352998316287994,-0.17287486791610718,0.09529497474431992
1733404717225610800,11.39461083984375,0.04703662544488907,-0.16371189057826996,0.10018189996480942
1733404717235641900,11.404641845703125,0.06291911751031876,-0.14355333149433136,0.08979719132184982
1733404717245599700,11.414599853515625,0.12217304855585098,-0.11545353382825851,0.056810468435287476
1733404717255630800,11.424630859375,0.16371189057826996,-0.09468411654233932,0.03298672288656235
1733404717265619500,11.434619384765625,0.192422553896904,-0.0757472887635231,0.01160643994808197
1733404717275620000,11.4446201171875,0.20402899384498596,-0.07819075137376785,0.0012217304902151227
1733404717285608400,11.4546083984375,0.1966986060142517,-0.08491026610136032,-0.001832595793530345
1733404717295639600,11.4646396484375,0.1716531366109848,-0.07635815441608429,0.006719517521560192
1733404717305597400,11.474597412109375,0.13805554807186127,-0.06841690838336945,0.022602014243602753
1733404717315628500,11.484628662109374,0.07635815441608429,-0.06536258012056351,0.06536258012056351
1733404717325617200,11.4946171875,0.03848451003432274,-0.04703662544488907,0.09896016865968704
1733404717335617500,11.504617431640625,0.02076941914856434,-0.01771509274840355,0.1270599663257599
1733404717345606000,11.51460595703125,0.013439035043120384,-0.010995574295520782,0.1472185254096985
1733404717355637000,11.524636962890625,0.00427605677396059,-0.01160643994808197,0.16065755486488342
1733404717365595000,11.534594970703125,-0.01466076634824276,-0.02321287989616394,0.1612684279680252
1733404717375626000,11.5446259765625,-0.039706241339445114,-0.0354301854968071,0.1472185254096985
1733404717385614600,11.554614501953125,-0.08002334833145142,-0.06536258012056351,0.11728613078594208
1733404717395615000,11.564614990234375,-0.12095131725072861,-0.13500121235847473,0.060475658625364304
1733404717405603600,11.574603515625,-0.1319468915462494,-0.15577064454555511,0.03298672288656235
1733404717415634700,11.584634765625,-0.12889257073402405,-0.1618792861700058,0.010995574295520782
1733404717425592600,11.594592529296875,-0.11850785464048386,-0.16920967400074005,-0.006719517521560192
1733404717435623700,11.604623779296874,-0.10201449692249298,-0.17287486791610718,-0.025656340643763542
1733404717445612000,11.614612060546875,-0.08674286305904388,-0.1618792861700058,-0.04642575979232788
1733404717455612400,11.6246123046875,-0.07880161702632904,-0.1417207419872284,-0.05864306539297104
1733404717465601000,11.63460107421875,-0.09162978827953339,-0.15760323405265808,-0.06902777403593063
1733404717475632600,11.644632568359375,-0.12767083942890167,-0.20586158335208893,-0.07208210229873657
1733404717485620700,11.654620849609374,-0.20341812074184418,-0.2736676335334778,-0.07880161702632904
1733404717495621400,11.664621337890624,-0.2889392673969269,-0.3591887652873993,-0.0806342139840126
1733404717505609700,11.674609619140625,-0.3634648323059082,-0.4306600093841553,-0.05253441259264946
1733404717515640600,11.684640625,-0.41722095012664795,-0.4801400899887085,0.003054326167330146
1733404717525598700,11.6945986328125,-0.4453207552433014,-0.5326744914054871,0.06963863968849182
1733404717535629300,11.70462939453125,-0.41599923372268677,-0.5662720799446106,0.1014036312699318
1733404717545618200,11.7146181640625,-0.3481931984424591,-0.5149593949317932,0.03726277872920036
1733404717555619000,11.724619140625,-0.2577851414680481,-0.3585779070854187,-0.07880161702632904
1733404717565607200,11.734607177734375,-0.1765400618314743,-0.13439035415649414,-0.17531833052635193
1733404717575638800,11.744638671875,-0.1270599663257599,0.12828169763088226,-0.16004669666290283
1733404717585596200,11.75459619140625,-0.09834930300712585,0.3433062732219696,0.030543262138962746
1733404717595627800,11.764627685546875,-0.08552113175392151,0.43127086758613586,0.3842342495918274
1733404717605615600,11.77461572265625,-0.10873401165008545,0.4178318381309509,0.8234463334083557
1733404717615616800,11.78461669921875,-0.24495697021484375,0.1765400618314743,1.4019356966018677
1733404717625604900,11.79460498046875,-0.3677408695220947,-0.015882495790719986,1.6181820631027222
1733404717635636200,11.80463623046875,-0.47219884395599365,-0.18020524084568024,1.6316211223602295
1733404717645593600,11.814593505859374,-0.5369505286216736,-0.3023782968521118,1.4398094415664673
1733404717655626000,11.8246259765625,-0.5540547966957092,-0.35735616087913513,1.0885618925094604
1733404717665613300,11.83461328125,-0.5180137157440186,-0.31459560990333557,0.6346889734268188
1733404717675616000,11.844615966796875,-0.4349360466003418,-0.16310101747512817,0.12889257073402405
1733404717685602300,11.854602294921875,-0.2626720666885376,0.1918116807937622,-0.5656611919403076
1733404717695634000,11.864634033203124,-0.15454891324043274,0.36651915311813354,-0.8875871896743774
1733404717705591300,11.87459130859375,-0.07696902006864548,0.44715335965156555,-1.0684033632278442
1733404717715623000,11.884622802734375,-0.025045474991202354,0.45692721009254456,-1.1056660413742065
1733404717725610800,11.89461083984375,-0.001832595793530345,0.41172316670417786,-1.0213667154312134
1733404717735642400,11.904642333984375,0.0006108652451075613,0.34025195240974426,-0.8662069439888
1733404717745599700,11.914599853515625,-0.009773843921720982,0.251676470041275,-0.6860016584396362
1733404717755631400,11.92463134765625,-0.04153883829712868,0.10690141469240189,-0.4440990388393402
1733404717765619200,11.934619140625,-0.05803219974040985,0.016493361443281174,-0.32131510972976685
1733404717775620000,11.9446201171875,-0.05375614017248154,-0.0861319974064827,-0.22846360504627228
1733404717785608400,11.9546083984375,-0.042760565876960754,-0.13011430203914642,-0.15882496535778046
1733404717795639300,11.964639404296875,-0.03787364438176155,-0.1411098688840866,-0.12339477986097336
1733404717805597400,11.974597412109375,-0.022602014243602753,-0.152105450630188,-0.10567969083786011
1733404717815628300,11.984628173828124,-0.00733038317412138,-0.14905111491680145,-0.09834930300712585
1733404717825617200,11.9946171875,-0.00366519158706069,-0.12950342893600464,-0.09896016865968704
1733404717835617500,12.004617431640625,0.01771509274840355,-0.09468411654233932,-0.08124507963657379
1733404717845606100,12.014606201171874,0.02015855349600315,-0.054367005825042725,-0.06230825558304787
1733404717855636700,12.02463671875,-0.001832595793530345,-0.02015855349600315,-0.05619960278272629
1733404717865595000,12.034594970703125,-0.02321287989616394,0.01771509274840355,-0.056810468435287476
1733404717875625700,12.044625732421874,-0.0403171069920063,0.03481931984424591,-0.05742133408784866
1733404717885614600,12.054614501953125,-0.0555887371301651,0.0354301854968071,-0.045204028487205505
1733404717895615200,12.064615234375,-0.05009094998240471,0.03298672288656235,-0.025656340643763542
1733404717905603600,12.074603515625,-0.025656340643763542,0.0403171069920063,-0.0012217304902151227
1733404717915634700,12.084634765625,-0.0006108652451075613,0.04703662544488907,-0.012828170321881771
1733404717925592800,12.0945927734375,0.018936822190880775,0.05742133408784866,-0.04337143152952194
1733404717935623700,12.104623779296874,0.03420845419168472,0.05619960278272629,-0.08002334833145142
1733404717945612300,12.1146123046875,0.04642575979232788,0.04398229718208313,-0.10445795953273773
1733404717955612700,12.12461279296875,0.05253441259264946,0.03420845419168472,-0.11178833991289139
1733404717965601000,12.13460107421875,0.06169738993048668,0.021991148591041565,-0.10751228034496307
1733404717975632100,12.144632080078125,0.07269296050071716,0.015882495790719986,-0.07208210229873657
1733404717985620700,12.154620849609374,0.06719517707824707,0.030543262138962746,-0.02626720629632473
1733404717995621400,12.164621337890624,0.06963863968849182,0.033597588539123535,0.045204028487205505
1733404718005609700,12.174609619140625,0.05864306539297104,0.060475658625364304,0.12522737681865692
1733404718015640800,12.184640869140624,0.024434609338641167,0.07941248267889023,0.18814650177955627
1733404718025598700,12.1945986328125,-0.022602014243602753,0.07147123664617538,0.21868975460529327
1733404718035629800,12.2046298828125,-0.0757472887635231,0.033597588539123535,0.2070833146572113
1733404718045618200,12.2146181640625,-0.1362229436635971,-0.02871066704392433,0.15515977144241333
1733404718055618600,12.22461865234375,-0.2272418737411499,-0.11728613078594208,0.04398229718208313
1733404718065607200,12.234607177734375,-0.2718350291252136,-0.1661553531885147,-0.014049900695681572
1733404718075639000,12.24463916015625,-0.28588494658470154,-0.17348572611808777,-0.02871066704392433
1733404718085596200,12.25459619140625,-0.2535090744495392,-0.15943582355976105,-0.001832595793530345
1733404718095627300,12.264627197265625,-0.1661553531885147,-0.11178833991289139,0.05253441259264946
1733404718105616100,12.2746162109375,-0.04459316283464432,-0.025656340643763542,0.1062905490398407
1733404718115614700,12.28461474609375,0.0910189226269722,0.07513642311096191,0.1270599663257599
1733404718125603800,12.294603759765625,0.2767219543457031,0.22418753802776337,0.0861319974064827
1733404718135635200,12.30463525390625,0.3634648323059082,0.2889392673969269,0.028099801391363144
1733404718145593000,12.314593017578124,0.40744712948799133,0.30482175946235657,-0.024434609338641167
1733404718155624200,12.324624267578125,0.394008070230484,0.3335324227809906,-0.036651913076639175
1733404718165612300,12.3346123046875,0.32620203495025635,0.3543018400669098,-0.025656340643763542
1733404718175613400,12.344613525390624,0.22357667982578278,0.30482175946235657,0.009162978269159794
1733404718185601500,12.3546015625,0.10567969083786011,0.19058994948863983,0.06230825558304787
1733404718195633200,12.364633056640624,-0.02687807008624077,-0.014049900695681572,0.1618792861700058
1733404718205590500,12.374590576171874,-0.060475658625364304,-0.11545353382825851,0.24190263450145721
1733404718215623000,12.384622802734375,-0.08002334833145142,-0.15943582355976105,0.35552358627319336
1733404718225610800,12.39461083984375,-0.1014036312699318,-0.1569923609495163,0.523511528968811
1733404718235642400,12.404642333984375,-0.09529497474431992,-0.14049901068210602,0.7483099102973938
