time,seconds_elapsed,z,y,x
1733404706015692500,0.184692626953125,-0.02382374368607998,-0.07147123664617538,0.06719517707824707
1733404706025436700,0.194436767578125,-0.03298672288656235,-0.08185594528913498,0.05497787147760391
1733404706035586300,0.20458642578125,-0.04092797264456749,-0.07635815441608429,0.03481931984424591
1733404706045574100,0.21457421875,-0.03848451003432274,-0.05803219974040985,0.012828170321881771
1733404706055575000,0.224574951171875,-0.02626720629632473,-0.04153883829712868,-0.0012217304902151227
1733404706065563100,0.234563232421875,-0.01771509274840355,-0.03848451003432274,-0.005497787147760391
1733404706075594800,0.2445947265625,-0.00855211354792118,-0.039095375686883926,0.006719517521560192
1733404706085552000,0.25455224609375,0,-0.029932396486401558,0.027488935738801956
1733404706095583700,0.264583740234375,0.006719517521560192,-0.03298672288656235,0.05375614017248154
1733404706105571800,0.27457177734375,0.0024434609804302454,-0.0555887371301651,0.05619960278272629
1733404706115571700,0.28457177734375,-0.00427605677396059,-0.07880161702632904,0.0507018156349659
1733404706125560000,0.29456005859375,-0.00733038317412138,-0.0806342139840126,0.03787364438176155
1733404706135591700,0.304591796875,-0.00427605677396059,-0.06536258012056351,0.019547687843441963
1733404706145549300,0.31454931640625,-0.007941247895359993,-0.04153883829712868,-0.014049900695681572
1733404706155581000,0.324580810546875,-0.007941247895359993,-0.01038470957428217,-0.04398229718208313
1733404706165568800,0.33456884765625,0.007941247895359993,0.05925392732024193,-0.04886921867728233
1733404706175570000,0.34456982421875,0.012828170321881771,0.06230825558304787,-0.03787364438176155
1733404706185557800,0.354557861328125,0.00855211354792118,0.031154127791523933,-0.025656340643763542
1733404706195589600,0.364589599609375,0.006108652334660292,0.006108652334660292,-0.009773843921720982
1733404706205546800,0.374546630859375,0.006719517521560192,0.0006108652451075613,0.00427605677396059
1733404706215579000,0.384578857421875,0.010995574295520782,0.00366519158706069,0.013439035043120384
1733404706225566700,0.394566650390625,0.009162978269159794,-0.00366519158706069,0.016493361443281174
1733404706235598000,0.40459814453125,-0.009162978269159794,-0.02626720629632473,0.012217304669320583
1733404706245555700,0.4145556640625,-0.031154127791523933,-0.036651913076639175,0.006719517521560192
1733404706255587000,0.424587158203125,-0.02382374368607998,-0.00733038317412138,0.01466076634824276
1733404706265575400,0.434575439453125,-0.01466076634824276,0.021380282938480377,0.015271631069481373
1733404706275576600,0.44457666015625,-0.006719517521560192,0.031154127791523933,0.001832595793530345
1733404706285564400,0.454564453125,0.0024434609804302454,0.03848451003432274,-0.016493361443281174
1733404706295596000,0.464595947265625,0.009162978269159794,0.04337143152952194,-0.019547687843441963
1733404706305553400,0.474553466796875,0.009773843921720982,0.03787364438176155,-0.013439035043120384
1733404706315585000,0.4845849609375,0.01160643994808197,0.024434609338641167,0.01038470957428217
1733404706325572900,0.49457275390625,0.012828170321881771,0.019547687843441963,0.02871066704392433
1733404706335573800,0.50457373046875,0.007941247895359993,0.006108652334660292,0.02871066704392433
1733404706345561900,0.514561767578125,-0.0012217304902151227,-0.018936822190880775,0.02321287989616394
1733404706355593500,0.524593505859375,-0.009162978269159794,-0.027488935738801956,0.01710422709584236
1733404706365550800,0.53455078125,-0.006719517521560192,-0.001832595793530345,0.00733038317412138
1733404706375582500,0.54458251953125,0.003054326167330146,0.015882495790719986,-0.012828170321881771
1733404706385570600,0.554570556640625,0.007941247895359993,-0.00855211354792118,-0.04092797264456749
1733404706395571500,0.564571533203125,0.0024434609804302454,-0.03176499158143997,-0.039706241339445114
1733404706405559600,0.5745595703125,-0.006108652334660292,-0.0507018156349659,-0.02015855349600315
1733404706415591200,0.584591064453125,-0.012217304669320583,-0.05192354694008827,-0.0006108652451075613
1733404706425548500,0.594548583984375,-0.01038470957428217,-0.04153883829712868,0.01160643994808197
1733404706435580000,0.604579833984375,-0.0024434609804302454,-0.018325956538319588,0.014049900695681572
1733404706445568000,0.614568115234375,0.00366519158706069,0.007941247895359993,0.001832595793530345
1733404706455569200,0.624569091796875,0.012828170321881771,0.033597588539123535,-0.02626720629632473
1733404706465557000,0.634556884765625,0.030543262138962746,0.04153883829712868,-0.07208210229873657
1733404706475588400,0.64458837890625,0.033597588539123535,0.02871066704392433,-0.08491026610136032
1733404706485576400,0.654576416015625,0.029932396486401558,0.01710422709584236,-0.07452555745840073
1733404706495577300,0.664577392578125,0.027488935738801956,0.01160643994808197,-0.04703662544488907
1733404706505565700,0.674565673828125,0.031154127791523933,0.018936822190880775,-0.00855211354792118
1733404706515597000,0.68459716796875,0.0403171069920063,0.02687807008624077,0.03420845419168472
1733404706525554700,0.6945546875,0.03848451003432274,0.012217304669320583,0.06719517707824707
1733404706535586300,0.70458642578125,0.03176499158143997,0.009162978269159794,0.07391469180583954
1733404706545574000,0.714573974609375,0.03176499158143997,0.018936822190880775,0.05864306539297104
1733404706555575000,0.724574951171875,0.029932396486401558,0.014049900695681572,0.04153883829712868
1733404706565563100,0.734563232421875,0.01710422709584236,-0.007941247895359993,0.02932153269648552
1733404706575594500,0.744594482421875,-0.00427605677396059,-0.03176499158143997,0.021380282938480377
1733404706585552100,0.75455224609375,-0.02076941914856434,-0.039706241339445114,0.012217304669320583
1733404706595583700,0.764583740234375,-0.027488935738801956,-0.04092797264456749,0.0012217304902151227
1733404706605571800,0.77457177734375,-0.024434609338641167,-0.02382374368607998,-0.010995574295520782
1733404706615572700,0.78457275390625,-0.012217304669320583,-0.01038470957428217,-0.015882495790719986
1733404706625560600,0.794560546875,0.003054326167330146,-0.004886921960860491,-0.01771509274840355
1733404706635592000,0.804592041015625,0.015882495790719986,0.0024434609804302454,-0.021380282938480377
1733404706645549600,0.814549560546875,0.021991148591041565,0.003054326167330146,-0.0354301854968071
1733404706655581200,0.824581298828125,0.021380282938480377,-0.007941247895359993,-0.05925392732024193
1733404706665569300,0.8345693359375,0.019547687843441963,-0.012217304669320583,-0.08185594528913498
1733404706675570200,0.844570068359375,0.02015855349600315,-0.004886921960860491,-0.09407325088977814
1733404706685558300,0.854558349609375,0.01771509274840355,-0.007941247895359993,-0.0806342139840126
1733404706695589600,0.864589599609375,0.015882495790719986,-0.018936822190880775,-0.05253441259264946
1733404706705547300,0.87454736328125,0.009162978269159794,-0.021991148591041565,-0.022602014243602753
1733404706715578600,0.88457861328125,0.007941247895359993,-0.012217304669320583,0.001832595793530345
1733404706725566700,0.894566650390625,0.00855211354792118,0.0006108652451075613,0.015882495790719986
1733404706735598300,0.904598388671875,0.014049900695681572,0.014049900695681572,0.021991148591041565
1733404706745555700,0.9145556640625,0.013439035043120384,0.018936822190880775,0.015271631069481373
1733404706755587600,0.924587646484375,0.010995574295520782,0.016493361443281174,-0.02015855349600315
1733404706765575400,0.934575439453125,0.004886921960860491,0.013439035043120384,-0.042760565876960754
1733404706775576300,0.944576416015625,0.001832595793530345,0.007941247895359993,-0.05375614017248154
1733404706785564400,0.954564453125,-0.001832595793530345,0.009162978269159794,-0.04642575979232788
1733404706795596000,0.964595947265625,0.001832595793530345,0.01710422709584236,-0.018936822190880775
1733404706805553200,0.97455322265625,0.004886921960860491,0.030543262138962746,0.01771509274840355
1733404706815585000,0.9845849609375,0.01038470957428217,0.04398229718208313,0.05314527451992035
1733404706825572900,0.99457275390625,0.009162978269159794,0.03726277872920036,0.08552113175392151
1733404706835573800,1.00457373046875,0,0.01710422709584236,0.08368854224681854
1733404706845561900,1.014561767578125,-0.009773843921720982,0.01160643994808197,0.07024950534105301
1733404706855592700,1.0245927734375,-0.01710422709584236,0.006719517521560192,0.051312681287527084
1733404706865550800,1.03455078125,-0.016493361443281174,-0.0024434609804302454,0.02382374368607998
1733404706875582000,1.04458203125,-0.001832595793530345,-0.012828170321881771,-0.010995574295520782
1733404706885570600,1.054570556640625,0.021991148591041565,-0.006719517521560192,-0.04703662544488907
1733404706895570700,1.06457080078125,0.045204028487205505,0.014049900695681572,-0.07819075137376785
1733404706905559600,1.0745595703125,0.06291911751031876,0.028099801391363144,-0.1062905490398407
1733404706915591200,1.084591064453125,0.05375614017248154,0.014049900695681572,-0.10812314599752426
1733404706925548500,1.094548583984375,0.031154127791523933,0.003054326167330146,-0.09529497474431992
1733404706935580200,1.104580078125,0.009773843921720982,0.015271631069481373,-0.07330382615327835
1733404706945568000,1.114568115234375,-0.003054326167330146,0.013439035043120384,-0.03726277872920036
1733404706955569400,1.1245693359375,-0.018325956538319588,-0.001832595793530345,0.012217304669320583
1733404706965557000,1.134556884765625,-0.029932396486401558,-0.01160643994808197,0.06352998316287994
1733404706975587800,1.144587890625,-0.030543262138962746,-0.003054326167330146,0.10812314599752426
1733404706985576700,1.15457666015625,-0.019547687843441963,0.01038470957428217,0.10506882518529892
1733404706995576800,1.164576904296875,-0.014049900695681572,0.015882495790719986,0.08368854224681854
1733404707005565700,1.174565673828125,-0.01038470957428217,0.01771509274840355,0.051312681287527084
1733404707015596300,1.18459619140625,0.0024434609804302454,0.018325956538319588,0.013439035043120384
1733404707025554700,1.1945546875,0.013439035043120384,0.015271631069481373,-0.021380282938480377
1733404707035585500,1.20458544921875,0.024434609338641167,0.022602014243602753,-0.04581489413976669
1733404707045574100,1.21457421875,0.03726277872920036,0.04214970022439957,-0.04948008432984352
1733404707055574300,1.22457421875,0.04092797264456749,0.051312681287527084,-0.030543262138962746
1733404707065563100,1.234563232421875,0.036651913076639175,0.05375614017248154,-0.00366519158706069
1733404707075594000,1.244593994140625,0.028099801391363144,0.06536258012056351,0.018936822190880775
1733404707085552000,1.25455224609375,0.029932396486401558,0.06780604273080826,0.033597588539123535
1733404707095582700,1.264582763671875,0.0354301854968071,0.07330382615327835,0.04398229718208313
1733404707105600000,1.27460009765625,0.04642575979232788,0.07452555745840073,0.05314527451992035
1733404707115571200,1.2845712890625,0.06291911751031876,0.07147123664617538,0.06108652427792549
1733404707125560000,1.29456005859375,0.09224065393209457,0.05864306539297104,0.06352998316287994
1733404707135591200,1.304591064453125,0.1160643994808197,0.04581489413976669,0.04642575979232788
1733404707145549300,1.31454931640625,0.14233160018920898,0.0354301854968071,0.019547687843441963
1733404707155580400,1.324580322265625,0.17776179313659668,0.04214970022439957,-0.013439035043120384
1733404707165568800,1.33456884765625,0.20586158335208893,0.06352998316287994,-0.05375614017248154
1733404707175570000,1.34456982421875,0.21135938167572021,0.0910189226269722,-0.0910189226269722
1733404707185557800,1.354557861328125,0.21930062770843506,0.08429940044879913,-0.13072516024112701
1733404707195589600,1.364589599609375,0.2223549485206604,0.04214970022439957,-0.15454891324043274
1733404707205547000,1.374547119140625,0.192422553896904,0.01038470957428217,-0.1411098688840866
1733404707215579000,1.384578857421875,0.15393804013729095,-0.013439035043120384,-0.10751228034496307
1733404707225566500,1.39456640625,0.11972958594560623,-0.031154127791523933,-0.051312681287527084
1733404707235597600,1.40459765625,0.08857546001672745,-0.027488935738801956,0.00855211354792118
1733404707245555700,1.4145556640625,0.06475171446800232,-0.0555887371301651,0.05803219974040985
1733404707255586800,1.4245869140625,0.05009094998240471,-0.10506882518529892,0.09040805697441101
1733404707265575400,1.434575439453125,0.006108652334660292,-0.18081611394882202,0.05864306539297104
1733404707275575800,1.444575927734375,-0.02382374368607998,-0.2125810980796814,-0.04214970022439957
1733404707285564400,1.454564453125,-0.04214970022439957,-0.21380282938480377,-0.18448130786418915
1733404707295595300,1.46459521484375,-0.04398229718208313,-0.17592918872833252,-0.33719760179519653
1733404707305553400,1.474553466796875,-0.021991148591041565,-0.12461651116609573,-0.4801400899887085
1733404707315584300,1.484584228515625,0.009773843921720982,-0.06108652427792549,-0.5791002511978149
1733404707325572900,1.49457275390625,0.04092797264456749,0.009773843921720982,-0.6151412725448608
1733404707335573000,1.504572998046875,0.06902777403593063,0.06719517707824707,-0.5772676467895508
1733404707345561900,1.514561767578125,0.10018189996480942,0.09896016865968704,-0.4196644127368927
1733404707355592700,1.5245927734375,0.11484266817569733,0.10323622822761536,-0.2767219543457031
1733404707365550800,1.53455078125,0.1215621829032898,0.1014036312699318,-0.12828169763088226
1733404707375581700,1.544581787109375,0.1270599663257599,0.09651670604944229,0.001832595793530345
1733404707385570600,1.554570556640625,0.13255776464939117,0.09468411654233932,0.10506882518529892
1733404707395571000,1.564571044921875,0.13866640627384186,0.1062905490398407,0.18081611394882202
1733404707405559600,1.5745595703125,0.14844025671482086,0.1215621829032898,0.23273965716362
1733404707415590400,1.58459033203125,0.14966198801994324,0.13805554807186127,0.29626965522766113
1733404707425548500,1.594548583984375,0.13255776464939117,0.14477506279945374,0.33536502718925476
1733404707435579400,1.604579345703125,0.1007927656173706,0.13561208546161652,0.3640756905078888
1733404707445568000,1.614568115234375,0.06169738993048668,0.1111774742603302,0.3793473243713379
1733404707455568400,1.624568359375,0.010995574295520782,0.08307767659425735,0.3787364661693573
1733404707465557000,1.634556884765625,-0.042760565876960754,0.04764748737215996,0.3488040566444397
1733404707475588000,1.644588134765625,-0.08796459436416626,0.00855211354792118,0.2938261926174164
1733404707485576400,1.654576416015625,-0.12217304855585098,-0.03420845419168472,0.17470745742321014
1733404707495576800,1.664576904296875,-0.12095131725072861,-0.04398229718208313,0.0861319974064827
1733404707505565700,1.674565673828125,-0.09712757170200348,-0.03298672288656235,-0.006719517521560192
1733404707515596500,1.684596435546875,-0.05497787147760391,-0.001832595793530345,-0.09346238523721695
1733404707525554700,1.6945546875,-0.009162978269159794,0.0354301854968071,-0.16554448008537292
1733404707535585500,1.70458544921875,0.02932153269648552,0.06963863968849182,-0.21807889640331268
1733404707545574100,1.71457421875,0.05864306539297104,0.09407325088977814,-0.25045475363731384
1733404707555574500,1.724574462890625,0.06230825558304787,0.09285151958465576,-0.26511552929878235
1733404707565563100,1.734563232421875,0.025656340643763542,0.03420845419168472,-0.2565633952617645
1733404707575594200,1.74459423828125,-0.02076941914856434,-0.03298672288656235,-0.22052235901355743
1733404707585552100,1.75455224609375,-0.07269296050071716,-0.1111774742603302,-0.15515977144241333
1733404707595583200,1.764583251953125,-0.11545353382825851,-0.17409659922122955,-0.06475171446800232
1733404707605571800,1.77457177734375,-0.13744467496871948,-0.19058994948863983,0.042760565876960754
1733404707615572200,1.784572265625,-0.1270599663257599,-0.16065755486488342,0.1472185254096985
1733404707625560600,1.794560546875,-0.08246681094169617,-0.0959058403968811,0.24434609711170197
1733404707635591700,1.804591796875,0.01160643994808197,0.03420845419168472,0.35735616087913513
1733404707645549600,1.814549560546875,0.06230825558304787,0.09040805697441101,0.394618958234787
1733404707655580700,1.82458056640625,0.08674286305904388,0.09773843735456467,0.39767327904701233
1733404707665569300,1.8345693359375,0.09040805697441101,0.0708603709936142,0.3701843321323395
1733404707675570000,1.84456982421875,0.07452555745840073,0.024434609338641167,0.3335324227809906
1733404707685558300,1.854558349609375,0.0507018156349659,-0.01466076634824276,0.2974913716316223
1733404707695589000,1.864589111328125,0.018936822190880775,-0.05314527451992035,0.2687807083129883
1733404707705547300,1.87454736328125,-0.07452555745840073,-0.1459967941045761,0.24129177629947662
1733404707715577900,1.884577880859375,-0.14844025671482086,-0.21807889640331268,0.20830504596233368
1733404707725566700,1.894566650390625,-0.2064724564552307,-0.25595253705978394,0.17104226350784302
1733404707735597600,1.90459765625,-0.24862214922904968,-0.27488934993743896,0.15332718193531036
1733404707745555700,1.9145556640625,-0.26145032048225403,-0.26633724570274353,0.1722639948129654
1733404707755586800,1.9245869140625,-0.23396138846874237,-0.23090706765651703,0.21624629199504852
1733404707765575400,1.934575439453125,-0.182648703455925,-0.17409659922122955,0.2730567753314972
1733404707775575800,1.944575927734375,-0.11239920556545258,-0.10995574295520782,0.31459560990333557
1733404707785564400,1.954564453125,-0.001832595793530345,-0.018325956538319588,0.29565876722335815
1733404707795595500,1.964595458984375,0.06169738993048668,0.03237585723400116,0.22357667982578278
1733404707805553400,1.974553466796875,0.10567969083786011,0.0659734457731247,0.1215621829032898
1733404707815585000,1.9845849609375,0.13377949595451355,0.08246681094169617,0.01038470957428217
1733404707825572900,1.99457275390625,0.13500121235847473,0.09651670604944229,-0.07635815441608429
1733404707835574000,2.004573974609375,0.10445795953273773,0.10873401165008545,-0.10934487730264664
1733404707845561900,2.014561767578125,0.0354301854968071,0.11728613078594208,-0.060475658625364304
1733404707855593200,2.02459326171875,-0.08185594528913498,0.14049901068210602,0.17959438264369965
1733404707865550800,2.03455078125,-0.16004669666290283,0.1459967941045761,0.43127086758613586
1733404707875582500,2.04458251953125,-0.20830504596233368,0.1466076523065567,0.7000515460968018
1733404707885570600,2.054570556640625,-0.22479841113090515,0.1264491081237793,0.901637077331543
1733404707895571500,2.064571533203125,-0.2119702398777008,0.09773843735456467,0.988379955291748
1733404707905559600,2.0745595703125,-0.18570303916931152,0.11545353382825851,0.9443976879119873
1733404707915590000,2.08458984375,-0.18509216606616974,0.1472185254096985,0.7867944240570068
1733404707925548500,2.094548583984375,-0.23518311977386475,0.12767083942890167,0.43676865100860596
1733404707935579000,2.104578857421875,-0.2968805134296417,0.05619960278272629,0.20891591906547546
1733404707945568000,2.114568115234375,-0.3396410644054413,0.03237585723400116,0.05009094998240471
1733404707955569200,2.124569091796875,-0.3604104816913605,0.05253441259264946,-0.02932153269648552
1733404707965557000,2.134556884765625,-0.34513887763023376,0.11423180252313614,-0.0354301854968071
1733404707975588600,2.144588623046875,-0.29016098380088806,0.16554448008537292,-0.015882495790719986
1733404707985576700,2.15457666015625,-0.21502456068992615,0.1765400618314743,-0.0024434609804302454
1733404707995577000,2.1645771484375,-0.1417207419872284,0.15332718193531036,-0.03298672288656235
1733404708005565700,2.174565673828125,-0.09773843735456467,0.028099801391363144,-0.18997909128665924
1733404708015596300,2.18459619140625,-0.08796459436416626,-0.025656340643763542,-0.3378084897994995
1733404708025554700,2.1945546875,-0.1007927656173706,-0.08674286305904388,-0.4893030524253845
1733404708035586000,2.2045859375,-0.13377949595451355,-0.15943582355976105,-0.6151412725448608
1733404708045574000,2.214573974609375,-0.16310101747512817,-0.21624629199504852,-0.6908885836601257
1733404708055575000,2.224574951171875,-0.18631389737129211,-0.23151792585849762,-0.7128797173500061
1733404708065563100,2.234563232421875,-0.20830504596233368,-0.21135938167572021,-0.6774495840072632
1733404708075594500,2.244594482421875,-0.2223549485206604,-0.12828169763088226,-0.5314527750015259
1733404708085552000,2.25455224609375,-0.22357667982578278,-0.08124507963657379,-0.40072759985923767
1733404708095583700,2.264583740234375,-0.22052235901355743,-0.036651913076639175,-0.27611109614372253
1733404708105571800,2.27457177734375,-0.21868975460529327,0.010995574295520782,-0.17287486791610718
1733404708115571200,2.2845712890625,-0.2174680233001709,0.04948008432984352,-0.09896016865968704
1733404708125560000,2.29456005859375,-0.2217440903186798,0.0757472887635231,-0.06719517707824707
1733404708135591400,2.30459130859375,-0.21319197118282318,0.10567969083786011,-0.06841690838336945
1733404708145549300,2.31454931640625,-0.15760323405265808,0.13377949595451355,-0.10751228034496307
1733404708155580400,2.324580322265625,-0.1062905490398407,0.14049901068210602,-0.13500121235847473
1733404708165568800,2.33456884765625,-0.04703662544488907,0.16004669666290283,-0.1508837193250656
1733404708175569200,2.344569091796875,0.025045474991202354,0.18997909128665924,-0.15943582355976105
1733404708185557800,2.354557861328125,0.09957103431224823,0.2015855312347412,-0.15943582355976105
1733404708195588600,2.364588623046875,0.15760323405265808,0.18081611394882202,-0.15943582355976105
1733404708205546800,2.374546630859375,0.1918116807937622,0.1264491081237793,-0.16432274878025055
1733404708215578000,2.384578125,0.20891591906547546,0.07635815441608429,-0.18325957655906677
1733404708225566700,2.394566650390625,0.1820378452539444,0.03420845419168472,-0.24190263450145721
1733404708235597600,2.40459765625,0.1313360333442688,0.0012217304902151227,-0.30970868468284607
1733404708245555700,2.4145556640625,0.0708603709936142,-0.021380282938480377,-0.3927863538265228
1733404708255586600,2.424586669921875,0.003054326167330146,-0.039706241339445114,-0.46364670991897583
1733404708265575400,2.434575439453125,-0.07513642311096191,-0.06963863968849182,-0.4966334402561188
1733404708275575800,2.444575927734375,-0.15393804013729095,-0.10995574295520782,-0.4740314185619354
1733404708285564400,2.454564453125,-0.2278527319431305,-0.15027284622192383,-0.39584067463874817
1733404708295595000,2.464594970703125,-0.29077184200286865,-0.1875356286764145,-0.23396138846874237
1733404708305553400,2.474553466796875,-0.2932153046131134,-0.19975294172763824,-0.12400564551353455
1733404708315584500,2.48458447265625,-0.27611109614372253,-0.20952677726745605,-0.021380282938480377
1733404708325573000,2.494572998046875,-0.2528982162475586,-0.22540926933288574,0.04948008432984352
1733404708335573500,2.504573486328125,-0.24373523890972137,-0.25106561183929443,0.06475171446800232
1733404708345561900,2.514561767578125,-0.2626720666885376,-0.2822197377681732,0.021380282938480377
1733404708355592700,2.5245927734375,-0.30482175946235657,-0.32620203495025635,-0.05497787147760391
1733404708365550800,2.53455078125,-0.3836233615875244,-0.3701843321323395,-0.1569923609495163
1733404708375582500,2.54458251953125,-0.41599923372268677,-0.35552358627319336,-0.1716531366109848
1733404708385570600,2.554570556640625,-0.403781920671463,-0.3090978264808655,-0.1264491081237793
1733404708395571500,2.564571533203125,-0.3494149148464203,-0.23029619455337524,-0.028099801391363144
1733404708405559300,2.574559326171875,-0.2565633952617645,-0.1313360333442688,0.10873401165008545
1733404708415590700,2.584590576171875,-0.14416420459747314,-0.0507018156349659,0.2474004179239273
1733404708425548500,2.594548583984375,-0.021380282938480377,0.00366519158706069,0.3439171314239502
1733404708435579100,2.6045791015625,0.08674286305904388,0.04581489413976669,0.36651915311813354
1733404708445568000,2.614568115234375,0.17470745742321014,0.07330382615327835,0.2785545587539673
1733404708455568400,2.624568359375,0.17470745742321014,0.07635815441608429,0.19058994948863983
1733404708465557000,2.634556884765625,0.14905111491680145,0.06108652427792549,0.11301007121801376
1733404708475587800,2.644587890625,0.12034045159816742,0.03848451003432274,0.04337143152952194
1733404708485576400,2.654576416015625,0.09346238523721695,0.02076941914856434,-0.018325956538319588
1733404708495577600,2.66457763671875,0.05925392732024193,0.00733038317412138,-0.07208210229873657
1733404708505565700,2.674565673828125,0.02321287989616394,-0.015271631069481373,-0.08796459436416626
1733404708515597000,2.68459716796875,-0.018936822190880775,-0.016493361443281174,0.012828170321881771
1733404708525554400,2.694554443359375,-0.02626720629632473,0.016493361443281174,0.18387043476104736
1733404708535586300,2.70458642578125,-0.004886921960860491,0.048258353024721146,0.42088615894317627
1733404708545574100,2.71457421875,0.04764748737215996,0.04398229718208313,0.6743952035903931
1733404708555575000,2.724574951171875,0.11667526513338089,0.022602014243602753,0.8918632864952087
1733404708565563100,2.734563232421875,0.21135938167572021,0.004886921960860491,1.024420976638794
1733404708575593500,2.744593505859375,0.2987131178379059,0.056810468435287476,1.0616837739944458
1733404708585552100,2.75455224609375,0.3903428912162781,0.08246681094169617,0.9169087409973145
1733404708595582200,2.764582275390625,0.42699480056762695,-0.0024434609804302454,0.6872233748435974
1733404708605571800,2.77457177734375,0.4434881806373596,-0.13988813757896423,0.37262779474258423
1733404708615571500,2.784571533203125,0.4489859640598297,-0.23945917189121246,0.025656340643763542
1733404708625560600,2.794560546875,0.4453207552433014,-0.27488934993743896,-0.30604347586631775
1733404708635592400,2.804592529296875,0.43249258399009705,-0.2638937830924988,-0.5821545720100403
1733404708645549600,2.814549560546875,0.40194934606552124,-0.2125810980796814,-0.7611380815505981
1733404708655581200,2.824581298828125,0.35735616087913513,-0.13866640627384186,-0.8246681094169617
1733404708665569300,2.8345693359375,0.2669481039047241,-0.04581489413976669,-0.7214318513870239
1733404708675570200,2.844570068359375,0.18875735998153687,-0.015882495790719986,-0.5540547966957092
1733404708685558300,2.854558349609375,0.10567969083786011,-0.02382374368607998,-0.3500257730484009
1733404708695589600,2.864589599609375,0.02687807008624077,-0.06108652427792549,-0.16249015927314758
1733404708705547300,2.87454736328125,-0.02871066704392433,-0.10567969083786011,-0.039095375686883926
1733404708715578600,2.88457861328125,-0.05009094998240471,-0.12889257073402405,0.01160643994808197
1733404708725566700,2.894566650390625,-0.04642575979232788,-0.12950342893600464,0.009162978269159794
1733404708735598300,2.904598388671875,-0.0006108652451075613,-0.1007927656173706,-0.03787364438176155
1733404708745555700,2.9145556640625,0.05619960278272629,-0.06169738993048668,-0.059864792972803116
1733404708755586600,2.924586669921875,0.12034045159816742,-0.006719517521560192,-0.07024950534105301
1733404708765575400,2.934575439453125,0.18448130786418915,0.039095375686883926,-0.06780604273080826
1733404708775576000,2.944576171875,0.2217440903186798,0.05314527451992035,-0.06108652427792549
1733404708785564400,2.954564453125,0.23335053026676178,0.051312681287527084,-0.05314527451992035
1733404708795595500,2.964595458984375,0.22663100063800812,0.04337143152952194,-0.039706241339445114
1733404708805553400,2.974553466796875,0.1820378452539444,-0.048258353024721146,-0.03298672288656235
1733404708815584500,2.98458447265625,0.14538592100143433,-0.10201449692249298,-0.04214970022439957
1733404708825572900,2.99457275390625,0.10262536257505417,-0.14538592100143433,-0.06230825558304787
1733404708835573200,3.0045732421875,0.04398229718208313,-0.16310101747512817,-0.10201449692249298
1733404708845561900,3.014561767578125,0.0024434609804302454,-0.1508837193250656,-0.14477506279945374
1733404708855593000,3.024593017578125,-0.024434609338641167,-0.10751228034496307,-0.17348572611808777
1733404708865550800,3.03455078125,-0.04337143152952194,-0.06230825558304787,-0.18875735998153687
1733404708875582000,3.04458203125,-0.04948008432984352,-0.02382374368607998,-0.1869247704744339
1733404708885570600,3.054570556640625,-0.03237585723400116,0.029932396486401558,-0.1368338167667389
1733404708895570700,3.06457080078125,-0.018325956538319588,0.07391469180583954,-0.07635815441608429
1733404708905559600,3.0745595703125,-0.015271631069481373,0.10506882518529892,-0.01038470957428217
1733404708915590400,3.08459033203125,-0.02687807008624077,0.09773843735456467,0.04092797264456749
1733404708925548500,3.094548583984375,-0.04153883829712868,0.05803219974040985,0.06414084881544113
1733404708935579600,3.10457958984375,-0.05803219974040985,0.021380282938480377,0.06352998316287994
1733404708945568000,3.114568115234375,-0.09285151958465576,-0.015271631069481373,0.03726277872920036
1733404708955568600,3.124568603515625,-0.14416420459747314,-0.08307767659425735,-0.06230825558304787
1733404708965557000,3.134556884765625,-0.15943582355976105,-0.12522737681865692,-0.15271630883216858
1733404708975588000,3.144588134765625,-0.15821409225463867,-0.15393804013729095,-0.2431243658065796
1733404708985576700,3.15457666015625,-0.152105450630188,-0.1661553531885147,-0.32009339332580566
1733404708995577000,3.1645771484375,-0.15027284622192383,-0.17043140530586243,-0.3701843321323395
1733404709005565700,3.174565673828125,-0.14782938361167908,-0.18081611394882202,-0.3799581825733185
1733404709015597000,3.18459716796875,-0.14294247329235077,-0.2064724564552307,-0.35674530267715454
1733404709025554700,3.1945546875,-0.15332718193531036,-0.22663100063800812,-0.25473082065582275
1733404709035585300,3.204585205078125,-0.15515977144241333,-0.2028072625398636,-0.15821409225463867
1733404709045574100,3.21457421875,-0.16371189057826996,-0.17531833052635193,-0.06536258012056351
1733404709055575000,3.224574951171875,-0.19120082259178162,-0.1612684279680252,-0.0012217304902151227
1733404709065563100,3.234563232421875,-0.2382374405860901,-0.17409659922122955,0.028099801391363144
1733404709075595000,3.244594970703125,-0.3017674386501312,-0.24190263450145721,0.04092797264456749
1733404709085552000,3.25455224609375,-0.3500257730484009,-0.34758231043815613,0.06475171446800232
1733404709095583200,3.264583251953125,-0.36102136969566345,-0.41599923372268677,0.12339477986097336
1733404709105601800,3.274601806640625,-0.2993239760398865,-0.4031710624694824,0.22907446324825287
1733404709115571500,3.284571533203125,-0.242513507604599,-0.31459560990333557,0.26145032048225403
1733404709125560000,3.29456005859375,-0.1765400618314743,-0.22540926933288574,0.22113321721553802
1733404709135592000,3.304592041015625,-0.10384709388017654,-0.13927727937698364,0.09834930300712585
1733404709145549300,3.31454931640625,-0.039706241339445114,-0.05253441259264946,-0.08002334833145142
1733404709155581000,3.324580810546875,0.004886921960860491,0.039095375686883926,-0.2535090744495392
1733404709165568800,3.33456884765625,0.018325956538319588,0.14294247329235077,-0.3494149148464203
1733404709175570000,3.34456982421875,0,0.30543261766433716,-0.2278527319431305
1733404709185557800,3.354557861328125,-0.021991148591041565,0.3341432809829712,0.0403171069920063
1733404709195589400,3.36458935546875,-0.05619960278272629,0.2785545587539673,0.3927863538265228
1733404709205546800,3.374546630859375,-0.11911872029304504,0.16737708449363708,0.7544185519218445
1733404709215579000,3.384578857421875,-0.22479841113090515,0.06352998316287994,1.0464121103286743
1733404709225566700,3.394566650390625,-0.3445279896259308,-0.039706241339445114,1.2211196422576904
1733404709235598000,3.40459814453125,-0.4251621961593628,-0.14538592100143433,1.2602150440216064
1733404709245555700,3.4145556640625,-0.4349360466003418,-0.22296582162380219,1.111163854598999
1733404709255586800,3.4245869140625,-0.3799581825733185,-0.16982053220272064,0.8888089060783386
1733404709265575400,3.434575439453125,-0.28099802136421204,-0.042760565876960754,0.5742133259773254
1733404709275575800,3.444575927734375,-0.1472185254096985,0.12278391420841217,0.1918116807937622
1733404709285564400,3.454564453125,-0.039706241339445114,0.28588494658470154,-0.20830504596233368
1733404709295595800,3.464595703125,0.059864792972803116,0.3897320330142975,-0.578489363193512
1733404709305553400,3.474553466796875,0.13439035415649414,0.42577308416366577,-0.8570439219474792
1733404709315584800,3.484584716796875,0.1716531366109848,0.4544837474822998,-0.9908234477043152
1733404709325572900,3.49457275390625,0.1661553531885147,0.46242499351501465,-0.9242390990257263
1733404709335573800,3.50457373046875,0.12828169763088226,0.4447098970413208,-0.7586946487426758
1733404709345561900,3.514561767578125,0.07941248267889023,0.4043927788734436,-0.5607742667198181
1733404709355593500,3.524593505859375,0.027488935738801956,0.33536502718925476,-0.3732386529445648
1733404709365551000,3.534551025390625,-0.015882495790719986,0.24129177629947662,-0.24495697021484375
1733404709375582200,3.544582275390625,-0.03420845419168472,0.13927727937698364,-0.2119702398777008
1733404709385570600,3.554570556640625,-0.07269296050071716,0.07208210229873657,-0.252287358045578
1733404709395570700,3.56457080078125,-0.1258382350206375,-0.013439035043120384,-0.3927863538265228
1733404709405559600,3.5745595703125,-0.1264491081237793,-0.08002334833145142,-0.47830748558044434
1733404709415590100,3.584590087890625,-0.1014036312699318,-0.1160643994808197,-0.5247332453727722
1733404709425548500,3.594548583984375,-0.05192354694008827,-0.10751228034496307,-0.5174028873443604
1733404709435579100,3.6045791015625,0.015882495790719986,-0.060475658625364304,-0.45265114307403564
1733404709445568000,3.614568115234375,0.08918632566928864,0.005497787147760391,-0.34513887763023376
1733404709455569000,3.62456884765625,0.14416420459747314,0.05009094998240471,-0.21502456068992615
1733404709465557000,3.634556884765625,0.18081611394882202,0.08796459436416626,-0.03787364438176155
1733404709475588600,3.644588623046875,0.1771509200334549,0.08185594528913498,0.033597588539123535
1733404709485576700,3.65457666015625,0.14416420459747314,0.08185594528913498,0.07391469180583954
1733404709495577000,3.6645771484375,0.1007927656173706,0.0708603709936142,0.08429940044879913
1733404709505565700,3.674565673828125,0.06230825558304787,0.03726277872920036,0.07880161702632904
1733404709515596500,3.684596435546875,0.02871066704392433,-0.00733038317412138,0.07819075137376785
1733404709525554700,3.6945546875,0.006719517521560192,-0.018325956538319588,0.08735372871160507
1733404709535585500,3.70458544921875,0.00366519158706069,0.003054326167330146,0.10201449692249298
1733404709545574000,3.714573974609375,0.029932396486401558,0.05742133408784866,0.10812314599752426
1733404709555574500,3.724574462890625,0.04764748737215996,0.08185594528913498,0.10018189996480942
1733404709565563100,3.734563232421875,0.05375614017248154,0.08185594528913498,0.08918632566928864
1733404709575594000,3.744593994140625,0.045204028487205505,0.05497787147760391,0.07941248267889023
1733404709585552100,3.75455224609375,0.024434609338641167,0.02076941914856434,0.06169738993048668
1733404709595583200,3.764583251953125,-0.00427605677396059,-0.01771509274840355,0.024434609338641167
1733404709605571800,3.77457177734375,-0.04214970022439957,-0.05497787147760391,-0.02687807008624077
1733404709615571700,3.78457177734375,-0.10201449692249298,-0.09957103431224823,-0.1270599663257599
1733404709625560800,3.794560791015625,-0.13561208546161652,-0.11056660860776901,-0.19608774781227112
1733404709635592200,3.80459228515625,-0.16249015927314758,-0.11301007121801376,-0.24923302233219147
1733404709645549600,3.814549560546875,-0.2021963894367218,-0.06475171446800232,-0.27000242471694946
1733404709655581400,3.82458154296875,-0.22602014243602753,-0.04948008432984352,-0.24617868661880493
1733404709665569300,3.8345693359375,-0.20525072515010834,-0.05742133408784866,-0.16004669666290283
1733404709675570200,3.844570068359375,-0.1258382350206375,-0.03848451003432274,-0.02871066704392433
1733404709685558300,3.854558349609375,0.02626720629632473,-0.0006108652451075613,0.17043140530586243
1733404709695589400,3.86458935546875,0.14355333149433136,0.02871066704392433,0.2431243658065796
1733404709705547300,3.87454736328125,0.2480112910270691,0.08979719132184982,0.2376265823841095
1733404709715578400,3.884578369140625,0.30482175946235657,0.15577064454555511,0.16737708449363708
1733404709725566700,3.894566650390625,0.3439171314239502,0.182648703455925,0.07513642311096191
1733404709735598600,3.9045986328125,0.37568211555480957,0.1716531366109848,0.012828170321881771
1733404709745555700,3.9145556640625,0.36651915311813354,0.15760323405265808,-0.0012217304902151227
1733404709755587600,3.924587646484375,0.31031954288482666,0.09346238523721695,0.019547687843441963
1733404709765575400,3.934575439453125,0.14416420459747314,-0.05497787147760391,0.10751228034496307
1733404709775576300,3.944576416015625,-0.01160643994808197,-0.1014036312699318,0.22113321721553802
1733404709785564400,3.954564453125,-0.1514945775270462,-0.15760323405265808,0.3982841372489929
1733404709795595800,3.964595703125,-0.2174680233001709,-0.21074850857257843,0.6401867866516113
1733404709805553400,3.974553466796875,-0.19853121042251587,-0.21563543379306793,0.9334021210670471
1733404709815584800,3.984584716796875,-0.1459967941045761,-0.1875356286764145,1.2082914113998413
1733404709825572900,3.99457275390625,-0.07147123664617538,-0.13072516024112701,1.3982704877853394
1733404709835572700,4.00457275390625,0.08185594528913498,-0.02321287989616394,1.3848315477371216
1733404709845561900,4.014561767578125,0.18081611394882202,0.05497787147760391,1.1673635244369507
1733404709855592200,4.02459228515625,0.2541199326515198,0.10506882518529892,0.8112290501594543
1733404709865550800,4.03455078125,0.2974913716316223,0.13316862285137177,0.37690386176109314
1733404709875582000,4.04458203125,0.29993483424186707,0.14782938361167908,-0.08796459436416626
1733404709885570600,4.054570556640625,0.2590068578720093,0.1160643994808197,-0.523511528968811
1733404709895571500,4.064571533203125,0.18387043476104736,0.0403171069920063,-0.8863654732704163
1733404709905559600,4.0745595703125,0.11178833991289139,0.01038470957428217,-1.1869112253189087
1733404709915591200,4.084591064453125,0.09285151958465576,0.0354301854968071,-1.2082914113998413
1733404709925548500,4.094548583984375,0.0757472887635231,0.04764748737215996,-1.1068878173828125
1733404709935580200,4.104580078125,0.07208210229873657,0.025656340643763542,-0.9248499870300293
1733404709945568000,4.114568115234375,0.06108652427792549,-0.01038470957428217,-0.6988298296928406
1733404709955569200,4.124569091796875,0.04581489413976669,-0.03848451003432274,-0.4648684561252594
1733404709965557000,4.134556884765625,0.03787364438176155,-0.0507018156349659,-0.25595253705978394
1733404709975588600,4.144588623046875,0.03848451003432274,-0.05314527451992035,-0.0861319974064827
1733404709985576700,4.15457666015625,0.05192354694008827,-0.045204028487205505,0.08979719132184982
1733404709995576600,4.16457666015625,0.060475658625364304,-0.04337143152952194,0.14782938361167908
1733404710005565700,4.174565673828125,0.06414084881544113,-0.05742133408784866,0.16004669666290283
1733404710015596500,4.184596435546875,0.06169738993048668,-0.08857546001672745,0.13866640627384186
1733404710025554700,4.1945546875,0.05803219974040985,-0.11728613078594208,0.10934487730264664
1733404710035585500,4.20458544921875,0.05253441259264946,-0.1264491081237793,0.08002334833145142
1733404710045574000,4.214573974609375,0.05009094998240471,-0.11423180252313614,0.05009094998240471
1733404710055574500,4.224574462890625,0.04153883829712868,-0.07513642311096191,-0.001832595793530345
1733404710065563100,4.234563232421875,0.03787364438176155,-0.039095375686883926,-0.0354301854968071
1733404710075594000,4.244593994140625,0.036041051149368286,-0.01160643994808197,-0.056810468435287476
1733404710085552000,4.25455224609375,0.03726277872920036,0.001832595793530345,-0.06902777403593063
1733404710095583200,4.264583251953125,0.03481931984424591,0.00855211354792118,-0.07208210229873657
1733404710105571800,4.27457177734375,0.027488935738801956,0.021380282938480377,-0.07452555745840073
1733404710115571200,4.2845712890625,0.014049900695681572,0.022602014243602753,-0.0806342139840126
1733404710125560300,4.294560302734375,-0.00733038317412138,-0.00366519158706069,-0.09529497474431992
1733404710135591200,4.304591064453125,-0.018325956538319588,-0.02076941914856434,-0.09346238523721695
1733404710145549300,4.31454931640625,-0.0354301854968071,-0.012828170321881771,-0.07147123664617538
1733404710155580400,4.324580322265625,-0.0507018156349659,0,-0.027488935738801956
1733404710165568800,4.33456884765625,-0.05742133408784866,0.01160643994808197,0.0403171069920063
1733404710175569400,4.3445693359375,-0.05925392732024193,0.006719517521560192,0.11911872029304504
1733404710185557800,4.354557861328125,-0.059864792972803116,-0.013439035043120384,0.19364428520202637
1733404710195588600,4.364588623046875,-0.0555887371301651,-0.05192354694008827,0.2382374405860901
1733404710205546800,4.374546630859375,-0.02015855349600315,-0.07757988572120667,0.22296582162380219
1733404710215578000,4.384578125,0.02321287989616394,-0.048258353024721146,0.16859880089759827
1733404710225566700,4.394566650390625,0.0910189226269722,0.016493361443281174,0.08979719132184982
1733404710235597800,4.404597900390625,0.1716531366109848,0.08124507963657379,-0.006108652334660292
1733404710245555700,4.4145556640625,0.23518311977386475,0.10567969083786011,-0.12034045159816742
1733404710255587600,4.424587646484375,0.252287358045578,0.08307767659425735,-0.23945917189121246
1733404710265575400,4.434575439453125,0.2070833146572113,0.029932396486401558,-0.3384193480014801
1733404710275576300,4.444576416015625,0.016493361443281174,-0.1264491081237793,-0.39706242084503174
1733404710285564400,4.454564453125,-0.14416420459747314,-0.25595253705978394,-0.34147366881370544
1733404710295595800,4.464595703125,-0.27488934993743896,-0.37201693654060364,-0.21624629199504852
1733404710305553400,4.474553466796875,-0.3677408695220947,-0.46731191873550415,-0.039706241339445114
1733404710315584800,4.484584716796875,-0.4202753007411957,-0.5351179838180542,0.12767083942890167
1733404710325572900,4.49457275390625,-0.4153883755207062,-0.5613851547241211,0.22052235901355743
1733404710335574000,4.504573974609375,-0.36529740691185,-0.5345070958137512,0.20830504596233368
1733404710345561900,4.514561767578125,-0.22296582162380219,-0.29993483424186707,0.05925392732024193
1733404710355593500,4.524593505859375,-0.09651670604944229,-0.02932153269648552,0.0012217304902151227
1733404710365550800,4.53455078125,0.033597588539123535,0.26633724570274353,0.0861319974064827
1733404710375582500,4.54458251953125,0.1569923609495163,0.5198463201522827,0.3170390725135803
1733404710385570600,4.554570556640625,0.242513507604599,0.6701191663742065,0.6298020482063293
1733404710395571500,4.564571533203125,0.25045475363731384,0.6493497490882874,0.9425650835037231
1733404710405559600,4.5745595703125,0.192422553896904,0.5265658497810364,1.19607412815094
1733404710415589600,4.584589599609375,0.05742133408784866,0.32131510972976685,1.348179578781128
1733404710425548500,4.594548583984375,-0.22602014243602753,-0.12278391420841217,1.3029755353927612
1733404710435578600,4.60457861328125,-0.40072759985923767,-0.3830125033855438,1.103833556175232
1733404710445568000,4.614568115234375,-0.5198463201522827,-0.5229006409645081,0.8045095205307007
1733404710455568000,4.62456787109375,-0.5907067060470581,-0.5424483418464661,0.43799036741256714
1733404710465557000,4.634556884765625,-0.6114761233329773,-0.46853363513946533,0.042760565876960754
1733404710475587300,4.64458740234375,-0.5778785347938538,-0.3084869384765625,-0.3323107063770294
1733404710485576700,4.65457666015625,-0.484416127204895,-0.07941248267889023,-0.6389650702476501
1733404710495577600,4.66457763671875,-0.27488934993743896,0.23090706765651703,-0.9291260242462158
1733404710505565700,4.674565673828125,-0.13377949595451355,0.37751471996307373,-0.9950994849205017
1733404710515597000,4.68459716796875,-0.02321287989616394,0.46364670991897583,-0.9761626720428467
1733404710525554700,4.6945546875,0.039095375686883926,0.4593706727027893,-0.9071348905563354
1733404710535586300,4.70458642578125,0.06658431142568588,0.3952298164367676,-0.8118399381637573
1733404710545574100,4.71457421875,0.05925392732024193,0.29077184200286865,-0.7104362845420837
1733404710555574800,4.72457470703125,0.04398229718208313,0.16554448008537292,-0.6059783101081848
1733404710565563100,4.734563232421875,0.012217304669320583,0.036651913076639175,-0.4550946056842804
1733404710575594500,4.744594482421875,-0.01160643994808197,-0.02382374368607998,-0.37262779474258423
1733404710585552100,4.75455224609375,-0.024434609338641167,-0.05925392732024193,-0.30482175946235657
1733404710595583700,4.764583740234375,-0.02015855349600315,-0.10384709388017654,-0.24190263450145721
1733404710605571800,4.77457177734375,-0.004886921960860491,-0.14966198801994324,-0.17898350954055786
1733404710615572700,4.78457275390625,0.007941247895359993,-0.14294247329235077,-0.10995574295520782
1733404710625560600,4.794560546875,0.009773843921720982,-0.11301007121801376,-0.05009094998240471
1733404710635592200,4.80459228515625,0.019547687843441963,-0.0708603709936142,-0.003054326167330146
1733404710645549600,4.814549560546875,0.036041051149368286,-0.001832595793530345,0.04581489413976669
1733404710655580400,4.824580322265625,0.04214970022439957,0.03237585723400116,0.06536258012056351
1733404710665569300,4.8345693359375,0.04642575979232788,0.05009094998240471,0.07391469180583954
1733404710675569700,4.844569580078125,0.05314527451992035,0.054367005825042725,0.07147123664617538
1733404710685558300,4.854558349609375,0.06169738993048668,0.05742133408784866,0.06658431142568588
1733404710695589000,4.864589111328125,0.06902777403593063,0.06230825558304787,0.06230825558304787
1733404710705547300,4.87454736328125,0.07941248267889023,0.07024950534105301,0.05925392732024193
1733404710715578400,4.884578369140625,0.09712757170200348,0.09834930300712585,0.06169738993048668
1733404710725566700,4.894566650390625,0.10690141469240189,0.13866640627384186,0.06475171446800232
1733404710735597800,4.904597900390625,0.10384709388017654,0.17837265133857727,0.06169738993048668
1733404710745555700,4.9145556640625,0.0959058403968811,0.1973094791173935,0.051312681287527084
1733404710755586800,4.9245869140625,0.0806342139840126,0.1716531366109848,0.03420845419168472
1733404710765575400,4.934575439453125,0.06169738993048668,0.11178833991289139,0.028099801391363144
1733404710775575800,4.944575927734375,0.03726277872920036,0.036041051149368286,0.02382374368607998
1733404710785564400,4.954564453125,-0.007941247895359993,-0.05497787147760391,-0.0024434609804302454
1733404710795595300,4.96459521484375,-0.045204028487205505,-0.08307767659425735,-0.03481931984424591
1733404710805553400,4.974553466796875,-0.08307767659425735,-0.08124507963657379,-0.08002334833145142
1733404710815584800,4.984584716796875,-0.13011430203914642,-0.06414084881544113,-0.1319468915462494
1733404710825572900,4.99457275390625,-0.1869247704744339,-0.051312681287527084,-0.182648703455925
1733404710835574000,5.004573974609375,-0.24434609711170197,-0.04948008432984352,-0.21441370248794556
1733404710845561900,5.014561767578125,-0.2877175211906433,-0.05742133408784866,-0.2015855312347412
1733404710855593700,5.02459375,-0.2974913716316223,-0.06719517707824707,-0.14049901068210602
1733404710865550800,5.03455078125,-0.23518311977386475,-0.02626720629632473,0.014049900695681572
1733404710875582000,5.04458203125,-0.12950342893600464,0.01710422709584236,0.11056660860776901
1733404710885570600,5.054570556640625,0.0354301854968071,0.10445795953273773,0.18448130786418915
1733404710895571000,5.064571044921875,0.19303341209888458,0.19364428520202637,0.22479841113090515
1733404710905559600,5.0745595703125,0.30543261766433716,0.23518311977386475,0.23151792585849762
1733404710915590700,5.084590576171875,0.3536909818649292,0.22846360504627228,0.2174680233001709
1733404710925548500,5.094548583984375,0.3646865487098694,0.23090706765651703,0.1869247704744339
1733404710935580200,5.104580078125,0.3176499307155609,0.20891591906547546,0.09468411654233932
1733404710945568000,5.114568115234375,0.23273965716362,0.1814269721508026,0.012828170321881771
1733404710955569200,5.124569091796875,0.11667526513338089,0.07513642311096191,-0.04886921867728233
1733404710965557000,5.134556884765625,-0.00366519158706069,-0.05009094998240471,-0.03420845419168472
1733404710975588600,5.144588623046875,-0.09162978827953339,-0.09834930300712585,0.1215621829032898
1733404710985576700,5.15457666015625,-0.1111774742603302,-0.07880161702632904,0.4349360466003418
1733404710995577600,5.16457763671875,-0.07513642311096191,-0.0006108652451075613,0.8631525635719299
1733404711005565700,5.174565673828125,0.04214970022439957,0.12461651116609573,1.4715744256973267
1733404711015596000,5.184595947265625,0.13988813757896423,0.14416420459747314,1.7238616943359375
1733404711025554700,5.1945546875,0.22540926933288574,0.12461651116609573,1.8026633262634277
1733404711035584800,5.204584716796875,0.29626965522766113,0.05253441259264946,1.6798794269561768
1733404711045574100,5.21457421875,0.33108896017074585,-0.045204028487205505,1.3756685256958008
1733404711055574000,5.224573974609375,0.3219259977340698,-0.13744467496871948,0.9327912330627441
1733404711065563100,5.234563232421875,0.2816088795661926,-0.2021963894367218,0.40683624148368835
1733404711075594200,5.24459423828125,0.23396138846874237,-0.21624629199504852,-0.11301007121801376
1733404711085946600,5.254946533203125,0.17531833052635193,-0.13744467496871948,-0.6866125464439392
1733404711095978200,5.264978271484375,0.12522737681865692,-0.07330382615327835,-0.8765916228294373
1733404711105994500,5.274994384765625,0.07941248267889023,-0.03787364438176155,-0.9181304574012756
1733404711115966500,5.284966552734375,0.05619960278272629,-0.039095375686883926,-0.8423831462860107
1733404711125954800,5.294954833984375,0.05192354694008827,-0.06169738993048668,-0.6872233748435974
1733404711135986000,5.30498583984375,0.06352998316287994,-0.08307767659425735,-0.49357911944389343
1733404711145943800,5.31494384765625,0.09285151958465576,-0.09040805697441101,-0.2932153046131134
1733404711155975200,5.32497509765625,0.15760323405265808,-0.04459316283464432,-0.03420845419168472
1733404711165963300,5.33496337890625,0.19792033731937408,-0.009773843921720982,0.07757988572120667
1733404711175963600,5.344963623046875,0.22968533635139465,0.012828170321881771,0.13011430203914642
1733404711185952300,5.3549521484375,0.2541199326515198,0.012217304669320583,0.14844025671482086
1733404711195983400,5.3649833984375,0.26450464129447937,0.02626720629632473,0.13744467496871948
1733404711205941200,5.374941162109375,0.26145032048225403,0.036041051149368286,0.09712757170200348
1733404711215972600,5.38497265625,0.25045475363731384,0.01710422709584236,0.04092797264456749
1733404711225961200,5.394961181640625,0.21563543379306793,-0.03298672288656235,-0.05619960278272629
1733404711235992300,5.404992431640625,0.17470745742321014,-0.08307767659425735,-0.11789698898792267
1733404711245950200,5.4149501953125,0.11728613078594208,-0.12339477986097336,-0.17348572611808777
1733404711255981300,5.424981201171875,0.0507018156349659,-0.1411098688840866,-0.21930062770843506
1733404711265970000,5.434969970703125,-0.01466076634824276,-0.14294247329235077,-0.2535090744495392
1733404711275970300,5.44497021484375,-0.06719517707824707,-0.12278391420841217,-0.2724458873271942
1733404711285959000,5.454958984375,-0.09651670604944229,-0.08124507963657379,-0.26939156651496887
1733404711295989800,5.46498974609375,-0.09896016865968704,-0.04703662544488907,-0.24923302233219147
1733404711305947600,5.47494775390625,-0.08429940044879913,0.01038470957428217,-0.20891591906547546
1733404711315978800,5.484978759765625,-0.06169738993048668,0.059864792972803116,-0.17531833052635193
1733404711325967400,5.49496728515625,-0.04642575979232788,0.09468411654233932,-0.13744467496871948
1733404711335968000,5.504968017578125,-0.03726277872920036,0.09773843735456467,-0.10201449692249298
1733404711345956400,5.514956298828125,-0.039095375686883926,0.07024950534105301,-0.07391469180583954
1733404711355987500,5.524987548828125,-0.054367005825042725,0.02871066704392433,-0.04398229718208313
1733404711365945300,5.5349453125,-0.06963863968849182,-0.04214970022439957,-0.012828170321881771
1733404711375976700,5.544976806640625,-0.10018189996480942,-0.14049901068210602,0.027488935738801956
1733404711385965000,5.554965087890625,-0.10873401165008545,-0.16982053220272064,0.04398229718208313
1733404711395965400,5.56496533203125,-0.10262536257505417,-0.16004669666290283,0.045204028487205505
1733404711405953800,5.574953857421875,-0.08429940044879913,-0.13255776464939117,0.0354301854968071
1733404711415985000,5.58498486328125,-0.07024950534105301,-0.1111774742603302,0.0012217304902151227
1733404711425942800,5.59494287109375,-0.04337143152952194,-0.08491026610136032,-0.04642575979232788
1733404711435974000,5.604973876953125,0.007941247895359993,-0.0507018156349659,-0.10018189996480942
1733404711445962500,5.61496240234375,0.07696902006864548,-0.00733038317412138,-0.1667662113904953
1733404711455963000,5.624962890625,0.08185594528913498,-0.009773843921720982,-0.2070833146572113
1733404711465951500,5.634951416015625,0.042760565876960754,-0.05619960278272629,-0.24373523890972137
1733404711475982800,5.64498291015625,-0.03726277872920036,-0.1508837193250656,-0.27000242471694946
1733404711485971200,5.65497119140625,-0.12278391420841217,-0.27122417092323303,-0.26145032048225403
1733404711495972000,5.66497216796875,-0.20097467303276062,-0.36713001132011414,-0.19486601650714874
1733404711505960000,5.6749599609375,-0.26572638750076294,-0.4306600093841553,-0.06841690838336945
1733404711515990800,5.68499072265625,-0.2938261926174164,-0.46670106053352356,0.07696902006864548
1733404711525949000,5.694948974609375,-0.24984388053417206,-0.5076290369033813,0.2742784917354584
1733404711535980800,5.704980712890625,-0.18631389737129211,-0.475253164768219,0.34697145223617554
1733404711545968400,5.714968505859375,-0.12889257073402405,-0.4153883755207062,0.34513887763023376
1733404711555969500,5.724969482421875,-0.10384709388017654,-0.3182607889175415,0.27977627515792847
1733404711565957600,5.73495751953125,-0.09651670604944229,-0.19303341209888458,0.2064724564552307
1733404711575989000,5.744989013671875,-0.11667526513338089,-0.01710422709584236,0.192422553896904
1733404711585946600,5.754946533203125,-0.14538592100143433,0.09712757170200348,0.2736676335334778
1733404711595978200,5.764978271484375,-0.182648703455925,0.1765400618314743,0.5400048494338989
1733404711605965800,5.7749658203125,-0.20952677726745605,0.17104226350784302,0.7428121566772461
1733404711615967000,5.784967041015625,-0.252287358045578,0.11850785464048386,0.901637077331543
1733404711625955000,5.794955078125,-0.3029891550540924,0.012217304669320583,0.9645562171936035
1733404711635986700,5.804986572265625,-0.33597588539123535,-0.08368854224681854,0.9053022861480713
1733404711645944000,5.814944091796875,-0.33536502718925476,-0.1612684279680252,0.7226535677909851
1733404711655975200,5.82497509765625,-0.29626965522766113,-0.17287486791610718,0.43188172578811646
1733404711665963800,5.8349638671875,-0.1667662113904953,-0.06352998316287994,-0.12889257073402405
1733404711675964400,5.84496435546875,-0.07208210229873657,0.07513642311096191,-0.5070181488990784
1733404711685952500,5.854952392578125,0.001832595793530345,0.24190263450145721,-0.8338310718536377
1733404711695984400,5.864984375,0.07147123664617538,0.3683517575263977,-1.0757336616516113
1733404711705941800,5.874941650390625,0.12400564551353455,0.48197266459465027,-1.2027937173843384
1733404711715973400,5.884973388671875,0.1563815027475357,0.5833762884140015,-1.214400053024292
1733404711725961200,5.894961181640625,0.16493362188339233,0.6444628238677979,-1.120937705039978
1733404711735992800,5.904992919921875,0.14538592100143433,0.6475171446800232,-0.9535606503486633
1733404711745950200,5.9149501953125,0.08124507963657379,0.5204572081565857,-0.6224716901779175
1733404711755981800,5.92498193359375,0.009162978269159794,0.37140607833862305,-0.384845107793808
1733404711765969700,5.9349697265625,-0.07269296050071716,0.19425514340400696,-0.16737708449363708
1733404711775970800,5.944970703125,-0.12278391420841217,0.033597588539123535,-0.00366519158706069
1733404711785959000,5.954958984375,-0.13377949595451355,-0.07757988572120667,0.09651670604944229
1733404711795989800,5.96498974609375,-0.12767083942890167,-0.10323622822761536,0.1215621829032898
1733404711805947600,5.97494775390625,-0.1062905490398407,-0.08918632566928864,0.07635815441608429
1733404711815978800,5.984978759765625,-0.04459316283464432,-0.03237585723400116,-0.06414084881544113
1733404711825967400,5.99496728515625,0.010995574295520782,0.02321287989616394,-0.16310101747512817
1733404711835967700,6.0049677734375,0.07269296050071716,0.09224065393209457,-0.23335053026676178
1733404711845956400,6.014956298828125,0.12461651116609573,0.14294247329235077,-0.2583959996700287
1733404711855987200,6.0249873046875,0.15332718193531036,0.15943582355976105,-0.24007004499435425
1733404711865945300,6.0349453125,0.16371189057826996,0.14905111491680145,-0.18631389737129211
1733404711875976200,6.04497607421875,0.16493362188339233,0.11301007121801376,-0.11056660860776901
1733404711885965000,6.054965087890625,0.16554448008537292,0.06719517707824707,-0.0006108652451075613
1733404711895965400,6.06496533203125,0.17898350954055786,0.04764748737215996,0.048258353024721146
1733404711905953800,6.074953857421875,0.18875735998153687,0.048258353024721146,0.06841690838336945
1733404711915984600,6.084984619140625,0.18509216606616974,0.051312681287527084,0.05742133408784866
1733404711925942800,6.09494287109375,0.18325957655906677,0.05864306539297104,0.021380282938480377
1733404711935974000,6.104973876953125,0.19120082259178162,0.08185594528913498,-0.024434609338641167
1733404711945962500,6.11496240234375,0.19975294172763824,0.11972958594560623,-0.05619960278272629
1733404711955963000,6.124962890625,0.20525072515010834,0.16798794269561768,-0.06780604273080826
1733404711965951500,6.134951416015625,0.21868975460529327,0.21807889640331268,-0.04764748737215996
1733404711975982600,6.144982666015625,0.2217440903186798,0.21502456068992615,-0.015882495790719986
1733404711985971000,6.154970947265625,0.22296582162380219,0.19058994948863983,0.018325956538319588
1733404711995971600,6.1649716796875,0.23029619455337524,0.1514945775270462,0.04581489413976669
1733404712005960000,6.1749599609375,0.21807889640331268,0.09896016865968704,0.05314527451992035
1733404712015991000,6.184990966796875,0.18997909128665924,0.027488935738801956,0.03481931984424591
1733404712025949000,6.194948974609375,0.1472185254096985,-0.04886921867728233,-0.018325956538319588
1733404712035980000,6.20497998046875,0.05497787147760391,-0.13805554807186127,-0.14782938361167908
1733404712045968600,6.21496875,-0.01038470957428217,-0.17470745742321014,-0.22357667982578278
1733404712055969500,6.224969482421875,-0.07452555745840073,-0.20525072515010834,-0.2431243658065796
1733404712065957600,6.23495751953125,-0.11667526513338089,-0.21991148591041565,-0.19425514340400696
1733404712075988500,6.244988525390625,-0.11972958594560623,-0.19914206862449646,-0.08307767659425735
1733404712085946600,6.254946533203125,-0.07391469180583954,-0.14844025671482086,0.060475658625364304
1733404712095977700,6.264977783203125,0.025045474991202354,-0.10445795953273773,0.17776179313659668
1733404712105966000,6.274966064453125,0.22968533635139465,-0.006719517521560192,0.2272418737411499
1733404712115965700,6.284965576171875,0.33108896017074585,0.0757472887635231,0.1722639948129654
1733404712125954800,6.294954833984375,0.36651915311813354,0.11484266817569733,0.0757472887635231
1733404712135985700,6.304985595703125,0.37629300355911255,0.1313360333442688,-0.033597588539123535
1733404712145943800,6.31494384765625,0.35552358627319336,0.11545353382825851,-0.14233160018920898
1733404712155975400,6.324975341796875,0.3084869384765625,0.06475171446800232,-0.25045475363731384
1733404712165963300,6.33496337890625,0.23518311977386475,0.013439035043120384,-0.3585779070854187
1733404712175964200,6.344964111328125,0.14355333149433136,-0.0354301854968071,-0.4392121136188507
1733404712185952300,6.3549521484375,0.039706241339445114,-0.03420845419168472,-0.36713001132011414
1733404712195983400,6.3649833984375,0.003054326167330146,0.05864306539297104,-0.1417207419872284
1733404712205941200,6.374941162109375,-0.03726277872920036,0.1472185254096985,0.20402899384498596
1733404712215973400,6.384973388671875,0.016493361443281174,0.17470745742321014,0.6133087277412415
1733404712225961200,6.394961181640625,0.14538592100143433,0.2278527319431305,1.0109820365905762
1733404712235991300,6.4049912109375,0.30115658044815063,0.31520646810531616,1.3622294664382935
1733404712245950200,6.4149501953125,0.45631635189056396,0.37201693654060364,1.5925257205963135
1733404712255982600,6.424982666015625,0.656069278717041,0.37262779474258423,1.5827518701553345
1733404712265970000,6.434969970703125,0.7122688889503479,0.32131510972976685,1.3475687503814697
1733404712275971800,6.444971923828125,0.6896668672561646,0.22296582162380219,0.9810495972633362
1733404712285959000,6.454958984375,0.607200026512146,0.06108652427792549,0.5473352670669556
1733404712295991300,6.4649912109375,0.5082398653030396,-0.1319468915462494,0.10262536257505417
1733404712305948000,6.474947998046875,0.38667771220207214,-0.31581732630729675,-0.3127630054950714
1733404712315979300,6.484979248046875,0.2889392673969269,-0.423329621553421,-0.6426302194595337
1733404712325967000,6.494967041015625,0.20036379992961884,-0.4153883755207062,-0.9645562171936035
1733404712335968300,6.50496826171875,0.17531833052635193,-0.30970868468284607,-1.0781772136688232
1733404712345956400,6.514956298828125,0.18570303916931152,-0.18387043476104736,-1.0934487581253052
1733404712355987700,6.52498779296875,0.20525072515010834,-0.025045474991202354,-1.004873275756836
1733404712365945300,6.5349453125,0.21991148591041565,0.10201449692249298,-0.8142833709716797
1733404712375977000,6.54497705078125,0.21441370248794556,0.1508837193250656,-0.5522221922874451
1733404712385965000,6.554965087890625,0.19486601650714874,0.10934487730264664,-0.2773328125476837
1733404712395966000,6.564966064453125,0.17287486791610718,0.016493361443281174,-0.051312681287527084
1733404712405953800,6.574953857421875,0.15271630883216858,-0.12767083942890167,0.13927727937698364
1733404712415985700,6.584985595703125,0.14905111491680145,-0.18814650177955627,0.17959438264369965
1733404712425942800,6.59494287109375,0.15027284622192383,-0.22968533635139465,0.1918116807937622
1733404712435973600,6.6049736328125,0.1563815027475357,-0.24556782841682434,0.17837265133857727
1733404712445962500,6.61496240234375,0.18325957655906677,-0.23396138846874237,0.13927727937698364
1733404712455963000,6.624962890625,0.24190263450145721,-0.2076941877603531,0.10934487730264664
1733404712465951500,6.634951416015625,0.3029891550540924,-0.17287486791610718,0.05864306539297104
1733404712475982600,6.644982666015625,0.3732386529445648,-0.09896016865968704,-0.04398229718208313
1733404712485971200,6.65497119140625,0.37690386176109314,-0.06108652427792549,-0.0861319974064827
1733404712495971600,6.6649716796875,0.35552358627319336,-0.0507018156349659,-0.10262536257505417
1733404712505960000,6.6749599609375,0.3121521472930908,-0.0403171069920063,-0.09285151958465576
1733404712515991800,6.68499169921875,0.2535090744495392,-0.04703662544488907,-0.05314527451992035
1733404712525949000,6.694948974609375,0.19486601650714874,-0.0507018156349659,0.013439035043120384
1733404712535980800,6.704980712890625,0.12767083942890167,-0.06108652427792549,0.09529497474431992
1733404712545968600,6.71496875,0.021991148591041565,-0.10934487730264664,0.20463985204696655
1733404712555969500,6.724969482421875,-0.04581489413976669,-0.15332718193531036,0.2382374405860901
1733404712565957600,6.73495751953125,-0.10018189996480942,-0.18570303916931152,0.2217440903186798
1733404712575988200,6.74498828125,-0.1319468915462494,-0.1918116807937622,0.17470745742321014
1733404712585946600,6.754946533203125,-0.13805554807186127,-0.1472185254096985,0.11667526513338089
1733404712595977700,6.764977783203125,-0.11667526513338089,-0.0757472887635231,0.06108652427792549
1733404712605966000,6.774966064453125,-0.06841690838336945,0,0.022602014243602753
1733404712615966700,6.784966796875,-0.02382374368607998,0.06108652427792549,0.009162978269159794
1733404712625955000,6.794955078125,0.00733038317412138,0.08185594528913498,0.007941247895359993
1733404712635986200,6.804986083984375,0.013439035043120384,0.04948008432984352,0.010995574295520782
1733404712645944000,6.814944091796875,0.012828170321881771,-0.015271631069481373,0.012217304669320583
1733404712655975200,6.82497509765625,0.0012217304902151227,-0.06963863968849182,0.018936822190880775
1733404712665963800,6.8349638671875,-0.01771509274840355,-0.12095131725072861,0.02932153269648552
1733404712675964000,6.8449638671875,-0.039095375686883926,-0.17531833052635193,0.042760565876960754
1733404712685952800,6.854952880859375,-0.07269296050071716,-0.23945917189121246,0.060475658625364304
1733404712695983600,6.864983642578125,-0.16432274878025055,-0.3549126982688904,0.10262536257505417
1733404712705941800,6.874941650390625,-0.23945917189121246,-0.43188172578811646,0.1264491081237793
1733404712715973400,6.884973388671875,-0.31031954288482666,-0.47769662737846375,0.13805554807186127
1733404712725961200,6.894961181640625,-0.384845107793808,-0.46670106053352356,0.15577064454555511
1733404712735992800,6.904992919921875,-0.4642575979232788,-0.39645153284072876,0.19303341209888458
1733404712745950200,6.9149501953125,-0.53328537940979,-0.29626965522766113,0.23029619455337524
1733404712755981800,6.92498193359375,-0.5729916095733643,-0.2217440903186798,0.242513507604599
1733404712765969700,6.9349697265625,-0.5992587804794312,-0.12828169763088226,0.16493362188339233
1733404712775970800,6.944970703125,-0.6120869517326355,-0.12278391420841217,0.05192354694008827
1733404712785959000,6.954958984375,-0.6218608021736145,-0.11423180252313614,-0.07757988572120667
1733404712795990500,6.964990478515625,-0.627358615398407,-0.08674286305904388,-0.19425514340400696
1733404712805948000,6.974947998046875,-0.6224716901779175,-0.030543262138962746,-0.24862214922904968
1733404712815979500,6.9849794921875,-0.617584764957428,0.054367005825042725,-0.2021963894367218
1733404712825967400,6.99496728515625,-0.6023131608963013,0.15393804013729095,-0.04581489413976669
1733404712835968500,7.004968505859375,-0.5674937963485718,0.2376265823841095,0.19914206862449646
1733404712845956400,7.014956298828125,-0.4996877610683441,0.36713001132011414,0.6065891981124878
1733404712855987700,7.02498779296875,-0.45204028487205505,0.43737950921058655,0.8210029006004333
1733404712865945300,7.0349453125,-0.39767327904701233,0.4440990388393402,0.9425650835037231
1733404712875976400,7.0449765625,-0.36224308609962463,0.3885102868080139,0.9492846131324768
1733404712885965000,7.054965087890625,-0.3646865487098694,0.2742784917354584,0.8460483551025391
1733404712895964700,7.064964599609375,-0.38179078698158264,0.1270599663257599,0.656680166721344
1733404712905954000,7.0749541015625,-0.3952298164367676,-0.007941247895359993,0.4031710624694824
1733404712915985200,7.084985107421875,-0.38117989897727966,-0.12400564551353455,-0.04642575979232788
1733404712925942800,7.09494287109375,-0.35063666105270386,-0.12400564551353455,-0.3481931984424591
1733404712935974700,7.104974609375,-0.31154128909111023,-0.07513642311096191,-0.626747727394104
1733404712945962500,7.11496240234375,-0.28466320037841797,-0.015882495790719986,-0.8521569967269897
1733404712955963400,7.12496337890625,-0.27122417092323303,0.04703662544488907,-0.998153805732727
1733404712965951500,7.134951416015625,-0.2638937830924988,0.11178833991289139,-1.0494664907455444
1733404712975982800,7.14498291015625,-0.2541199326515198,0.17409659922122955,-1.0036516189575195
1733404712985971200,7.15497119140625,-0.21563543379306793,0.2577851414680481,-0.7965682744979858
1733404712995972000,7.16497216796875,-0.1820378452539444,0.2834414839744568,-0.6090326309204102
1733404713005960000,7.1749599609375,-0.15882496535778046,0.27488934993743896,-0.4196644127368927
1733404713015991600,7.184991455078125,-0.13561208546161652,0.24984388053417206,-0.25961771607398987
1733404713025949000,7.194948974609375,-0.10384709388017654,0.2168571650981903,-0.14477506279945374
1733404713035980500,7.20498046875,-0.06291911751031876,0.18936823308467865,-0.06230825558304787
1733404713045968600,7.21496875,-0.015271631069481373,0.15882496535778046,-0.01038470957428217
1733404713055969300,7.22496923828125,0.03726277872920036,0.1466076523065567,0.028099801391363144
1733404713065957600,7.23495751953125,0.11056660860776901,0.16065755486488342,0.06902777403593063
1733404713075989200,7.2449892578125,0.1459967941045761,0.21074850857257843,0.08674286305904388
1733404713085946600,7.254946533203125,0.1667662113904953,0.23945917189121246,0.09529497474431992
1733404713095978200,7.264978271484375,0.1765400618314743,0.23273965716362,0.09346238523721695
1733404713105994500,7.274994384765625,0.18448130786418915,0.19120082259178162,0.07635815441608429
1733404713115966200,7.28496630859375,0.19486601650714874,0.13805554807186127,0.04459316283464432
1733404713125954800,7.294954833984375,0.2076941877603531,0.09651670604944229,0.010995574295520782
1733404713135986400,7.304986328125,0.24678955972194672,0.07819075137376785,-0.04398229718208313
1733404713145943800,7.31494384765625,0.2919935882091522,0.0861319974064827,-0.08124507963657379
1733404713155975400,7.324975341796875,0.3604104816913605,0.09896016865968704,-0.11545353382825851
1733404713165963300,7.33496337890625,0.44287729263305664,0.13255776464939117,-0.13927727937698364
1733404713175964400,7.34496435546875,0.5247332453727722,0.18448130786418915,-0.1459967941045761
1733404713185952300,7.3549521484375,0.59803706407547,0.22357667982578278,-0.14355333149433136
1733404713195984000,7.36498388671875,0.646906316280365,0.22663100063800812,-0.13988813757896423
1733404713205941200,7.374941162109375,0.6780604124069214,0.1771509200334549,-0.15577064454555511
1733404713215973400,7.384973388671875,0.6792821288108826,0.1270599663257599,-0.16310101747512817
1733404713225961200,7.394961181640625,0.684779942035675,0.07757988572120667,-0.15760323405265808
1733404713235992800,7.404992919921875,0.7024950385093689,0.06536258012056351,-0.12400564551353455
1733404713245950200,7.4149501953125,0.7415903806686401,0.08491026610136032,-0.04764748737215996
1733404713255981800,7.42498193359375,0.788627028465271,0.1111774742603302,0.06475171446800232
1733404713265970000,7.434969970703125,0.8319984674453735,0.11178833991289139,0.20586158335208893
1733404713275971000,7.44497119140625,0.8588765263557434,0.05742133408784866,0.3481931984424591
1733404713285959000,7.454958984375,0.8778133392333984,-0.06230825558304787,0.50335294008255
1733404713295990500,7.464990478515625,0.8808676600456238,-0.1270599663257599,0.5601634383201599
1733404713305947600,7.47494775390625,0.8698720932006836,-0.15332718193531036,0.5949827432632446
1733404713315979500,7.4849794921875,0.8698720932006836,-0.11239920556545258,0.6047565937042236
1733404713325967400,7.49496728515625,0.8833111524581909,-0.02687807008624077,0.5876523852348328
1733404713335968500,7.504968505859375,0.9034696817398071,0.13316862285137177,0.5057964324951172
1733404713345956400,7.514956298828125,0.9340129494667053,0.17409659922122955,0.3286454975605011
1733404713355988000,7.524988037109375,0.930347740650177,0.06414084881544113,0.08124507963657379
1733404713365945300,7.5349453125,0.9040805697441101,0.005497787147760391,-0.0024434609804302454
1733404713375977000,7.54497705078125,0.8613200187683105,-0.06719517707824707,-0.10445795953273773
1733404713385965000,7.554965087890625,0.8203920125961304,-0.11056660860776901,-0.2376265823841095
1733404713395966000,7.564966064453125,0.7861835956573486,-0.0659734457731247,-0.3543018400669098
1733404713405953800,7.574953857421875,0.7586946487426758,0.08735372871160507,-0.4086688458919525
1733404713415985700,7.584985595703125,0.7770205736160278,0.2828305959701538,-0.3738495409488678
1733404713425943000,7.594943115234375,0.8240572214126587,0.5015203952789307,-0.09040805697441101
1733404713435974700,7.604974609375,0.8686503767967224,0.5900958180427551,0.22968533635139465
1733404713445962500,7.61496240234375,0.9419541954994202,0.617584764957428,0.5436700582504272
1733404713455963400,7.62496337890625,1.0305296182632446,0.6004805564880371,0.7556403279304504
1733404713465951500,7.634951416015625,1.1368201971054077,0.5748242139816284,0.8130616545677185
1733404713475981800,7.64498193359375,1.2620476484298706,0.5381723046302795,0.7232644557952881
1733404713485971200,7.65497119140625,1.357953429222107,0.5326744914054871,0.5229006409645081
1733404713495970800,7.664970703125,1.4220943450927734,0.5681046843528748,0.2541199326515198
1733404713505960000,7.6749599609375,1.518610954284668,0.5674937963485718,-0.18570303916931152
1733404713515990500,7.684990478515625,1.5986343622207642,0.5595525503158569,-0.4440990388393402
1733404713525949000,7.694948974609375,1.6798794269561768,0.5632177591323853,-0.6438519954681396
1733404713535979500,7.7049794921875,1.7678439617156982,0.5613851547241211,-0.7770205736160278
1733404713545968400,7.714968505859375,1.8374826908111572,0.5772676467895508,-0.8228355050086975
1733404713555968500,7.724968505859375,1.8949040174484253,0.6023131608963013,-0.7837401032447815
1733404713565957600,7.73495751953125,1.9327776432037354,0.5992587804794312,-0.6805039048194885
1733404713575988000,7.744988037109375,1.9352210760116577,0.4917465150356293,-0.4434881806373596
1733404713585946600,7.754946533203125,1.9083430767059326,0.36713001132011414,-0.2840523421764374
1733404713595977000,7.76497705078125,1.8509217500686646,0.2474004179239273,-0.16310101747512817
1733404713605965800,7.7749658203125,1.7831156253814697,0.11484266817569733,-0.09468411654233932
1733404713615966000,7.784966064453125,1.7146987915039062,0.04398229718208313,-0.08735372871160507
1733404713625955000,7.794955078125,1.6597208976745605,0.02321287989616394,-0.13744467496871948
1733404713635985700,7.804985595703125,1.6273449659347534,0.025045474991202354,-0.20952677726745605
1733404713645944000,7.814944091796875,1.6303993463516235,0.04459316283464432,-0.3023782968521118
1733404713655974400,7.824974365234375,1.6682729721069336,0.10934487730264664,-0.3066543638706207
1733404713665963800,7.8349638671875,1.739133358001709,0.19608774781227112,-0.25473082065582275
1733404713675963400,7.84496337890625,1.8362609148025513,0.2736676335334778,-0.16004669666290283
1733404713685952800,7.854952880859375,1.9449949264526367,0.34513887763023376,-0.042760565876960754
1733404713695982800,7.86498291015625,2.051896333694458,0.40194934606552124,0.06902777403593063
1733404713705941800,7.874941650390625,2.1447479724884033,0.4434881806373596,0.14844025671482086
1733404713715972000,7.88497216796875,2.213775634765625,0.47219884395599365,0.18509216606616974
1733404713725961200,7.894961181640625,2.27852725982666,0.5009095072746277,0.17470745742321014
1733404713735991800,7.90499169921875,2.299907684326172,0.5015203952789307,0.13866640627384186
1733404713745950200,7.9149501953125,2.3072381019592285,0.4801400899887085,0.08002334833145142
1733404713755981800,7.92498193359375,2.3096814155578613,0.45142942667007446,0.015271631069481373
1733404713765969700,7.9349697265625,2.314568519592285,0.4288274049758911,-0.04337143152952194
1733404713775971000,7.94497119140625,2.326174736022949,0.40256020426750183,-0.09529497474431992
1733404713785959000,7.954958984375,2.336559534072876,0.36102136969566345,-0.14294247329235077
1733404713795990500,7.964990478515625,2.3579399585723877,0.3121521472930908,-0.22907446324825287
1733404713805948000,7.974947998046875,2.381152629852295,0.3090978264808655,-0.29016098380088806
1733404713815979500,7.9849794921875,2.4019222259521484,0.33658674359321594,-0.3323107063770294
1733404713825967400,7.99496728515625,2.4275784492492676,0.3744603991508484,-0.3500257730484009
1733404713835968500,8.004968505859376,2.4495697021484375,0.40256020426750183,-0.3378084897994995
1733404713845956400,8.014956298828125,2.465452194213867,0.42149701714515686,-0.29565876722335815
1733404713855988200,8.02498828125,2.4770586490631104,0.4282165467739105,-0.23273965716362
1733404713865945300,8.0349453125,2.4666738510131836,0.4129449129104614,-0.10812314599752426
1733404713875977000,8.04497705078125,2.4300220012664795,0.3793473243713379,-0.025045474991202354
1733404713885965000,8.054965087890626,2.372600555419922,0.32559117674827576,0.04642575979232788
1733404713895966000,8.064966064453126,2.3078489303588867,0.2724458873271942,0.09957103431224823
1733404713905953800,8.074953857421875,2.233323335647583,0.23151792585849762,0.1368338167667389
1733404713915985700,8.084985595703126,2.147191286087036,0.17898350954055786,0.16371189057826996
1733404713925942800,8.09494287109375,2.065946340560913,0.12461651116609573,0.1765400618314743
1733404713935974700,8.104974609375,2.0024163722991943,0.09040805697441101,0.16920967400074005
1733404713945962500,8.11496240234375,1.9413297176361084,0.1007927656173706,0.11423180252313614
1733404713955963600,8.124963623046876,1.9144517183303833,0.1319468915462494,0.0354301854968071
1733404713965951500,8.134951416015625,1.8887953758239746,0.15760323405265808,-0.05803219974040985
1733404713975983000,8.144983154296876,1.8564194440841675,0.17898350954055786,-0.14049901068210602
1733404713985971200,8.15497119140625,1.82404363155365,0.182648703455925,-0.192422553896904
1733404713995970800,8.164970703125,1.7898352146148682,0.17409659922122955,-0.20097467303276062
1733404714005960000,8.1749599609375,1.7562376260757446,0.1508837193250656,-0.16737708449363708
1733404714015990300,8.184990234375,1.7049249410629272,0.09773843735456467,-0.05742133408784866
1733404714025949000,8.194948974609375,1.6627751588821411,0.05314527451992035,0.03787364438176155
1733404714035979800,8.204979736328125,1.6279559135437012,0.039706241339445114,0.13805554807186127
1733404714045968400,8.214968505859375,1.6114624738693237,0.059864792972803116,0.23457226157188416
1733404714055968500,8.224968505859374,1.6139060258865356,0.12278391420841217,0.31459560990333557
1733404714065957600,8.23495751953125,1.6316211223602295,0.23151792585849762,0.3744603991508484
1733404714075988200,8.24498828125,1.653001308441162,0.3543018400669098,0.4043927788734436
1733404714085946600,8.254946533203125,1.632842779159546,0.47830748558044434,0.35246923565864563
1733404714095977200,8.264977294921875,1.5833626985549927,0.48319441080093384,0.2571742534637451
1733404714105966000,8.274966064453125,1.5125023126602173,0.4502076804637909,0.11850785464048386
1733404714115965200,8.284965087890624,1.4196507930755615,0.3854559659957886,-0.036651913076639175
1733404714125954800,8.294954833984375,1.2986994981765747,0.2889392673969269,-0.1820378452539444
1733404714135985200,8.304985107421874,1.178359031677246,0.17470745742321014,-0.2883284091949463
1733404714145943800,8.31494384765625,1.0885618925094604,0.08124507963657379,-0.33047810196876526
1733404714155975400,8.324975341796875,1.0390818119049072,0.036651913076639175,-0.30543261766433716
1733404714165963300,8.33496337890625,1.0299187898635864,0.05192354694008827,-0.16432274878025055
1733404714175964400,8.34496435546875,1.0476338863372803,0.08857546001672745,-0.03848451003432274
1733404714185952300,8.3549521484375,1.0574077367782593,0.11850785464048386,0.0555887371301651
1733404714195982600,8.364982666015624,1.0494664907455444,0.1417207419872284,0.07941248267889023
1733404714205941200,8.374941162109375,1.015868902206421,0.1459967941045761,0.024434609338641167
1733404714215972000,8.38497216796875,0.9334021210670471,0.11911872029304504,-0.09285151958465576
1733404714225961200,8.394961181640625,0.8161159753799438,0.05253441259264946,-0.23151792585849762
1733404714235991800,8.40499169921875,0.6261368989944458,-0.0659734457731247,-0.39645153284072876
1733404714245950200,8.4149501953125,0.5265658497810364,-0.13866640627384186,-0.4502076804637909
1733404714255982000,8.424982177734375,0.45753806829452515,-0.20830504596233368,-0.46242499351501465
1733404714265970000,8.434969970703126,0.4178318381309509,-0.26145032048225403,-0.43799036741256714
1733404714275970300,8.44497021484375,0.4245513379573822,-0.27611109614372253,-0.4043927788734436
1733404714285959000,8.454958984375,0.46731191873550415,-0.24373523890972137,-0.38667771220207214
1733404714295990300,8.464990234375,0.4801400899887085,-0.17104226350784302,-0.39156460762023926
1733404714305947600,8.47494775390625,0.46670106053352356,-0.051312681287527084,-0.4153883755207062
1733404714315979500,8.4849794921875,0.40256020426750183,0.08735372871160507,-0.4349360466003418
1733404714325967400,8.49496728515625,0.3280346393585205,0.09407325088977814,-0.44715335965156555
1733404714335968500,8.504968505859376,0.22113321721553802,0.029932396486401558,-0.44226643443107605
1733404714345956400,8.514956298828125,0.12522737681865692,-0.07330382615327835,-0.4098905920982361
1733404714355987700,8.52498779296875,0.048258353024721146,-0.16249015927314758,-0.3445279896259308
1733404714365945300,8.5349453125,-0.012828170321881771,-0.23029619455337524,-0.2370157092809677
1733404714375976200,8.54497607421875,-0.03726277872920036,-0.2626720666885376,-0.10751228034496307
1733404714385965000,8.554965087890626,0,-0.22479841113090515,0.08307767659425735
1733404714395965400,8.56496533203125,0.04214970022439957,-0.17104226350784302,0.17043140530586243
1733404714405953800,8.574953857421875,0.08307767659425735,-0.09957103431224823,0.21380282938480377
1733404714415985000,8.58498486328125,0.11545353382825851,-0.0354301854968071,0.21135938167572021
1733404714425942800,8.59494287109375,0.12828169763088226,-0.01160643994808197,0.15943582355976105
1733404714435974000,8.604973876953125,0.12095131725072861,-0.024434609338641167,0.0659734457731247
1733404714445962500,8.61496240234375,0.09651670604944229,-0.05314527451992035,-0.04703662544488907
1733404714455963000,8.624962890625,0.025045474991202354,-0.09834930300712585,-0.19853121042251587
1733404714465951500,8.634951416015625,-0.01771509274840355,-0.10995574295520782,-0.252287358045578
1733404714475982800,8.64498291015625,-0.05619960278272629,-0.10995574295520782,-0.25106561183929443
1733404714485971200,8.65497119140625,-0.08002334833145142,-0.11056660860776901,-0.19608774781227112
1733404714495971800,8.664971923828125,-0.08002334833145142,-0.0708603709936142,-0.10201449692249298
1733404714505960000,8.6749599609375,-0.056810468435287476,-0.004886921960860491,0.010995574295520782
1733404714515990800,8.68499072265625,-0.02687807008624077,0.02871066704392433,0.11484266817569733
1733404714525949000,8.694948974609375,-0.009162978269159794,0.02932153269648552,0.18387043476104736
1733404714535980000,8.70497998046875,0.00366519158706069,0.05497787147760391,0.20525072515010834
1733404714545968400,8.714968505859375,0.018936822190880775,0.09834930300712585,0.1820378452539444
1733404714555969300,8.72496923828125,0.04581489413976669,0.15454891324043274,0.1514945775270462
1733404714565957600,8.73495751953125,0.08796459436416626,0.19303341209888458,0.12278391420841217
1733404714575988500,8.744988525390625,0.13805554807186127,0.21013765037059784,0.09224065393209457
1733404714585946600,8.754946533203125,0.1716531366109848,0.23151792585849762,0.04764748737215996
1733404714595977500,8.7649775390625,0.1722639948129654,0.26939156651496887,-0.0024434609804302454
1733404714605966000,8.774966064453125,0.13377949595451355,0.30482175946235657,-0.07391469180583954
1733404714615966200,8.78496630859375,0.0861319974064827,0.28588494658470154,-0.0959058403968811
1733404714625955000,8.794955078125,0.014049900695681572,0.2535090744495392,-0.08368854224681854
1733404714635986700,8.804986572265625,-0.0708603709936142,0.2321287989616394,-0.03176499158143997
1733404714645944000,8.814944091796875,-0.13561208546161652,0.22968533635139465,0.05742133408784866
1733404714655975200,8.82497509765625,-0.17592918872833252,0.21991148591041565,0.17043140530586243
1733404714665963800,8.8349638671875,-0.19425514340400696,0.2119702398777008,0.28099802136421204
1733404714675964200,8.844964111328125,-0.18997909128665924,0.2174680233001709,0.40072759985923767
1733404714685952800,8.854952880859376,-0.16493362188339233,0.23151792585849762,0.4331034719944
1733404714695983600,8.864983642578125,-0.1270599663257599,0.2565633952617645,0.4251621961593628
1733404714705941800,8.874941650390625,-0.07696902006864548,0.30604347586631775,0.384845107793808
1733404714715972600,8.88497265625,-0.022602014243602753,0.39156460762023926,0.3188716471195221
1733404714725961200,8.894961181640625,0.03176499158143997,0.5192354321479797,0.2382374405860901
1733404714735992300,8.904992431640625,0.07269296050071716,0.6627888083457947,0.14782938361167908
1733404714745950200,8.9149501953125,0.1007927656173706,0.7776314616203308,0.04703662544488907
1733404714755981300,8.924981201171875,0.09834930300712585,0.8045095205307007,-0.1007927656173706
1733404714765969700,8.9349697265625,0.06352998316287994,0.7049384713172913,-0.17592918872833252
1733404714775970300,8.94497021484375,-0.012217304669320583,0.5229006409645081,-0.2272418737411499
1733404714785959000,8.954958984375,-0.11423180252313614,0.294437050819397,-0.24984388053417206
1733404714795989800,8.96498974609375,-0.21563543379306793,0.06780604273080826,-0.24495697021484375
1733404714805948000,8.974947998046876,-0.29138273000717163,-0.11301007121801376,-0.21991148591041565
1733404714815979000,8.98497900390625,-0.3396410644054413,-0.22479841113090515,-0.1875356286764145
1733404714825967400,8.99496728515625,-0.3701843321323395,-0.3017674386501312,-0.1569923609495163
1733404714835968000,9.004968017578125,-0.3689626157283783,-0.3029891550540924,-0.14416420459747314
1733404714845956400,9.014956298828125,-0.3530801236629486,-0.2822197377681732,-0.11972958594560623
1733404714855987500,9.024987548828125,-0.32620203495025635,-0.26022860407829285,-0.09346238523721695
1733404714865945300,9.0349453125,-0.2822197377681732,-0.22846360504627228,-0.05864306539297104
1733404714875976400,9.0449765625,-0.23335053026676178,-0.18448130786418915,-0.015882495790719986
1733404714885965000,9.054965087890626,-0.1814269721508026,-0.1368338167667389,0.033597588539123535
1733404714895965700,9.064965576171875,-0.12095131725072861,-0.07635815441608429,0.10995574295520782
1733404714905953800,9.074953857421875,-0.0959058403968811,-0.0659734457731247,0.15454891324043274
1733404714915984600,9.084984619140625,-0.08491026610136032,-0.09162978827953339,0.19303341209888458
1733404714925942800,9.09494287109375,-0.08796459436416626,-0.13561208546161652,0.2321287989616394
1733404714935974000,9.104973876953125,-0.11362093687057495,-0.1661553531885147,0.2779437005519867
1733404714945962500,9.11496240234375,-0.14477506279945374,-0.18387043476104736,0.3243694305419922
1733404714955963000,9.124962890625,-0.1667662113904953,-0.20463985204696655,0.35246923565864563
1733404714965951500,9.134951416015625,-0.18631389737129211,-0.2321287989616394,0.3543018400669098
1733404714975982600,9.144982666015625,-0.20891591906547546,-0.2681698501110077,0.3139847218990326
1733404714985971200,9.15497119140625,-0.1973094791173935,-0.27488934993743896,0.27977627515792847
1733404714995971600,9.1649716796875,-0.15760323405265808,-0.25534167885780334,0.2474004179239273
1733404715005960000,9.1749599609375,-0.10567969083786011,-0.2168571650981903,0.21991148591041565
1733404715015991000,9.184990966796875,-0.06414084881544113,-0.18325957655906677,0.1820378452539444
1733404715025949000,9.194948974609375,-0.036651913076639175,-0.16493362188339233,0.11667526513338089
1733404715035980500,9.20498046875,-0.02076941914856434,-0.1472185254096985,0.03726277872920036
1733404715045968600,9.21496875,-0.00366519158706069,-0.09285151958465576,-0.08674286305904388
1733404715055969500,9.224969482421875,-0.005497787147760391,-0.04337143152952194,-0.14477506279945374
1733404715065957600,9.23495751953125,-0.012828170321881771,0.007941247895359993,-0.16859880089759827
1733404715075989200,9.2449892578125,-0.022602014243602753,0.06475171446800232,-0.13866640627384186
1733404715085946600,9.254946533203125,-0.042760565876960754,0.10751228034496307,-0.051312681287527084
1733404715095978200,9.264978271484376,-0.06658431142568588,0.13805554807186127,0.0910189226269722
1733404715105991200,9.2749912109375,-0.09468411654233932,0.15027284622192383,0.2669481039047241
1733404715115966200,9.28496630859375,-0.1569923609495163,0.14233160018920898,0.5296201705932617
1733404715125954800,9.294954833984375,-0.20891591906547546,0.1459967941045761,0.6884451508522034
1733404715135986200,9.304986083984375,-0.2583959996700287,0.13561208546161652,0.8289441466331482
1733404715145943800,9.31494384765625,-0.3072652220726013,0.11789698898792267,0.9388998746871948
1733404715155974000,9.324973876953125,-0.35552358627319336,0.09957103431224823,1.0128145217895508
1733404715165963300,9.33496337890625,-0.4050036668777466,0.05803219974040985,1.0231993198394775
1733404715175963000,9.344962890625,-0.455705463886261,0.01038470957428217,0.9755517840385437
1733404715185952300,9.3549521484375,-0.50335294008255,-0.022602014243602753,0.8772025108337402
1733404715195982600,9.364982666015624,-0.5375614166259766,-0.02687807008624077,0.6682865619659424
1733404715205941200,9.374941162109375,-0.5369505286216736,-0.013439035043120384,0.48747047781944275
1733404715215972000,9.38497216796875,-0.5161811113357544,0.009162978269159794,0.2791654169559479
1733404715225961200,9.394961181640625,-0.47280970215797424,0.01466076634824276,0.0507018156349659
1733404715235992300,9.404992431640625,-0.4190535545349121,-0.015271631069481373,-0.17287486791610718
1733404715245950200,9.4149501953125,-0.3640756905078888,-0.08246681094169617,-0.37262779474258423
1733404715255981800,9.42498193359375,-0.32620203495025635,-0.16859880089759827,-0.543059229850769
1733404715265969700,9.4349697265625,-0.31581732630729675,-0.2773328125476837,-0.7098253965377808
1733404715275970800,9.444970703125,-0.32009339332580566,-0.3494149148464203,-0.7635815739631653
1733404715285959000,9.454958984375,-0.3194825351238251,-0.41722095012664795,-0.7764097452163696
1733404715295990300,9.464990234375,-0.30604347586631775,-0.4239404797554016,-0.759305477142334
1733404715305948000,9.474947998046876,-0.29565876722335815,-0.4001167416572571,-0.7098253965377808
1733404715315979500,9.4849794921875,-0.30054569244384766,-0.36590829491615295,-0.6236934065818787
1733404715325967400,9.49496728515625,-0.3280346393585205,-0.3481931984424591,-0.504574716091156
1733404715335968500,9.504968505859376,-0.4184426963329315,-0.3384193480014801,-0.3078760802745819
1733404715345956400,9.514956298828125,-0.49235737323760986,-0.375071257352829,-0.18875735998153687
1733404715355987500,9.524987548828125,-0.5705481171607971,-0.4282165467739105,-0.08307767659425735
1733404715365945300,9.5349453125,-0.646295428276062,-0.4807509481906891,-0.004886921960860491
1733404715375976400,9.5449765625,-0.7141014933586121,-0.5192354321479797,0.03848451003432274
1733404715385965000,9.554965087890626,-0.7654141783714294,-0.53328537940979,0.05192354694008827
1733404715395965700,9.564965576171875,-0.789237916469574,-0.5167919993400574,0.04764748737215996
1733404715405953800,9.574953857421875,-0.7806857824325562,-0.46731191873550415,0.0354301854968071
1733404715415985200,9.584985107421875,-0.7067710757255554,-0.3384193480014801,0.028099801391363144
1733404715425942800,9.59494287109375,-0.6206390857696533,-0.251676470041275,0.03726277872920036
1733404715435974000,9.604973876953125,-0.5088507533073425,-0.17837265133857727,0.04459316283464432
1733404715445962500,9.61496240234375,-0.38667771220207214,-0.11056660860776901,0.036041051149368286
1733404715455963100,9.624963134765625,-0.2669481039047241,-0.045204028487205505,0.0006108652451075613
1733404715465951500,9.634951416015625,-0.16982053220272064,-0.001832595793530345,-0.06536258012056351
1733404715475982600,9.644982666015625,-0.10567969083786011,0.025656340643763542,-0.14355333149433136
1733404715485971200,9.65497119140625,-0.04703662544488907,0.04948008432984352,-0.25595253705978394
1733404715495971300,9.664971435546875,-0.021380282938480377,0.06719517707824707,-0.3121521472930908
1733404715505960000,9.6749599609375,0.0012217304902151227,0.11850785464048386,-0.34513887763023376
1733404715515990800,9.68499072265625,0.025656340643763542,0.1918116807937622,-0.34758231043815613
1733404715525949000,9.694948974609375,0.054367005825042725,0.2987131178379059,-0.30054569244384766
1733404715535979800,9.704979736328125,0.0910189226269722,0.4098905920982361,-0.20341812074184418
1733404715545968600,9.71496875,0.13744467496871948,0.5027421116828918,-0.054367005825042725
1733404715555969000,9.724968994140625,0.23457226157188416,0.6524040699005127,0.23029619455337524
1733404715565957600,9.73495751953125,0.28649580478668213,0.6725626587867737,0.42149701714515686
1733404715575988700,9.74498876953125,0.29504790902137756,0.6432411074638367,0.5613851547241211
1733404715585946600,9.754946533203125,0.2669481039047241,0.5858197808265686,0.617584764957428
1733404715595977700,9.764977783203125,0.19364428520202637,0.4954117238521576,0.5754350423812866
1733404715605966000,9.774966064453125,0.06169738993048668,0.34208452701568604,0.4386012554168701
1733404715615966500,9.784966552734375,-0.10567969083786011,0.1514945775270462,0.24373523890972137
1733404715625955000,9.794955078125,-0.23518311977386475,-0.024434609338641167,0.04337143152952194
1733404715635986200,9.804986083984375,-0.23273965716362,-0.19486601650714874,-0.15821409225463867
1733404715645944000,9.814944091796875,-0.13377949595451355,-0.23396138846874237,-0.2168571650981903
1733404715655975200,9.82497509765625,0.00733038317412138,-0.22357667982578278,-0.24495697021484375
1733404715665963800,9.8349638671875,0.16432274878025055,-0.1508837193250656,-0.25534167885780334
1733404715675964200,9.844964111328125,0.2987131178379059,-0.04459316283464432,-0.2590068578720093
1733404715685952800,9.854952880859376,0.3952298164367676,0.03237585723400116,-0.27977627515792847
1733404715695983900,9.86498388671875,0.44715335965156555,0.06352998316287994,-0.32559117674827576
1733404715705941800,9.874941650390625,0.41172316670417786,0.021380282938480377,-0.4550946056842804
1733404715715972400,9.884972412109375,0.3139847218990326,-0.0507018156349659,-0.5809328556060791
1733404715725961200,9.894961181640625,0.19486601650714874,-0.14294247329235077,-0.7153232097625732
1733404715735992800,9.904992919921876,0.08124507963657379,-0.22418753802776337,-0.8142833709716797
1733404715745950200,9.9149501953125,-0.015271631069481373,-0.2883284091949463,-0.8588765263557434
1733404715755981600,9.924981689453125,-0.0861319974064827,-0.313373863697052,-0.7965682744979858
1733404715765970000,9.934969970703126,-0.11667526513338089,-0.2791654169559479,-0.5833762884140015
1733404715775970800,9.944970703125,-0.059864792972803116,-0.192422553896904,0.04337143152952194
1733404715785959000,9.954958984375,0.01466076634824276,-0.16432274878025055,0.5937610268592834
1733404715795990300,9.964990234375,0.09529497474431992,-0.16859880089759827,1.120937705039978
1733404715805948000,9.974947998046876,0.1875356286764145,-0.16432274878025055,1.531439185142517
1733404715815978200,9.984978271484374,0.2840523421764374,-0.1765400618314743,1.748907208442688
1733404715825967400,9.99496728515625,0.3799581825733185,-0.1973094791173935,1.7641788721084595
1733404715835969300,10.00496923828125,0.4544837474822998,-0.18997909128665924,1.5998560190200806
1733404715845956400,10.014956298828125,0.4911356568336487,-0.17531833052635193,1.281595230102539
1733404715856111000,10.025111083984376,0.4917465150356293,-0.18631389737129211,0.617584764957428
1733404715865945300,10.0349453125,0.4495968222618103,-0.2119702398777008,0.17592918872833252
1733404715875976400,10.0449765625,0.3732386529445648,-0.21380282938480377,-0.19058994948863983
1733404715885965000,10.054965087890626,0.2987131178379059,-0.19914206862449646,-0.42088615894317627
1733404715895966000,10.064966064453126,0.2321287989616394,-0.15577064454555511,-0.5119050741195679
1733404715905953800,10.074953857421875,0.1820378452539444,-0.08735372871160507,-0.48747047781944275
1733404715915985400,10.0849853515625,0.15271630883216858,-0.04642575979232788,-0.3885102868080139
1733404715925942800,10.09494287109375,0.1417207419872284,-0.007941247895359993,-0.20952677726745605
1733404715935974400,10.104974365234375,0.15393804013729095,0.00855211354792118,-0.1111774742603302
1733404715945962500,10.11496240234375,0.17104226350784302,0.0354301854968071,-0.042760565876960754
1733404715955963600,10.124963623046876,0.19120082259178162,0.07330382615327835,0.00366519158706069
1733404715965951500,10.134951416015625,0.2174680233001709,0.10201449692249298,0.04214970022439957
1733404715975982600,10.144982666015625,0.2528982162475586,0.09529497474431992,0.07147123664617538
1733404715985971200,10.15497119140625,0.29565876722335815,0.06352998316287994,0.09162978827953339
1733404715995971800,10.164971923828125,0.34086281061172485,0.02321287989616394,0.1007927656173706
1733404716005960000,10.1749599609375,0.3536909818649292,-0.00855211354792118,0.07208210229873657
1733404716015991300,10.1849912109375,0.35735616087913513,-0.04764748737215996,0.012217304669320583
1733404716025949000,10.194948974609375,0.342695415019989,-0.0403171069920063,-0.07330382615327835
1733404716035980300,10.204980224609375,0.3090978264808655,-0.03787364438176155,-0.1661553531885147
1733404716045968400,10.214968505859375,0.26511552929878235,-0.006719517521560192,-0.2480112910270691
1733404716055969000,10.224968994140625,0.2217440903186798,0.021380282938480377,-0.2987131178379059
1733404716065957600,10.23495751953125,0.18081611394882202,0.036041051149368286,-0.31093040108680725
1733404716075988500,10.244988525390625,0.11972958594560623,0.039706241339445114,-0.2577851414680481
1733404716085946600,10.254946533203125,0.0910189226269722,0.029932396486401558,-0.19608774781227112
1733404716095977700,10.264977783203125,0.07819075137376785,0.012828170321881771,-0.13805554807186127
1733404716105966000,10.274966064453125,0.08185594528913498,0.0024434609804302454,-0.10262536257505417
1733404716115965700,10.284965576171874,0.10567969083786011,0.014049900695681572,-0.08796459436416626
1733404716125954800,10.294954833984375,0.13316862285137177,0.04092797264456749,-0.08796459436416626
1733404716135985700,10.304985595703124,0.15271630883216858,0.056810468435287476,-0.09834930300712585
1733404716145943800,10.31494384765625,0.16371189057826996,0.051312681287527084,-0.09712757170200348
1733404716155975000,10.324974853515625,0.15515977144241333,0.02932153269648552,-0.07024950534105301
1733404716165963300,10.33496337890625,0.12950342893600464,-0.018325956538319588,-0.025656340643763542
1733404716175964200,10.344964111328125,0.08429940044879913,-0.06963863968849182,0.025656340643763542
1733404716185952300,10.3549521484375,0.033597588539123535,-0.11545353382825851,0.07147123664617538
1733404716195983000,10.364983154296874,-0.006719517521560192,-0.13500121235847473,0.10690141469240189
1733404716205941200,10.374941162109375,-0.025045474991202354,-0.13011430203914642,0.1319468915462494
1733404716215972600,10.38497265625,-0.02626720629632473,-0.08674286305904388,0.1472185254096985
1733404716225961200,10.394961181640625,-0.01710422709584236,-0.04092797264456749,0.1514945775270462
1733404716235992000,10.404991943359375,-0.001832595793530345,-0.019547687843441963,0.1563815027475357
1733404716245950200,10.4149501953125,0.006719517521560192,-0.01466076634824276,0.16432274878025055
1733404716255981300,10.424981201171875,0.001832595793530345,-0.028099801391363144,0.1661553531885147
1733404716265970000,10.434969970703126,-0.021380282938480377,-0.048258353024721146,0.1472185254096985
1733404716275970300,10.44497021484375,-0.0555887371301651,-0.0959058403968811,0.10262536257505417
1733404716285959000,10.454958984375,-0.11911872029304504,-0.16004669666290283,0.05375614017248154
1733404716295989800,10.46498974609375,-0.22113321721553802,-0.24495697021484375,0.012828170321881771
1733404716305948000,10.474947998046876,-0.26083946228027344,-0.2834414839744568,0.0354301854968071
1733404716315979000,10.48497900390625,-0.27488934993743896,-0.304210901260376,0.10445795953273773
1733404716325967400,10.49496728515625,-0.26022860407829285,-0.2938261926174164,0.1820378452539444
1733404716335967700,10.5049677734375,-0.20952677726745605,-0.24495697021484375,0.22052235901355743
1733404716345956400,10.514956298828125,-0.13866640627384186,-0.14782938361167908,0.192422553896904
1733404716355988000,10.524988037109376,-0.09162978827953339,-0.006108652334660292,0.11056660860776901
1733404716365945300,10.5349453125,-0.04459316283464432,0.2382374405860901,0.015882495790719986
1733404716375977000,10.54497705078125,-0.02871066704392433,0.37140607833862305,0.08918632566928864
1733404716385965000,10.554965087890626,-0.022602014243602753,0.44837507605552673,0.28955012559890747
1733404716395966000,10.564966064453126,-0.03176499158143997,0.4105014503002167,0.5601634383201599
1733404716405953800,10.574953857421875,-0.0659734457731247,0.30115658044815063,0.8344419002532959
1733404716415985700,10.584985595703126,-0.16004669666290283,0.12767083942890167,1.0348057746887207
1733404716425942800,10.59494287109375,-0.2785545587539673,-0.07391469180583954,1.1093312501907349
1733404716435973000,10.60497314453125,-0.4239404797554016,-0.3170390725135803,0.9908234477043152
1733404716445962500,10.61496240234375,-0.4709770977497101,-0.40744712948799133,0.7904596328735352
1733404716455962400,10.62496240234375,-0.47280970215797424,-0.40133845806121826,0.5375614166259766
1733404716465951500,10.634951416015625,-0.42760565876960754,-0.30482175946235657,0.2541199326515198
1733404716475982600,10.644982666015625,-0.3335324227809906,-0.1459967941045761,-0.04886921867728233
1733404716485971200,10.65497119140625,-0.2021963894367218,0.0959058403968811,-0.35552358627319336
1733404716495971000,10.66497119140625,-0.06902777403593063,0.33597588539123535,-0.636521577835083
1733404716505960000,10.6749599609375,0.027488935738801956,0.4917465150356293,-0.8686503767967224
1733404716515991600,10.684991455078125,0.11178833991289139,0.5937610268592834,-1.0458012819290161
1733404716525949000,10.694948974609375,0.1258382350206375,0.5809328556060791,-1.0317513942718506
1733404716535980500,10.70498046875,0.11850785464048386,0.5369505286216736,-0.931569516658783
1733404716545968600,10.71496875,0.09773843735456467,0.46547931432724,-0.7843509912490845
1733404716555969500,10.724969482421875,0.06475171446800232,0.3640756905078888,-0.6133087277412415
1733404716565957600,10.73495751953125,0.024434609338641167,0.2474004179239273,-0.4306600093841553
1733404716575989000,10.744989013671875,-0.014049900695681572,0.1270599663257599,-0.25045475363731384
1733404716585946600,10.754946533203125,-0.05009094998240471,-0.02626720629632473,-0.04642575979232788
1733404716595977700,10.764977783203125,-0.06963863968849182,-0.09834930300712585,0.010995574295520782
1733404716605966000,10.774966064453125,-0.08552113175392151,-0.13255776464939117,0.016493361443281174
1733404716615966500,10.784966552734375,-0.09162978827953339,-0.13439035415649414,-0.016493361443281174
1733404716625955000,10.794955078125,-0.08918632566928864,-0.11972958594560623,-0.06352998316287994
1733404716635986200,10.804986083984375,-0.08124507963657379,-0.08979719132184982,-0.1014036312699318
1733404716645944000,10.814944091796875,-0.06352998316287994,-0.05253441259264946,-0.10690141469240189
1733404716655975400,10.824975341796875,-0.02932153269648552,-0.012828170321881771,-0.05314527451992035
1733404716665963800,10.8349638671875,-0.01038470957428217,-0.009773843921720982,-0.006108652334660292
1733404716675964200,10.844964111328125,0.009162978269159794,-0.012828170321881771,0.02871066704392433
1733404716685952800,10.854952880859376,0.02382374368607998,-0.02687807008624077,0.039095375686883926
1733404716695983600,10.864983642578125,0.028099801391363144,-0.04581489413976669,0.02076941914856434
1733404716705941800,10.874941650390625,0.03237585723400116,-0.056810468435287476,-0.02626720629632473
1733404716715972600,10.88497265625,0.028099801391363144,-0.05925392732024193,-0.0959058403968811
1733404716725961200,10.894961181640625,0.018936822190880775,-0.05009094998240471,-0.1667662113904953
1733404716735992000,10.904991943359375,0.02871066704392433,0.015882495790719986,-0.2431243658065796
1733404716745950200,10.9149501953125,0.05192354694008827,0.08368854224681854,-0.2681698501110077
1733404716755981000,10.92498095703125,0.08552113175392151,0.14538592100143433,-0.27000242471694946
1733404716765969700,10.9349697265625,0.11362093687057495,0.18387043476104736,-0.2321287989616394
1733404716775970300,10.94497021484375,0.12095131725072861,0.2272418737411499,-0.16310101747512817
1733404716785959000,10.954958984375,0.11301007121801376,0.26083946228027344,-0.07696902006864548
1733404716795989800,10.96498974609375,0.09957103431224823,0.2718350291252136,0.00855211354792118
1733404716805948000,10.974947998046876,0.07208210229873657,0.2168571650981903,0.11301007121801376
1733404716815557400,10.984557373046876,0.03298672288656235,0.15515977144241333,0.14477506279945374
1733404716825546000,10.9945458984375,-0.019547687843441963,0.09162978827953339,0.13927727937698364
1733404716835546400,11.00454638671875,-0.08491026610136032,0.0507018156349659,0.08979719132184982
1733404716845535000,11.014534912109376,-0.16920967400074005,0.006719517521560192,-0.001832595793530345
1733404716855565800,11.02456591796875,-0.2565633952617645,-0.051312681287527084,-0.09834930300712585
1733404716865524000,11.03452392578125,-0.30970868468284607,-0.09346238523721695,-0.1612684279680252
1733404716875555000,11.04455517578125,-0.28466320037841797,-0.09957103431224823,-0.1514945775270462
1733404716885543400,11.05454345703125,-0.2076941877603531,-0.07330382615327835,-0.0861319974064827
1733404716895544000,11.0645439453125,-0.09346238523721695,-0.02687807008624077,-0.025656340643763542
1733404716905532400,11.074532470703126,0.018325956538319588,0.05009094998240471,0.004886921960860491
1733404716915563500,11.0845634765625,0.09529497474431992,0.13744467496871948,0.012828170321881771
1733404716925521400,11.094521484375,0.12461651116609573,0.18875735998153687,0.009773843921720982
1733404716935552500,11.104552490234376,0.1111774742603302,0.20830504596233368,0.0006108652451075613
1733404716945541000,11.114541015625,0.060475658625364304,0.18875735998153687,-0.018325956538319588
1733404716955541200,11.124541259765625,0,0.10262536257505417,-0.06536258012056351
1733404716965530000,11.134530029296876,-0.019547687843441963,0.05864306539297104,-0.12400564551353455
1733404716975561700,11.144561767578125,-0.031154127791523933,0.04092797264456749,-0.20341812074184418
1733404716985549300,11.15454931640625,-0.05803219974040985,0.06291911751031876,-0.25961771607398987
1733404716995550500,11.164550537109376,-0.11545353382825851,0.10262536257505417,-0.22418753802776337
1733404717005538600,11.17453857421875,-0.15821409225463867,0.15027284622192383,-0.009162978269159794
1733404717015570200,11.184570068359376,-0.1508837193250656,0.1820378452539444,0.394008070230484
1733404717025527600,11.194527587890626,-0.10812314599752426,0.12217304855585098,1.1081095933914185
1733404717035559000,11.204558837890625,-0.03787364438176155,0.051312681287527084,1.513113260269165
1733404717045547300,11.21454736328125,0.05314527451992035,-0.05375614017248154,1.7611244916915894
1733404717055547000,11.224546875,0.13500121235847473,-0.14416420459747314,1.8008307218551636
1733404717065536300,11.234536376953125,0.20036379992961884,-0.22663100063800812,1.616349458694458
1733404717075568000,11.244568115234374,0.24190263450145721,-0.2577851414680481,1.238223910331726
1733404717085525000,11.25452490234375,0.2681698501110077,-0.25473082065582275,0.7171558141708374
1733404717095710200,11.264710205078124,0.28588494658470154,-0.1918116807937622,-0.19425514340400696
1733404717105571300,11.2745712890625,0.28649580478668213,-0.09957103431224823,-0.769690215587616
1733404717115544000,11.2845439453125,0.2779437005519867,-0.03848451003432274,-1.226617455482483
1733404717125533400,11.294533447265625,0.25961771607398987,0.03481931984424591,-1.4953981637954712
1733404717135564800,11.304564697265626,0.24862214922904968,0.10445795953273773,-1.550986886024475
1733404717145522200,11.314522216796876,0.23884831368923187,0.1362229436635971,-1.4330898523330688
1733404717155553800,11.3245537109375,0.23579397797584534,0.12828169763088226,-1.19912850856781
1733404717165541600,11.334541748046876,0.24068090319633484,0.10934487730264664,-0.8991936445236206
1733404717175542500,11.34454248046875,0.24068090319633484,0.04214970022439957,-0.45142942667007446
1733404717185531000,11.35453076171875,0.21563543379306793,-0.02382374368607998,-0.21380282938480377
1733404717195562200,11.364562255859376,0.18081611394882202,-0.08491026610136032,-0.05314527451992035
1733404717205520000,11.374519775390626,0.14477506279945374,-0.11728613078594208,0.039706241339445114
1733404717215551200,11.38455126953125,0.11301007121801376,-0.1270599663257599,0.07513642311096191
1733404717225539800,11.394539794921876,0.09651670604944229,-0.11789698898792267,0.08002334833145142
1733404717235571000,11.404571044921875,0.11239920556545258,-0.09773843735456467,0.06963863968849182
1733404717245528800,11.41452880859375,0.1716531366109848,-0.06963863968849182,0.036651913076639175
1733404717255560000,11.424559814453126,0.21319197118282318,-0.04886921867728233,0.012828170321881771
1733404717265548300,11.43454833984375,0.24190263450145721,-0.029932396486401558,-0.00855211354792118
1733404717275549000,11.444548828125,0.2535090744495392,-0.03237585723400116,-0.018936822190880775
1733404717285537300,11.454537353515626,0.24617868661880493,-0.039095375686883926,-0.021991148591041565
1733404717295568400,11.464568359375,0.22113321721553802,-0.030543262138962746,-0.013439035043120384
1733404717305526300,11.4745263671875,0.1875356286764145,-0.022602014243602753,0.0024434609804302454
1733404717315557400,11.484557373046876,0.1258382350206375,-0.019547687843441963,0.045204028487205505
1733404717325546000,11.4945458984375,0.08796459436416626,-0.0012217304902151227,0.07880161702632904
1733404717335546600,11.504546630859375,0.07024950534105301,0.028099801391363144,0.10690141469240189
1733404717345535000,11.514534912109376,0.06291911751031876,0.03481931984424591,0.1270599663257599
1733404717355565800,11.52456591796875,0.05375614017248154,0.03420845419168472,0.14049901068210602
1733404717365524000,11.53452392578125,0.03481931984424591,0.022602014243602753,0.1411098688840866
1733404717375554800,11.544554931640626,0.009773843921720982,0.01038470957428217,0.1270599663257599
1733404717385543400,11.55454345703125,-0.030543262138962746,-0.019547687843441963,0.09712757170200348
1733404717395543800,11.564543701171875,-0.07147123664617538,-0.08918632566928864,0.0403171069920063
1733404717405532400,11.574532470703126,-0.08246681094169617,-0.10995574295520782,0.012828170321881771
1733404717415563500,11.5845634765625,-0.07941248267889023,-0.1160643994808197,-0.009162978269159794
1733404717425521400,11.594521484375,-0.06902777403593063,-0.12339477986097336,-0.02687807008624077
1733404717435552500,11.604552490234376,-0.05253441259264946,-0.1270599663257599,-0.04581489413976669
1733404717445541000,11.614541015625,-0.03726277872920036,-0.1160643994808197,-0.06658431142568588
1733404717455541500,11.62454150390625,-0.02932153269648552,-0.0959058403968811,-0.07880161702632904
1733404717465530000,11.634530029296876,-0.04214970022439957,-0.11178833991289139,-0.08918632566928864
1733404717475561500,11.6445615234375,-0.07819075137376785,-0.16004669666290283,-0.09224065393209457
1733404717485549600,11.654549560546876,-0.15393804013729095,-0.2278527319431305,-0.09896016865968704
1733404717495550200,11.66455029296875,-0.23945917189121246,-0.313373863697052,-0.1007927656173706
1733404717505538600,11.67453857421875,-0.3139847218990326,-0.384845107793808,-0.07269296050071716
1733404717515569400,11.6845693359375,-0.3677408695220947,-0.4343251883983612,-0.01710422709584236
1733404717525527600,11.694527587890626,-0.39584067463874817,-0.48685958981513977,0.04948008432984352
1733404717535558700,11.70455859375,-0.36651915311813354,-0.5204572081565857,0.08124507963657379
1733404717545547300,11.71454736328125,-0.2987131178379059,-0.4691445231437683,0.01710422709584236
1733404717555548200,11.724548095703126,-0.20830504596233368,-0.3127630054950714,-0.09896016865968704
1733404717565536000,11.734535888671875,-0.1270599663257599,-0.08857546001672745,-0.19547687470912933
1733404717575568000,11.74456787109375,-0.07757988572120667,0.17409659922122955,-0.18020524084568024
1733404717585525000,11.75452490234375,-0.04886921867728233,0.3891211748123169,0.01038470957428217
1733404717595556600,11.764556640625,-0.036041051149368286,0.47708576917648315,0.3640756905078888
1733404717605544400,11.77454443359375,-0.05925392732024193,0.46364670991897583,0.8032878041267395
1733404717615545600,11.784545654296876,-0.19547687470912933,0.2223549485206604,1.3817771673202515
1733404717625533700,11.79453369140625,-0.3182607889175415,0.029932396486401558,1.598023533821106
1733404717635565000,11.80456494140625,-0.42271876335144043,-0.13439035415649414,1.6114624738693237
1733404717645522700,11.814522705078126,-0.48747047781944275,-0.2565633952617645,1.4196507930755615
1733404717655555000,11.82455517578125,-0.504574716091156,-0.31154128909111023,1.0684033632278442
1733404717665542100,11.834542236328126,-0.46853363513946533,-0.2687807083129883,0.6145304441452026
1733404717675544800,11.844544921875,-0.3854559659957886,-0.11728613078594208,0.10873401165008545
1733404717685531100,11.85453125,-0.21319197118282318,0.2376265823841095,-0.5858197808265686
1733404717695562800,11.864562744140626,-0.10506882518529892,0.41233405470848083,-0.9077457785606384
1733404717705520000,11.87452001953125,-0.027488935738801956,0.49296826124191284,-1.0885618925094604
1733404717715551700,11.8845517578125,0.024434609338641167,0.5027421116828918,-1.1258246898651123
1733404717725539800,11.894539794921876,0.04764748737215996,0.45753806829452515,-1.0415252447128296
1733404717735571200,11.9045712890625,0.05009094998240471,0.38606682419776917,-0.8863654732704163
1733404717745528800,11.91452880859375,0.039706241339445114,0.2974913716316223,-0.7061602473258972
1733404717755560200,11.924560302734376,0.007941247895359993,0.15271630883216858,-0.4642575979232788
1733404717765548300,11.93454833984375,-0.00855211354792118,0.06230825558304787,-0.34147366881370544
1733404717775549200,11.944549072265625,-0.00427605677396059,-0.0403171069920063,-0.24862214922904968
1733404717785537300,11.954537353515626,0.006719517521560192,-0.08429940044879913,-0.17898350954055786
1733404717795568000,11.964568115234375,0.01160643994808197,-0.09529497474431992,-0.14355333149433136
1733404717805526300,11.9745263671875,0.02687807008624077,-0.1062905490398407,-0.1258382350206375
1733404717815557400,11.984557373046876,0.04214970022439957,-0.10323622822761536,-0.11850785464048386
1733404717825546000,11.9945458984375,0.04581489413976669,-0.08368854224681854,-0.11911872029304504
1733404717835546400,12.00454638671875,0.06719517707824707,-0.04886921867728233,-0.1014036312699318
1733404717845535000,12.014534912109376,0.06963863968849182,-0.00855211354792118,-0.08246681094169617
1733404717855565800,12.02456591796875,0.04764748737215996,0.025656340643763542,-0.07635815441608429
1733404717865524000,12.03452392578125,0.02626720629632473,0.06352998316287994,-0.07696902006864548
1733404717875554600,12.044554443359376,0.009162978269159794,0.0806342139840126,-0.07757988572120667
1733404717885543400,12.05454345703125,-0.006108652334660292,0.08124507963657379,-0.06536258012056351
1733404717895544000,12.0645439453125,-0.0006108652451075613,0.07880161702632904,-0.04581489413976669
1733404717905532400,12.074532470703126,0.02382374368607998,0.0861319974064827,-0.021380282938480377
1733404717915563300,12.084563232421875,0.04886921867728233,0.09285151958465576,-0.03298672288656235
1733404717925521400,12.094521484375,0.06841690838336945,0.10323622822761536,-0.06352998316287994
1733404717935552500,12.104552490234376,0.08368854224681854,0.10201449692249298,-0.10018189996480942
1733404717945541000,12.114541015625,0.0959058403968811,0.08979719132184982,-0.12461651116609573
1733404717955541500,12.12454150390625,0.10201449692249298,0.08002334833145142,-0.1319468915462494
1733404717965530000,12.134530029296876,0.1111774742603302,0.06780604273080826,-0.12767083942890167
1733404717975561000,12.14456103515625,0.12217304855585098,0.06169738993048668,-0.09224065393209457
1733404717985549600,12.154549560546876,0.11667526513338089,0.07635815441608429,-0.04642575979232788
1733404717995550200,12.16455029296875,0.11911872029304504,0.07941248267889023,0.025045474991202354
1733404718005538600,12.17453857421875,0.10812314599752426,0.1062905490398407,0.10506882518529892
1733404718015569400,12.1845693359375,0.07391469180583954,0.12522737681865692,0.16798794269561768
1733404718025527600,12.194527587890626,0.02687807008624077,0.11728613078594208,0.19853121042251587
1733404718035558700,12.20455859375,-0.02626720629632473,0.07941248267889023,0.1869247704744339
1733404718045547300,12.21454736328125,-0.08674286305904388,0.01710422709584236,0.13500121235847473
1733404718055547600,12.224547607421876,-0.17776179313659668,-0.07147123664617538,0.02382374368607998
1733404718065536000,12.234535888671875,-0.2223549485206604,-0.12034045159816742,-0.03420845419168472
1733404718075567900,12.24456787109375,-0.23640485107898712,-0.12767083942890167,-0.04886921867728233
1733404718085525000,12.25452490234375,-0.20402899384498596,-0.11362093687057495,-0.021991148591041565
1733404718095556000,12.26455615234375,-0.11667526513338089,-0.0659734457731247,0.03237585723400116
1733404718105544700,12.274544677734376,0.004886921960860491,0.02015855349600315,0.0861319974064827
1733404718115544300,12.28454443359375,0.14049901068210602,0.12095131725072861,0.10690141469240189
1733404718125533400,12.294533447265625,0.32620203495025635,0.27000242471694946,0.0659734457731247
1733404718135564300,12.304564208984376,0.4129449129104614,0.33475416898727417,0.007941247895359993
1733404718145522200,12.314522216796876,0.45692721009254456,0.35063666105270386,-0.04459316283464432
1733404718155553500,12.324553466796875,0.4434881806373596,0.3793473243713379,-0.056810468435287476
1733404718165541600,12.334541748046876,0.37568211555480957,0.4001167416572571,-0.04581489413976669
1733404718175542500,12.34454248046875,0.2730567753314972,0.35063666105270386,-0.010995574295520782
1733404718185531000,12.35453076171875,0.15515977144241333,0.23640485107898712,0.04214970022439957
1733404718195562200,12.364562255859376,0.022602014243602753,0.03176499158143997,0.1417207419872284
1733404718205520000,12.374519775390626,-0.010995574295520782,-0.06963863968849182,0.2217440903186798
1733404718215551500,12.384551513671875,-0.030543262138962746,-0.11362093687057495,0.33536502718925476
1733404718225539800,12.394539794921876,-0.05192354694008827,-0.1111774742603302,0.50335294008255
1733404718235571200,12.4045712890625,-0.04581489413976669,-0.09468411654233932,0.7281513810157776
