time,seconds_elapsed,z,y,x
1733404706035491800,0.204491943359375,9.583989143371582,1.5610195398330688,-0.29209262132644653
1733404706045501700,0.214501708984375,9.5408935546875,1.625662922859192,-0.3471592366695404
1733404706055480800,0.224480712890625,9.622296333312988,1.6065093278884888,-0.3232172429561615
1733404706065490400,0.234490478515625,9.732429504394531,1.5634137392044067,-0.30885201692581177
1733404706075500300,0.244500244140625,9.813833236694336,1.4867992401123047,-0.272938996553421
1733404706085479400,0.2544794921875,9.818621635437012,1.37906014919281,-0.2968810200691223
1733404706095489300,0.2644892578125,9.775525093078613,1.3551181554794312,-0.31842881441116333
1733404706105499100,0.2744990234375,9.708487510681152,1.3862427473068237,-0.2585737705230713
1733404706115478300,0.284478271484375,9.610325813293457,1.414973258972168,-0.26096799969673157
1733404706125488000,0.294488037109375,9.524134635925293,1.4652514457702637,-0.304063618183136
1733404706135498000,0.304498046875,9.519346237182617,1.4508862495422363,-0.2561795711517334
1733404706145477000,0.31447705078125,9.66299819946289,1.3766659498214722,-0.21308395266532898
1733404706155487000,0.324487060546875,9.75637149810791,1.3958195447921753,-0.22266076505184174
1733404706165496600,0.33449658203125,9.852140426635742,1.4484920501708984,-0.16998831927776337
1733404706175475700,0.344475830078125,9.916783332824707,1.45806884765625,-0.14844051003456116
1733404706185485600,0.354485595703125,9.943120002746582,1.5107412338256836,-0.22505496442317963
1733404706195495400,0.364495361328125,9.90241813659668,1.50355863571167,-0.2801215946674347
1733404706205474600,0.374474609375,9.792284965515137,1.5179238319396973,-0.35913026332855225
1733404706215484400,0.384484375,9.72285270690918,1.5083470344543457,-0.35434186458587646
1733404706225494300,0.394494384765625,9.763554573059082,1.4532804489135742,-0.22505496442317963
1733404706235504000,0.404504150390625,9.854534149169922,1.3910311460494995,-0.20111294090747833
1733404706245483300,0.414483154296875,9.84256362915039,1.3934253454208374,-0.2849099934101105
1733404706255492900,0.424492919921875,9.751583099365234,1.4915876388549805,-0.2106897532939911
1733404706265502700,0.434502685546875,9.634267807006836,1.482010841369629,-0.17477671802043915
1733404706275481900,0.44448193359375,9.59835433959961,1.4844050407409668,-0.19153612852096558
1733404706285491700,0.45449169921875,9.639056205749512,1.5131354331970215,-0.13407529890537262
1733404706295501600,0.46450146484375,9.718064308166504,1.4676456451416016,-0.10534487664699554
1733404706305480700,0.474480712890625,9.816226959228516,1.4987702369689941,-0.19393034279346466
1733404706315490600,0.484490478515625,9.818621635437012,1.53707754611969,-0.20111294090747833
1733404706325500400,0.49450048828125,9.696516990661621,1.5155296325683594,-0.19632454216480255
1733404706335479600,0.5044794921875,9.682151794433594,1.4724340438842773,-0.24660277366638184
1733404706345489200,0.5144892578125,9.655815124511719,1.460463047027588,-0.2825157940387726
1733404706355499000,0.5244990234375,9.478644371032715,1.4460978507995605,-0.304063618183136
1733404706365478100,0.53447802734375,9.332598686218262,1.4867992401123047,-0.23702596127986908
1733404706375488000,0.544488037109375,9.351752281188965,1.4987702369689941,-0.15801730751991272
1733404706385497900,0.554497802734375,9.481039047241211,1.4844050407409668,-0.10534487664699554
1733404706395477200,0.564477294921875,9.636661529541016,1.4772224426269531,-0.10055647045373917
1733404706405486800,0.57448681640625,9.770736694335938,1.4963760375976562,-0.08140286058187485
1733404706415496700,0.58449658203125,9.77791976928711,1.5203180313110352,-0.1149216815829277
1733404706425475800,0.594475830078125,9.746794700622559,1.5658079385757446,-0.14604631066322327
1733404706435485700,0.604485595703125,9.674968719482422,1.5538369417190552,-0.12689268589019775
1733404706445495300,0.614495361328125,9.57201862335205,1.5514427423477173,-0.19393034279346466
1733404706455474700,0.624474609375,9.643844604492188,1.5610195398330688,-0.21547815203666687
1733404706465484500,0.634484619140625,9.84256362915039,1.5179238319396973,-0.19632454216480255
1733404706475494100,0.644494140625,10.110713958740234,1.4891934394836426,-0.22744916379451752
1733404706485504000,0.65450390625,10.271124839782715,1.4293384552001953,-0.2585737705230713
1733404706495483100,0.664483154296875,10.350133895874023,1.4724340438842773,-0.35673606395721436
1733404706505493000,0.674492919921875,10.307038307189941,1.5275006294250488,-0.4165911078453064
1733404706515502800,0.6845029296875,10.120290756225586,1.5298948287963867,-0.3519476354122162
1733404706525482000,0.69448193359375,9.837775230407715,1.5705963373184204,-0.4141969084739685
1733404706535491800,0.704491943359375,9.495404243469238,1.577778935432434,-0.38307225704193115
1733404706545501700,0.714501708984375,9.394847869873047,1.601720929145813,-0.3256114423274994
1733404706555480800,0.724480712890625,9.373299598693848,1.5442601442337036,-0.28969839215278625
1733404706565490400,0.734490478515625,9.404424667358398,1.5059528350830078,-0.14844051003456116
1733404706575500300,0.744500244140625,9.390059471130371,1.501164436340332,-0.10534487664699554
1733404706585479400,0.7544794921875,9.375694274902344,1.5131354331970215,-0.10534487664699554
1733404706595489300,0.7644892578125,9.375694274902344,1.522712230682373,-0.090979665517807
1733404706605499100,0.7744990234375,9.375694274902344,1.534683346748352,-0.10773907601833344
1733404706615478300,0.784478271484375,9.490615844726562,1.5394717454910278,-0.1604115068912506
1733404706625488100,0.794488037109375,9.59596061706543,1.5394717454910278,-0.1412578970193863
1733404706635498000,0.804498046875,9.615114212036133,1.5418659448623657,-0.12689268589019775
1733404706645477000,0.81447705078125,9.672574996948242,1.5179238319396973,-0.12928688526153564
1733404706655487000,0.824487060546875,9.727641105651855,1.4652514457702637,-0.15322890877723694
1733404706665496600,0.83449658203125,9.86889934539795,1.4484920501708984,-0.13168109953403473
1733404706675475700,0.844475830078125,9.995792388916016,1.4197616577148438,-0.14844051003456116
1733404706685485600,0.854485595703125,10.122684478759766,1.4269442558288574,-0.19393034279346466
1733404706695495400,0.864495361328125,10.11550235748291,1.4077905416488647,-0.2346317619085312
1733404706705474600,0.874474609375,10.043676376342773,1.4317326545715332,-0.272938996553421
1733404706715484400,0.884484375,9.926360130310059,1.479616641998291,-0.24899697303771973
1733404706725494300,0.894494384765625,9.816226959228516,1.558625340461731,-0.28730419278144836
1733404706735504100,0.904504150390625,9.655815124511719,1.50355863571167,-0.2801215946674347
1733404706745483300,0.914483154296875,9.581595420837402,1.479616641998291,-0.2513911724090576
1733404706755492900,0.924492919921875,9.593565940856934,1.4293384552001953,-0.21308395266532898
1733404706765502700,0.934502685546875,9.715670585632324,1.3503297567367554,-0.20350714027881622
1733404706775481900,0.94448193359375,9.856928825378418,1.292868971824646,-0.2777273952960968
1733404706785491700,0.95449169921875,9.943120002746582,1.3215993642807007,-0.3232172429561615
1733404706795501600,0.96450146484375,9.923966407775879,1.3096283674240112,-0.26575639843940735
1733404706805480700,0.974480712890625,9.763554573059082,1.3527239561080933,-0.27054479718208313
1733404706815490600,0.984490478515625,9.579200744628906,1.4197616577148438,-0.23702596127986908
1733404706825500400,0.99450048828125,9.318233489990234,1.414973258972168,-0.1173158809542656
1733404706835479600,1.0044794921875,9.141061782836914,1.4628572463989258,-0.05267243832349777
1733404706845489200,1.0144892578125,9.07641887664795,1.558625340461731,0.021547814831137657
1733404706855499000,1.0244990234375,9.074024200439453,1.6663644313812256,-0.014365210197865963
1733404706865478100,1.03447802734375,9.100360870361328,1.7764976024627686,-0.15562310814857483
1733404706875488000,1.044488037109375,9.186552047729492,1.824381709098816,-0.21308395266532898
1733404706885497900,1.054497802734375,9.44752025604248,1.8076223134994507,-0.19153612852096558
1733404706895477000,1.06447705078125,9.72285270690918,1.778891921043396,-0.10534487664699554
1733404706905486800,1.07448681640625,9.96945571899414,1.7621324062347412,0.035913024097681046
1733404706915496700,1.08449658203125,10.249577522277832,1.7262194156646729,0.181959331035614
1733404706925475800,1.094475830078125,10.319009780883789,1.7525556087493896,0.22744916379451752
1733404706935485700,1.104485595703125,10.3549222946167,1.7812861204147339,0.21547815203666687
1733404706945495300,1.114495361328125,10.378864288330078,1.7980455160140991,0.2322375625371933
1733404706955474700,1.124474609375,10.316615104675293,1.7980455160140991,0.23942017555236816
1733404706965484500,1.134484619140625,10.079588890075684,1.8291701078414917,0.18914192914962769
1733404706975494100,1.144494140625,9.77791976928711,1.886630892753601,0.14844051003456116
1733404706985504000,1.15450390625,9.53849983215332,1.8842366933822632,0.23702596127986908
1733404706995483100,1.164483154296875,9.378087997436523,1.8770540952682495,0.26815059781074524
1733404707005493000,1.174492919921875,9.327810287475586,1.8555063009262085,0.19871874153614044
1733404707015502800,1.1845029296875,9.406818389892578,1.8267759084701538,0.17956513166427612
1733404707025482000,1.19448193359375,9.62947940826416,1.7980455160140991,0.15322890877723694
1733404707035491800,1.204491943359375,9.828198432922363,1.7884687185287476,0.11013327538967133
1733404707045501700,1.214501708984375,10.029311180114746,1.7932571172714233,0.10295066982507706
1733404707055480800,1.224480712890625,10.122684478759766,1.7980455160140991,0.09576806426048279
1733404707065490400,1.234490478515625,9.981427192687988,1.8602946996688843,0.040701430290937424
1733404707075500300,1.244500244140625,9.849745750427246,1.9081788063049316,-0.0454898327589035
1733404707085479400,1.2544794921875,9.780313491821289,1.9991583824157715,-0.11971008777618408
1733404707095489300,1.2644892578125,9.679757118225098,2.0015525817871094,-0.21787235140800476
1733404707105499100,1.2744990234375,9.560047149658203,2.008735179901123,-0.395043283700943
1733404707115478300,1.284478271484375,9.433155059814453,1.9847931861877441,-0.5267243981361389
1733404707125488000,1.294488037109375,9.124302864074707,1.9153614044189453,-0.6991068720817566
1733404707135498000,1.304498046875,8.856152534484863,1.8794482946395874,-0.950498104095459
1733404707145477000,1.31447705078125,8.571242332458496,1.7286136150360107,-1.1971008777618408
1733404707155487000,1.324487060546875,8.365341186523438,1.5921441316604614,-1.3263877630233765
1733404707165496600,1.33449658203125,8.501810073852539,1.7932571172714233,-1.2090718746185303
1733404707175475700,1.344475830078125,8.456320762634277,1.4389152526855469,-1.3215993642807007
1733404707185485600,1.354485595703125,8.580819129943848,1.2737152576446533,-1.3551181554794312
1733404707195495400,1.364495361328125,8.813055992126465,1.0797849893569946,-1.0582371950149536
1733404707205474600,1.374474609375,9.016563415527344,1.0103530883789062,-0.811634361743927
1733404707215484400,1.384484375,9.241618156433105,1.216254472732544,-0.727837324142456
1733404707225494300,1.394494384765625,9.186552047729492,1.4484920501708984,-0.6272808313369751
1733404707235504000,1.404504150390625,9.105149269104004,1.7334020137786865,-0.4644751250743866
1733404707245483300,1.414483154296875,8.772355079650879,2.0374655723571777,-0.3758896589279175
1733404707255492900,1.424492919921875,8.38688850402832,2.365471363067627,-0.019153613597154617
1733404707265502700,1.434502685546875,7.979874134063721,2.6360161304473877,0.21547815203666687
1733404707275481900,1.44448193359375,7.920019149780273,2.9233202934265137,0.30885201692581177
1733404707285491700,1.45449169921875,8.233659744262695,3.0813376903533936,0.28969839215278625
1733404707295501600,1.46450146484375,8.767566680908203,3.1004912853240967,0.12689268589019775
1733404707305480700,1.474480712890625,9.641449928283691,3.028665065765381,-0.11971008777618408
1733404707315490600,1.484490478515625,10.632649421691895,2.87064790725708,-0.272938996553421
1733404707325500400,1.49450048828125,11.695674896240234,2.7126305103302,-0.4165911078453064
1733404707335479600,1.5044794921875,12.389993667602539,2.6216509342193604,-0.545877993106842
1733404707345489200,1.5144892578125,12.816162109375,2.494758129119873,-0.6009446382522583
1733404707355499000,1.5244990234375,12.84968090057373,2.4205379486083984,-0.6967126727104187
1733404707365478100,1.53447802734375,12.595894813537598,2.3702597618103027,-0.8810662031173706
1733404707375488000,1.544488037109375,12.040440559387207,2.3558945655822754,-1.0438719987869263
1733404707385497900,1.554497802734375,11.413159370422363,2.360682964324951,-1.1444283723831177
1733404707395477000,1.56447705078125,10.745177268981934,2.3726539611816406,-1.292868971824646
1733404707405486800,1.57448681640625,10.26394271850586,2.343923568725586,-1.2258312702178955
1733404707415496700,1.58449658203125,9.763554573059082,2.3080103397369385,-0.9840168952941895
1733404707425475800,1.594475830078125,9.26795482635498,2.2912509441375732,-0.7398083209991455
1733404707435485700,1.604485595703125,8.702922821044922,2.315192937850952,-0.5578489899635315
1733404707445495300,1.614495361328125,8.200140953063965,2.363077163696289,-0.3471592366695404
1733404707455474700,1.624474609375,7.6782050132751465,2.406172752380371,-0.181959331035614
1733404707465484500,1.634484619140625,7.316680431365967,2.5115175247192383,-0.1173158809542656
1733404707475494100,1.644494140625,7.1490864753723145,2.6623523235321045,-0.181959331035614
1733404707485504000,1.65450390625,7.15387487411499,2.8179752826690674,-0.2537853717803955
1733404707495483100,1.664483154296875,7.2352776527404785,2.9281086921691895,-0.4357447028160095
1733404707505493000,1.674492919921875,7.536946773529053,3.0621838569641113,-0.6584054827690125
1733404707515502800,1.6845029296875,7.924807548522949,3.1316158771514893,-0.7493851184844971
1733404707525482000,1.69448193359375,8.40843677520752,3.1316158771514893,-0.871489405632019
1733404707535491800,1.704491943359375,8.858546257019043,3.1028854846954346,-1.0199298858642578
1733404707545501700,1.714501708984375,9.27034854888916,3.0526070594787598,-1.0319008827209473
1733404707555480800,1.724480712890625,9.749189376831055,3.0334534645080566,-1.0103530883789062
1733404707565490400,1.734490478515625,10.24239444732666,2.9305028915405273,-0.9888052940368652
1733404707575500300,1.744500244140625,10.807426452636719,2.7892448902130127,-0.9145850539207458
1733404707585479400,1.7544794921875,11.238382339477539,2.719813108444214,-0.9959878921508789
1733404707595489300,1.7644892578125,11.563994407653809,2.695871114730835,-1.1468225717544556
1733404707605499100,1.7744990234375,11.590330123901367,2.760514497756958,-1.3311761617660522
1733404707615478300,1.784478271484375,11.439496040344238,2.853888511657715,-1.625662922859192
1733404707625488100,1.794488037109375,11.133037567138672,2.913743495941162,-1.7573440074920654
1733404707635498000,1.804498046875,10.682928085327148,2.9688100814819336,-1.659181833267212
1733404707645477000,1.81447705078125,10.196905136108398,2.9472622871398926,-1.5203180313110352
1733404707655487000,1.824487060546875,9.761159896850586,2.8179752826690674,-1.359906554222107
1733404707665496600,1.83449658203125,9.555258750915527,2.719813108444214,-1.2641384601593018
1733404707675475700,1.844475830078125,9.476250648498535,2.6815059185028076,-1.1803414821624756
1733404707685485600,1.854485595703125,9.576807022094727,2.628833532333374,-0.9959878921508789
1733404707695495400,1.864495361328125,9.821015357971191,2.628833532333374,-0.7398083209991455
1733404707705474600,1.874474609375,10.096348762512207,2.5091233253479004,-0.40462008118629456
1733404707715484400,1.884484375,10.35252857208252,2.3487119674682617,-0.15322890877723694
1733404707725494300,1.894494384765625,10.94150161743164,2.3582887649536133,0.11971008777618408
1733404707735504100,1.904504150390625,11.559206008911133,2.585737943649292,0.12689268589019775
1733404707745483300,1.914483154296875,12.09550666809082,2.676717519760132,-0.1149216815829277
1733404707755492900,1.924492919921875,12.301408767700195,2.96162748336792,-0.272938996553421
1733404707765502700,1.934502685546875,12.12902545928955,3.201047658920288,-0.5123591423034668
1733404707775481900,1.94448193359375,11.688492774963379,3.2417490482330322,-0.6488286852836609
1733404707785491700,1.95449169921875,11.068394660949707,2.96162748336792,-0.7398083209991455
1733404707795501600,1.96450146484375,10.673351287841797,2.52109432220459,-0.7733271718025208
1733404707805480700,1.974480712890625,10.599130630493164,1.8076223134994507,-0.8667010068893433
1733404707815490600,1.984490478515625,10.92953109741211,1.091755986213684,-0.7852981686592102
1733404707825500400,1.99450048828125,11.528080940246582,0.45010992884635925,-0.569819986820221
1733404707835479600,2.0044794921875,12.320562362670898,-0.031124621629714966,-0.23942017555236816
1733404707845489200,2.0144892578125,12.950237274169922,-0.21547815203666687,-0.1412578970193863
1733404707855499000,2.0244990234375,13.318943977355957,-0.13407529890537262,0.1412578970193863
1733404707865478100,2.03447802734375,13.153743743896484,0.19871874153614044,0.19871874153614044
1733404707875488000,2.044488037109375,11.889605522155762,0.7182605266571045,0.1364694982767105
1733404707885497900,2.054497802734375,10.101137161254883,1.072602391242981,0.10295066982507706
1733404707895477000,2.06447705078125,7.953537940979004,1.3670891523361206,0.0933738648891449
1733404707905486800,2.07448681640625,6.414066314697266,1.4437036514282227,0.6320692300796509
1733404707915496700,2.08449658203125,5.537788391113281,1.3766659498214722,1.094150185585022
1733404707925475800,2.094475830078125,5.6670756340026855,1.1659762859344482,1.6855180263519287
1733404707935485700,2.104485595703125,6.205770969390869,0.9361328482627869,1.6711528301239014
1733404707945495300,2.114495361328125,7.2113356590271,0.8212111592292786,1.6927006244659424
1733404707955474700,2.124474609375,7.90086555480957,0.8619126081466675,1.3886369466781616
1733404707965484500,2.134484619140625,8.219294548034668,1.0247182846069336,0.9576807022094727
1733404707975494100,2.144494140625,8.123526573181152,1.2449848651885986,0.5171475410461426
1733404707985504000,2.15450390625,7.6566572189331055,1.3670891523361206,-0.031124621629714966
1733404707995483100,2.164483154296875,7.266402244567871,1.403002142906189,-0.011971008032560349
1733404708005493000,2.174492919921875,7.105990409851074,1.400607943534851,-0.2513911724090576
1733404708015502800,2.1845029296875,7.422025203704834,1.4173674583435059,-0.38546648621559143
1733404708025482000,2.19448193359375,7.908048152923584,1.3192051649093628,-0.3447650372982025
1733404708035491800,2.204491943359375,8.683769226074219,1.280897855758667,-0.5123591423034668
1733404708045501700,2.214501708984375,9.35654067993164,1.235408067703247,-0.6105214357376099
1733404708055480800,2.224480712890625,10.160991668701172,1.2258312702178955,-0.45250412821769714
1733404708065490400,2.234490478515625,10.54645824432373,1.3335703611373901,-0.5674257874488831
1733404708075500300,2.244500244140625,10.795455932617188,1.5059528350830078,-0.6392518281936646
1733404708085479400,2.2544794921875,10.63504409790039,1.5705963373184204,-0.5434837937355042
1733404708095489300,2.2644892578125,10.137049674987793,1.6400281190872192,-0.3758896589279175
1733404708105499100,2.2744990234375,9.627084732055664,1.6927006244659424,-0.3926490843296051
1733404708115478300,2.284478271484375,9.02135181427002,1.723825216293335,-0.3064578175544739
1733404708125488000,2.294488037109375,8.585607528686523,1.7932571172714233,-0.3711012601852417
1733404708135498000,2.304498046875,8.336610794067383,1.9177556037902832,-0.4908113479614258
1733404708145477000,2.31447705078125,8.35336971282959,2.032677173614502,-0.5386953949928284
1733404708155487000,2.324487060546875,8.458714485168457,2.0661959648132324,-0.5889736413955688
1733404708165496600,2.33449658203125,8.528146743774414,2.049436569213867,-0.7134721279144287
1733404708175475700,2.344475830078125,8.571242332458496,2.145204782485962,-0.7805097699165344
1733404708185485600,2.354485595703125,8.53293514251709,2.205059766769409,-0.7158663272857666
1733404708195495400,2.364495361328125,8.437167167663574,2.1763293743133545,-0.608127236366272
1733404708205474600,2.374474609375,8.238448143005371,2.03507137298584,-0.4118026793003082
1733404708215484400,2.384484375,8.128314971923828,1.920149803161621,-0.17477671802043915
1733404708225494300,2.394494384765625,8.176198959350586,1.9153614044189453,0.08140286058187485
1733404708235504000,2.404504150390625,8.190564155578613,1.922544002532959,0.1867477297782898
1733404708245483300,2.414483154296875,8.372523307800293,1.965639591217041,0.26575639843940735
1733404708255492900,2.424492919921875,8.889671325683594,1.9249382019042969,0.4165911078453064
1733404708265502700,2.434502685546875,9.53849983215332,1.944091796875,0.45489832758903503
1733404708275481900,2.44448193359375,10.225635528564453,2.049436569213867,0.38307225704193115
1733404708285491700,2.45449169921875,10.541669845581055,2.1284453868865967,0.2537853717803955
1733404708295501600,2.46450146484375,10.66137981414795,2.3918075561523438,0.038307227194309235
1733404708305480700,2.474480712890625,10.687716484069824,2.719813108444214,-0.014365210197865963
1733404708315490600,2.484490478515625,10.524910926818848,2.9089550971984863,-0.002394201699644327
1733404708325500400,2.49450048828125,10.199298858642578,2.892195701599121,0.12210428714752197
1733404708335479600,2.5044794921875,9.974244117736816,2.7461493015289307,0.35434186458587646
1733404708345489200,2.5144892578125,10.127472877502441,2.494758129119873,0.5315127968788147
1733404708355499000,2.5244990234375,10.776301383972168,2.188300371170044,0.6560112833976746
1733404708365478100,2.53447802734375,11.640608787536621,1.9632453918457031,0.6799532771110535
1733404708375488000,2.544488037109375,12.461819648742676,1.9105730056762695,0.5123591423034668
1733404708385497900,2.554497802734375,13.172897338867188,1.9488801956176758,0.2059013396501541
1733404708395477000,2.56447705078125,13.55357551574707,2.207453966140747,-0.10055647045373917
1733404708405486800,2.57448681640625,13.532028198242188,2.652775526046753,-0.37828385829925537
1733404708415496700,2.58449658203125,13.105859756469727,3.0142998695373535,-0.6799532771110535
1733404708425475800,2.594475830078125,12.251130104064941,3.1244332790374756,-0.8954314589500427
1733404708435485700,2.604485595703125,11.619060516357422,3.0597896575927734,-0.9816226959228516
1733404708445495300,2.614495361328125,11.420342445373535,3.0406360626220703,-0.9792284965515137
1733404708455474700,2.624474609375,11.42752456665039,2.9233202934265137,-1.0869675874710083
1733404708465484500,2.634484619140625,11.437101364135742,2.6839001178741455,-1.3000515699386597
1733404708475494100,2.644494140625,11.5065336227417,2.0805611610412598,-1.3886369466781616
1733404708485504000,2.65450390625,11.60948371887207,1.3120225667953491,-1.0247182846069336
1733404708495483100,2.664483154296875,12.253523826599121,0.38546648621559143,-0.5051765441894531
1733404708505493000,2.674492919921875,12.995726585388184,-0.3711012601852417,-0.09816227108240128
1733404708515502800,2.6845029296875,13.543998718261719,-0.9241618514060974,0.12210428714752197
1733404708525482000,2.69448193359375,13.508086204528809,-1.0797849893569946,-0.011971008032560349
1733404708535491800,2.704491943359375,12.691662788391113,-0.871489405632019,-0.31124621629714966
1733404708545501700,2.714501708984375,11.353304862976074,-0.5123591423034668,-0.4429273009300232
1733404708555480800,2.724480712890625,9.366117477416992,0.08858546614646912,-0.8451532125473022
1733404708565490400,2.734490478515625,7.357381820678711,0.5626373887062073,-1.0414776802062988
1733404708575500300,2.744500244140625,5.523423194885254,1.115697979927063,-1.0414776802062988
1733404708585479400,2.7544794921875,4.151545524597168,1.6352397203445435,-1.213860273361206
1733404708595489300,2.7644892578125,3.3638534545898438,1.8411411046981812,-1.2665326595306396
1733404708605499100,2.7744990234375,3.117250680923462,1.9752163887023926,-1.2282254695892334
1733404708615478300,2.784478271484375,3.4596214294433594,1.8076223134994507,-1.1851298809051514
1733404708625488100,2.794488037109375,4.659116744995117,1.3886369466781616,-1.0630255937576294
1733404708635498000,2.804498046875,6.184223175048828,0.9361328482627869,-0.8643068075180054
1733404708645477000,2.81447705078125,8.037335395812988,0.4812345504760742,-0.5913678407669067
1733404708655487000,2.824487060546875,9.526528358459473,0.1843535304069519,-0.363918662071228
1733404708665496600,2.83449658203125,10.776301383972168,0.021547814831137657,-0.12689268589019775
1733404708675475700,2.844475830078125,11.355698585510254,0.021547814831137657,0.05985504388809204
1733404708685485600,2.854485595703125,11.30302619934082,0.16998831927776337,0.17238251864910126
1733404708695495400,2.864495361328125,10.591948509216309,0.395043283700943,0.13407529890537262
1733404708705474600,2.874474609375,9.909601211547852,0.6200982332229614,0.047884032130241394
1733404708715484400,2.884484375,9.35654067993164,0.8547300100326538,-0.011971008032560349
1733404708725494300,2.894494384765625,9.155426979064941,1.115697979927063,-0.08379705995321274
1733404708735504100,2.904504150390625,9.08838939666748,1.3670891523361206,-0.14604631066322327
1733404708745483300,2.914483154296875,9.100360870361328,1.6543933153152466,-0.1604115068912506
1733404708755492900,2.924492919921875,9.011775016784668,1.8531121015548706,-0.181959331035614
1733404708765502700,2.934502685546875,8.820239067077637,1.944091796875,-0.11971008777618408
1733404708775481900,2.94448193359375,8.580819129943848,2.0398597717285156,-0.07661445438861847
1733404708785491700,2.95449169921875,8.398859977722168,2.0638017654418945,-0.08619125932455063
1733404708795501600,2.96450146484375,8.29590892791748,2.169146776199341,-0.035913024097681046
1733404708805480700,2.974480712890625,8.04930591583252,2.2218191623687744,-0.12689268589019775
1733404708815490600,2.984490478515625,7.94635534286499,2.207453966140747,-0.1149216815829277
1733404708825500400,2.99450048828125,7.869740962982178,2.22660756111145,-0.023942016065120697
1733404708835479600,3.0044794921875,7.99184513092041,2.2577321529388428,-0.1628057211637497
1733404708845489200,3.0144892578125,8.29830265045166,2.3367409706115723,-0.21547815203666687
1733404708855499000,3.0244990234375,8.621520042419434,2.360682964324951,-0.1867477297782898
1733404708865478100,3.03447802734375,9.011775016784668,2.363077163696289,-0.2585737705230713
1733404708875488000,3.044488037109375,9.32302188873291,2.3295583724975586,-0.3447650372982025
1733404708885497900,3.054497802734375,9.569623947143555,2.2146365642547607,-0.4118026793003082
1733404708895477000,3.06447705078125,9.634267807006836,2.1380221843719482,-0.35434186458587646
1733404708905486800,3.07448681640625,9.512163162231445,2.0398597717285156,-0.24181437492370605
1733404708915496700,3.08449658203125,9.220070838928223,2.0183119773864746,-0.1843535304069519
1733404708925475800,3.094475830078125,8.916007041931152,2.03507137298584,-0.1628057211637497
1733404708935485700,3.104485595703125,8.650250434875488,2.0231003761291504,0.026336219161748886
1733404708945495300,3.114495361328125,8.559270858764648,2.099714994430542,0.031124621629714966
1733404708955474700,3.124474609375,8.746018409729004,2.190694570541382,-0.06703764945268631
1733404708965484500,3.134484619140625,9.131484985351562,2.231395959854126,-0.15562310814857483
1733404708975494100,3.144494140625,9.773131370544434,2.2601263523101807,-0.22744916379451752
1733404708985504000,3.15450390625,10.402806282043457,2.1499931812286377,-0.181959331035614
1733404708995483100,3.164483154296875,11.216835021972656,2.1523873805999756,-0.30885201692581177
1733404709005493000,3.174492919921875,11.839327812194824,2.0829553604125977,-0.40940847992897034
1733404709015502800,3.1845029296875,12.459425926208496,2.185906171798706,-0.37828385829925537
1733404709025482000,3.19448193359375,12.899958610534668,2.279279947280884,-0.3926490843296051
1733404709035491800,3.204491943359375,12.990938186645508,2.300827741622925,-0.21787235140800476
1733404709045501700,3.214501708984375,12.854469299316406,2.209848165512085,0.15083470940589905
1733404709055480800,3.224480712890625,12.660538673400879,2.1092917919158936,0.5650315880775452
1733404709065490400,3.234490478515625,12.698845863342285,2.027888774871826,0.9241618514060974
1733404709075500300,3.244500244140625,13.010091781616211,2.0805611610412598,1.0199298858642578
1733404709085479400,3.2544794921875,13.275848388671875,2.2864625453948975,0.7493851184844971
1733404709095489300,3.2644892578125,13.199234008789062,2.456450939178467,0.49320554733276367
1733404709105499100,3.2744990234375,12.612654685974121,2.652775526046753,0.5410895943641663
1733404709115478300,3.284478271484375,11.777078628540039,2.736572504043579,0.608127236366272
1733404709125488000,3.294488037109375,10.72602367401123,2.3965959548950195,0.3902548849582672
1733404709135498000,3.304498046875,10.034099578857422,1.45806884765625,0.2968810200691223
1733404709145477000,3.31447705078125,10.14902114868164,0.395043283700943,0.26815059781074524
1733404709155487000,3.324487060546875,11.097125053405762,-0.7733271718025208,0.35913026332855225
1733404709165496600,3.33449658203125,12.327744483947754,-1.4413094520568848,0.33758243918418884
1733404709175475700,3.344475830078125,13.570335388183594,-1.5298948287963867,0.19632454216480255
1733404709185485600,3.354485595703125,13.814543724060059,-1.4317326545715332,0.12449848651885986
1733404709195495400,3.364495361328125,12.830527305603027,-1.2832920551300049,0.3016694188117981
1733404709205474600,3.374474609375,11.21204662322998,-1.0534487962722778,0.8786720037460327
1733404709215484400,3.384484375,9.035717010498047,-0.6703764796257019,1.2521674633026123
1733404709225494300,3.394494384765625,7.151480674743652,-0.038307227194309235,0.9864110946655273
1733404709235504000,3.404504150390625,5.530605792999268,0.7757213711738586,0.5961562395095825
1733404709245483300,3.414483154296875,4.240131378173828,1.3934253454208374,0.272938996553421
1733404709255492900,3.424492919921875,3.3877954483032227,1.7357962131500244,-0.019153613597154617
1733404709265502700,3.434502685546875,2.913743495941162,1.8076223134994507,-0.5027823448181152
1733404709275481900,3.44448193359375,3.337517261505127,1.721431016921997,-0.2513911724090576
1733404709285491700,3.45449169921875,4.525041103363037,1.3215993642807007,-0.3256114423274994
1733404709295501600,3.46450146484375,6.052541732788086,0.9193734526634216,-0.3064578175544739
1733404709305480700,3.474480712890625,7.934384346008301,0.4884171485900879,-0.2849099934101105
1733404709315490600,3.484490478515625,9.418789863586426,0.19393034279346466,-0.24660277366638184
1733404709325500400,3.49450048828125,10.558429718017578,0,-0.2322375625371933
1733404709335479600,3.5044794921875,10.90798282623291,-0.05267243832349777,-0.40701428055763245
1733404709345489200,3.5144892578125,10.78348445892334,0.08140286058187485,-0.545877993106842
1733404709355499000,3.5244990234375,10.153809547424316,0.45010992884635925,-0.5506663918495178
1733404709365478100,3.53447802734375,9.2033109664917,0.7326257228851318,-0.646434485912323
1733404709375488000,3.544488037109375,8.403648376464844,1.2641384601593018,-0.09576806426048279
1733404709385497900,3.554497802734375,7.977479934692383,1.482010841369629,0.002394201699644327
1733404709395477000,3.56447705078125,8.020575523376465,1.742978811264038,-0.12210428714752197
1733404709405486800,3.57448681640625,8.401253700256348,1.9704279899597168,-0.26575639843940735
1733404709415496700,3.58449658203125,8.990227699279785,2.011129379272461,-0.38067805767059326
1733404709425475800,3.594475830078125,9.59835433959961,2.03507137298584,-0.5363011956214905
1733404709435485700,3.604485595703125,10.20887565612793,1.9273324012756348,-0.6177040338516235
1733404709445495300,3.614495361328125,10.503362655639648,1.8195933103561401,-0.4836287498474121
1733404709455474700,3.624474609375,10.417171478271484,1.647210717201233,-0.30885201692581177
1733404709465484500,3.634484619140625,10.050858497619629,1.556231141090393,-0.011971008032560349
1733404709475494100,3.644494140625,9.627084732055664,1.5538369417190552,0.3926490843296051
1733404709485504000,3.65450390625,9.124302864074707,1.5753847360610962,0.6631938815116882
1733404709495483100,3.664483154296875,8.844181060791016,1.7166426181793213,0.6272808313369751
1733404709505493000,3.674492919921875,8.669404029846191,1.8722656965255737,0.6847416758537292
1733404709515502800,3.6845029296875,8.47547435760498,1.9752163887023926,0.7182605266571045
1733404709525482000,3.69448193359375,8.374917984008789,2.1140801906585693,0.6153098344802856
1733404709535491800,3.704491943359375,8.276755332946777,2.207453966140747,0.5626373887062073
1733404709545501700,3.714501708984375,8.35336971282959,2.3319525718688965,0.5746083855628967
1733404709555480800,3.724480712890625,8.56884765625,2.4013843536376953,0.6943184733390808
1733404709565490400,3.734490478515625,8.978256225585938,2.5115175247192383,0.790086567401886
1733404709575500300,3.744500244140625,9.244012832641602,2.6216509342193604,0.849941611289978
1733404709585479400,3.7544794921875,9.445125579833984,2.609679937362671,0.8954314589500427
1733404709595489300,3.7644892578125,9.813833236694336,2.5330653190612793,0.9241618514060974
1733404709605499100,3.7744990234375,10.26394271850586,2.3726539611816406,0.9911994934082031
1733404709615478300,3.784478271484375,10.656591415405273,2.0853497982025146,0.9672574996948242
1733404709625488100,3.794488037109375,11.329362869262695,1.7884687185287476,0.9792284965515137
1733404709635498000,3.804498046875,12.073959350585938,1.3694833517074585,1.0055646896362305
1733404709645477000,3.81447705078125,12.813767433166504,1.070208191871643,0.9193734526634216
1733404709655487000,3.824487060546875,13.721169471740723,1.3455413579940796,0.5051765441894531
1733404709665496600,3.83449658203125,14.092270851135254,1.6903064250946045,-0.033518824726343155
1733404709675475700,3.844475830078125,13.955801963806152,2.2002713680267334,-0.28730419278144836
1733404709685485600,3.854485595703125,13.48653793334961,2.6360161304473877,-0.7254431247711182
1733404709695495400,3.864495361328125,12.63899040222168,2.5689783096313477,-1.3431471586227417
1733404709705474600,3.874474609375,11.96861457824707,2.4372973442077637,-1.4173674583435059
1733404709715484400,3.884484375,11.865663528442383,2.3511061668395996,-1.5658079385757446
1733404709725494300,3.894494384765625,12.212822914123535,2.2577321529388428,-1.6711528301239014
1733404709735504100,3.904504150390625,12.459425926208496,1.659181833267212,-1.4484920501708984
1733404709745483300,3.914483154296875,12.713211059570312,0.6943184733390808,-0.8427590131759644
1733404709755492900,3.924492919921875,12.986149787902832,-0.3064578175544739,-0.26336219906806946
1733404709765502700,3.934502685546875,13.211204528808594,-1.3838485479354858,0.40701428055763245
1733404709775481900,3.94448193359375,13.374011039733887,-1.7812861204147339,0.6272808313369751
1733404709785491700,3.95449169921875,13.057975769042969,-1.4676456451416016,0.1628057211637497
1733404709795501600,3.96450146484375,12.1194486618042,-0.9145850539207458,-0.47644615173339844
1733404709805480700,3.974480712890625,10.747570991516113,-0.5027823448181152,-0.790086567401886
1733404709815490600,3.984490478515625,8.674192428588867,0.043095629662275314,-1.2856862545013428
1733404709825500400,3.99450048828125,6.347028732299805,0.2825157940387726,-1.7597382068634033
1733404709835479600,4.0044794921875,4.137180328369141,0.6440402865409851,-1.9177556037902832
1733404709845489200,4.0144892578125,2.7892448902130127,0.9241618514060974,-1.7334020137786865
1733404709855499000,4.0244990234375,2.1332337856292725,1.1420341730117798,-1.3479355573654175
1733404709865478100,4.03447802734375,2.207453966140747,1.2066776752471924,-0.9169792532920837
1733404709875488000,4.044488037109375,3.222595453262329,1.0534487962722778,-0.4381389021873474
1733404709885497900,4.054497802734375,4.63517427444458,0.7661445140838623,-0.090979665517807
1733404709895477000,4.06447705078125,6.5481414794921875,0.5985504388809204,-0.08140286058187485
1733404709905486800,4.07448681640625,8.53293514251709,0.4620809257030487,-0.014365210197865963
1733404709915496700,4.08449658203125,10.04846477508545,0.3711012601852417,0.07661445438861847
1733404709925475800,4.094475830078125,11.286267280578613,0.2298433631658554,0.07422025501728058
1733404709935485700,4.104485595703125,12.021286964416504,0.29209262132644653,0.23942017555236816
1733404709945495600,4.11449560546875,12.251130104064941,0.3519476354122162,0.42856210470199585
1733404709955474700,4.124474609375,12.040440559387207,0.5770025849342346,0.40701428055763245
1733404709965484500,4.134484619140625,11.54005241394043,0.9313444495201111,0.26575639843940735
1733404709975494100,4.144494140625,10.915165901184082,1.2641384601593018,0.181959331035614
1733404709985504000,4.15450390625,10.101137161254883,1.5945383310317993,0.17477671802043915
1733404709995483100,4.164483154296875,9.363722801208496,1.800439715385437,0.21547815203666687
1733404710005493000,4.174492919921875,8.791508674621582,1.9345149993896484,0.21547815203666687
1733404710015502800,4.1845029296875,8.434772491455078,2.0853497982025146,0.15322890877723694
1733404710025482000,4.19448193359375,8.202534675598145,2.142810583114624,0.08619125932455063
1733404710035491800,4.204491943359375,8.037335395812988,2.1475989818573,-0.08858546614646912
1733404710045501700,4.214501708984375,7.999027729034424,2.1499931812286377,-0.16519992053508759
1733404710055480800,4.224480712890625,8.061277389526367,2.140416383743286,-0.272938996553421
1733404710065490400,4.234490478515625,8.121131896972656,2.145204782485962,-0.38067805767059326
1733404710075500300,4.244500244140625,8.243236541748047,2.1475989818573,-0.5937620401382446
1733404710085479400,4.2544794921875,8.372523307800293,2.097320795059204,-0.646434485912323
1733404710095489300,4.2644892578125,8.578424453735352,2.0614075660705566,-0.7182605266571045
1733404710105499100,4.2744990234375,8.834604263305664,1.9752163887023926,-0.7158663272857666
1733404710115478300,4.284478271484375,9.129091262817383,1.9153614044189453,-0.7206547260284424
1733404710125488000,4.294488037109375,9.44752025604248,1.920149803161621,-0.730231523513794
1733404710135498000,4.304498046875,9.727641105651855,1.8171991109848022,-0.5674257874488831
1733404710145477000,4.31447705078125,10.010157585144043,1.8602946996688843,-0.545877993106842
1733404710155487000,4.324487060546875,10.266336441040039,1.9608511924743652,-0.6153098344802856
1733404710165496600,4.33449658203125,10.381258964538574,2.0661959648132324,-0.5817909836769104
1733404710175475700,4.344475830078125,10.3549222946167,2.1930887699127197,-0.6224924325942993
1733404710185485600,4.354485595703125,10.129867553710938,2.3295583724975586,-0.7493851184844971
1733404710195495400,4.364495361328125,9.861717224121094,2.3965959548950195,-0.9145850539207458
1733404710205474600,4.374474609375,9.727641105651855,2.5067291259765625,-1.070208191871643
1733404710215484400,4.384484375,9.737217903137207,2.604891538619995,-1.2497732639312744
1733404710225494300,4.394494384765625,9.885659217834473,2.7006595134735107,-1.5945383310317993
1733404710235504000,4.404504150390625,10.17296314239502,2.4444799423217773,-1.6089035272598267
1733404710245483300,4.414483154296875,10.558429718017578,1.9847931861877441,-1.235408067703247
1733404710255492900,4.424492919921875,11.35809326171875,1.4748282432556152,-0.4405331015586853
1733404710265502700,4.434502685546875,12.447454452514648,1.1085153818130493,0.507570743560791
1733404710275481900,4.44448193359375,13.872004508972168,1.1085153818130493,1.1659762859344482
1733404710285491700,4.45449169921875,14.786589622497559,1.2425906658172607,1.3311761617660522
1733404710295501600,4.46450146484375,15.397110939025879,1.845929503440857,1.4293384552001953
1733404710305480700,4.474480712890625,15.243882179260254,2.094926595687866,1.482010841369629
1733404710315490600,4.484490478515625,14.269442558288574,2.013523578643799,1.3670891523361206
1733404710325500400,4.49450048828125,13.15853214263916,1.556231141090393,1.278503656387329
1733404710335479600,4.5044794921875,12.251130104064941,0.6344634294509888,0.9768342971801758
1733404710345489200,4.5144892578125,12.131420135498047,-0.3423708379268646,0.3064578175544739
1733404710355499000,4.5244990234375,12.777854919433594,-0.8307880163192749,-0.16519992053508759
1733404710365478400,4.534478515625,13.441048622131348,-1.0199298858642578,-0.5530605912208557
1733404710375488000,4.544488037109375,13.189657211303711,-1.115697979927063,-0.6727706789970398
1733404710385497900,4.554497802734375,12.179304122924805,-1.0199298858642578,-0.016759412363171577
1733404710395477000,4.56447705078125,10.623072624206543,-0.9145850539207458,0.5267243981361389
1733404710405486800,4.57448681640625,8.60236644744873,-0.7589619159698486,1.3407529592514038
1733404710415496700,4.58449658203125,6.8162922859191895,-0.42377370595932007,1.7621324062347412
1733404710425475800,4.594475830078125,5.054159641265869,0.019153613597154617,1.8746598958969116
1733404710435485700,4.604485595703125,3.818751811981201,0.4644751250743866,1.7860745191574097
1733404710445495600,4.61449560546875,2.9688100814819336,0.8954314589500427,1.6687586307525635
1733404710455474700,4.624474609375,2.832340717315674,1.1013327836990356,1.5275006294250488
1733404710465484500,4.634484619140625,3.184288263320923,1.1013327836990356,1.314416766166687
1733404710475494100,4.644494140625,4.2760443687438965,1.1635819673538208,0.9050082564353943
1733404710485504000,4.65450390625,5.578489780426025,1.2401964664459229,0.5530605912208557
1733404710495483100,4.664483154296875,7.074865818023682,1.2018892765045166,0.19632454216480255
1733404710505493000,4.674492919921875,8.303091049194336,1.1683704853057861,-0.002394201699644327
1733404710515502800,4.6845029296875,9.306262016296387,1.0031704902648926,-0.08858546614646912
1733404710525482000,4.69448193359375,9.947908401489258,0.9050082564353943,-0.21547815203666687
1733404710535491800,4.704491943359375,10.414777755737305,0.9002198576927185,-0.3447650372982025
1733404710545501700,4.714501708984375,10.706870079040527,0.9792284965515137,-0.6320692300796509
1733404710555480800,4.724480712890625,10.81460952758789,0.9983820915222168,-0.849941611289978
1733404710565490700,4.73449072265625,10.78587818145752,1.01753568649292,-0.8643068075180054
1733404710575500300,4.744500244140625,10.678139686584473,1.1037269830703735,-0.8475474119186401
1733404710585479400,4.7544794921875,10.524910926818848,1.2761094570159912,-0.8427590131759644
1733404710595489300,4.7644892578125,10.450690269470215,1.4245500564575195,-0.7852981686592102
1733404710605499100,4.7744990234375,10.232817649841309,1.4844050407409668,-0.6967126727104187
1733404710615478300,4.784478271484375,9.959878921508789,1.4772224426269531,-0.4357447028160095
1733404710625488100,4.794488037109375,9.593565940856934,1.5514427423477173,-0.40222588181495667
1733404710635498000,4.804498046875,9.284713745117188,1.5873557329177856,-0.181959331035614
1733404710645477000,4.81447705078125,8.96389102935791,1.6543933153152466,0.08140286058187485
1733404710655487000,4.824487060546875,8.631096839904785,1.723825216293335,0.24420857429504395
1733404710665496600,4.83449658203125,8.35097599029541,1.7860745191574097,0.35913026332855225
1733404710675475700,4.844475830078125,8.190564155578613,1.886630892753601,0.49320554733276367
1733404710685485600,4.854485595703125,8.128314971923828,1.9800047874450684,0.6009446382522583
1733404710695495400,4.864495361328125,8.157045364379883,2.0877439975738525,0.6344634294509888
1733404710705474600,4.874474609375,8.157045364379883,2.073378562927246,0.6488286852836609
1733404710715484400,4.884484375,8.178592681884766,2.0829553604125977,0.6488286852836609
1733404710725494300,4.894494384765625,8.176198959350586,2.078166961669922,0.629675030708313
1733404710735504100,4.904504150390625,8.291120529174805,2.027888774871826,0.5434837937355042
1733404710745483300,4.914483154296875,8.47547435760498,2.0638017654418945,0.5027823448181152
1733404710755492900,4.924492919921875,8.832210540771484,2.1140801906585693,0.5003881454467773
1733404710765502700,4.934502685546875,9.114726066589355,2.1523873805999756,0.49799394607543945
1733404710775481900,4.94448193359375,9.440337181091309,2.185906171798706,0.5554547905921936
1733404710785491700,4.95449169921875,9.81143856048584,2.2457611560821533,0.6224924325942993
1733404710795501600,4.96450146484375,10.125079154968262,2.255337953567505,0.7781155705451965
1733404710805480700,4.974480712890625,10.491392135620117,2.207453966140747,1.0342950820922852
1733404710815490600,4.984490478515625,10.876858711242676,2.1332337856292725,1.3287819623947144
1733404710825500400,4.99450048828125,11.434707641601562,1.9967641830444336,1.4891934394836426
1733404710835479600,5.0044794921875,12.06198787689209,1.944091796875,1.580173134803772
1733404710845489400,5.014489501953125,12.69405746459961,1.9919757843017578,1.3934253454208374
1733404710855499000,5.0244990234375,13.055582046508789,2.233790159225464,0.8930372595787048
1733404710865478400,5.034478515625,13.036428451538086,2.6024973392486572,0.18914192914962769
1733404710875488000,5.044488037109375,12.830527305603027,2.999934673309326,-0.7230489253997803
1733404710885497900,5.054497802734375,12.550405502319336,3.1531636714935303,-1.3287819623947144
1733404710895477000,5.06447705078125,12.337321281433105,3.117250680923462,-1.5729905366897583
1733404710905486800,5.07448681640625,12.306197166442871,3.0119056701660156,-1.5083470344543457
1733404710915496700,5.08449658203125,12.282255172729492,2.853888511657715,-1.6328455209732056
1733404710925475800,5.094475830078125,12.253523826599121,2.3487119674682617,-1.680729627609253
1733404710935485700,5.104485595703125,12.253523826599121,1.3311761617660522,-1.3287819623947144
1733404710945495600,5.11449560546875,12.741941452026367,0.21787235140800476,-0.8954314589500427
1733404710955474700,5.124474609375,13.826515197753906,-1.0295066833496094,-0.42856210470199585
1733404710965484500,5.134484619140625,15.002067565917969,-1.7118542194366455,-0.4165911078453064
1733404710975494100,5.144494140625,16.05312156677246,-1.6328455209732056,-0.9145850539207458
1733404710985504000,5.15450390625,15.993267059326172,-1.290474772453308,-1.2952631711959839
1733404710995483100,5.164483154296875,14.200010299682617,-0.912190854549408,-1.6855180263519287
1733404711005493000,5.174492919921875,11.614272117614746,-0.3064578175544739,-2.094926595687866
1733404711015502800,5.1845029296875,8.96149730682373,0.24420857429504395,-2.1715409755706787
1733404711025482000,5.19448193359375,5.96874475479126,0.569819986820221,-2.2146365642547607
1733404711035491800,5.204491943359375,3.8331170082092285,0.7493851184844971,-2.0039467811584473
1733404711045501700,5.214501708984375,2.279279947280884,0.8738836050033569,-1.601720929145813
1733404711055480800,5.224480712890625,1.8579005002975464,1.0319008827209473,-1.1516109704971313
1733404711065490400,5.234490478515625,2.5785553455352783,1.1994950771331787,-0.7709329724311829
1733404711075500300,5.244500244140625,4.127603530883789,1.2473790645599365,-0.44771572947502136
1733404711085874000,5.2548740234375,6.064512729644775,1.1109095811843872,0.16519992053508759
1733404711095883800,5.2648837890625,7.759607791900635,0.9409212470054626,0.3447650372982025
1733404711105893600,5.2748935546875,9.30386734008789,0.8954314589500427,0.43335050344467163
1733404711115872800,5.284872802734375,10.290278434753418,0.9481038451194763,0.5147533416748047
1733404711125882400,5.29488232421875,10.735600471496582,0.9816226959228516,0.5770025849342346
1733404711135892200,5.304892333984375,10.778696060180664,1.1180921792984009,0.5770025849342346
1733404711145871400,5.314871337890625,10.596736907958984,1.2521674633026123,0.47165772318840027
1733404711155881200,5.324881103515625,10.012551307678223,1.3862427473068237,0.40940847992897034
1733404711165891000,5.33489111328125,9.394847869873047,1.5394717454910278,0.3016694188117981
1733404711175870200,5.3448701171875,8.904036521911621,1.7525556087493896,0.12449848651885986
1733404711185880000,5.354880126953125,8.35097599029541,1.9177556037902832,0.05027823522686958
1733404711195890000,5.364889892578125,7.7213006019592285,2.0925323963165283,-0.002394201699644327
1733404711205869000,5.374869140625,7.340622425079346,2.2170307636260986,-0.09576806426048279
1733404711215879000,5.38487890625,7.0341644287109375,2.315192937850952,-0.09576806426048279
1733404711225888500,5.394888427734375,6.926425457000732,2.389413356781006,-0.021547814831137657
1733404711235898400,5.4048984375,6.88332986831665,2.296039342880249,0.10055647045373917
1733404711245877800,5.414877685546875,7.015010833740234,2.2697031497955322,0.1843535304069519
1733404711255887400,5.424887451171875,7.237671852111816,2.279279947280884,0.19153612852096558
1733404711265897200,5.434897216796875,7.608773231506348,2.3056161403656006,0.15322890877723694
1733404711275876400,5.44487646484375,8.070854187011719,2.346317768096924,0.05267243832349777
1733404711285886200,5.45488623046875,8.688557624816895,2.322375535964966,-0.090979665517807
1733404711295896000,5.46489599609375,9.133879661560059,2.315192937850952,-0.12928688526153564
1733404711305875200,5.474875244140625,9.576807022094727,2.274491548538208,-0.17477671802043915
1733404711315885000,5.484885009765625,9.955090522766113,2.3032219409942627,-0.18914192914962769
1733404711325895000,5.49489501953125,10.187328338623047,2.3343467712402344,-0.2849099934101105
1733404711335874000,5.5048740234375,10.251971244812012,2.367865562438965,-0.17956513166427612
1733404711345883600,5.514883544921875,10.244789123535156,2.4420857429504395,-0.21547815203666687
1733404711355893500,5.5248935546875,10.232817649841309,2.5474305152893066,-0.23942017555236816
1733404711365872600,5.53487255859375,10.268731117248535,2.626439332962036,-0.21308395266532898
1733404711375882500,5.544882568359375,10.230423927307129,2.801215887069702,-0.3016694188117981
1733404711385892400,5.554892333984375,10.199298858642578,2.9448680877685547,-0.3878606855869293
1733404711395871500,5.56487158203125,10.271124839782715,3.071760892868042,-0.4836287498474121
1733404711405881300,5.57488134765625,10.237606048583984,3.045424461364746,-0.5817909836769104
1733404711415891200,5.58489111328125,10.38604736328125,2.9712042808532715,-0.6799532771110535
1733404711425870300,5.594870361328125,10.556035041809082,2.9281086921691895,-0.9816226959228516
1733404711435880200,5.604880126953125,10.891223907470703,2.846705913543701,-1.1276689767837524
1733404711445889800,5.614889892578125,11.331756591796875,2.691082715988159,-0.9169792532920837
1733404711455869000,5.624868896484375,11.686098098754883,2.5330653190612793,-0.5650315880775452
1733404711465878800,5.634878662109375,12.236764907836914,2.2697031497955322,0.0454898327589035
1733404711475888600,5.644888671875,12.804190635681152,2.0590133666992188,0.4429273009300232
1733404711485898500,5.6548984375,13.584700584411621,2.097320795059204,0.7781155705451965
1733404711495877600,5.664877685546875,14.204798698425293,2.248155355453491,0.9911994934082031
1733404711505887500,5.674887451171875,14.322114944458008,2.5067291259765625,0.9792284965515137
1733404711515897300,5.6848974609375,14.135366439819336,2.7940332889556885,0.9002198576927185
1733404711525876500,5.69487646484375,13.206416130065918,2.6791117191314697,0.9026140570640564
1733404711535886300,5.70488623046875,12.148179054260254,2.099714994430542,1.0989385843276978
1733404711545896000,5.71489599609375,11.149797439575195,1.0319008827209473,1.3024457693099976
1733404711555875000,5.724875,10.8720703125,-0.15322890877723694,1.0462661981582642
1733404711565885000,5.734885009765625,10.975020408630371,-0.8020575642585754,0.8858546018600464
1733404711575894800,5.744894775390625,11.528080940246582,-0.8547300100326538,0.9552865028381348
1733404711585874000,5.7548740234375,11.604695320129395,-0.8379706144332886,0.849941611289978
1733404711595883800,5.7648837890625,10.92953109741211,-0.8858546018600464,0.8954314589500427
1733404711605893600,5.7748935546875,9.785101890563965,-0.7398083209991455,1.1228805780410767
1733404711615872800,5.784872802734375,8.097189903259277,-0.43095630407333374,1.2258312702178955
1733404711625882600,5.794882568359375,6.4380083084106445,-0.021547814831137657,1.0534487962722778
1733404711635892200,5.804892333984375,4.78122091293335,0.5817909836769104,0.8236053586006165
1733404711645871400,5.814871337890625,3.6080620288848877,1.0678139925003052,0.6536170840263367
1733404711655881200,5.824881103515625,2.959233283996582,1.4652514457702637,0.3711012601852417
1733404711665891000,5.83489111328125,3.2082302570343018,1.5849615335464478,0.19153612852096558
1733404711675870200,5.8448701171875,4.1180267333984375,1.3646949529647827,0.18914192914962769
1733404711685880000,5.854880126953125,5.669469833374023,1.0031704902648926,-0.12449848651885986
1733404711695890000,5.864889892578125,7.285555839538574,0.7230489253997803,-0.26575639843940735
1733404711705869000,5.874869140625,8.999804496765137,0.44771572947502136,-0.3734954595565796
1733404711715879000,5.88487890625,10.366893768310547,0.2992752194404602,-0.395043283700943
1733404711725888500,5.894888427734375,11.437101364135742,0.21787235140800476,-0.49559974670410156
1733404711735898400,5.9048984375,11.949460983276367,0.24660277366638184,-0.629675030708313
1733404711745877800,5.914877685546875,12.11705493927002,0.3878606855869293,-0.6057330369949341
1733404711755887400,5.924887451171875,11.915942192077637,0.5578489899635315,-0.4381389021873474
1733404711765897200,5.934897216796875,11.173739433288574,0.8930372595787048,-0.4908113479614258
1733404711775876400,5.94487646484375,10.287884712219238,1.3311761617660522,-0.5051765441894531
1733404711785886200,5.95488623046875,9.32302188873291,1.6136919260025024,-0.3663128614425659
1733404711795896000,5.96489599609375,8.480262756347656,1.7884687185287476,-0.38307225704193115
1733404711805875200,5.974875244140625,8.078036308288574,1.987187385559082,-0.4620809257030487
1733404711815885000,5.984885009765625,7.905653953552246,2.032677173614502,-0.45010992884635925
1733404711825895000,5.99489501953125,8.037335395812988,2.0422539710998535,-0.524330198764801
1733404711835874000,6.0048740234375,8.44195556640625,1.9776105880737305,-0.3902548849582672
1733404711845884000,6.0148837890625,8.860940933227539,1.8770540952682495,-0.22744916379451752
1733404711855893500,6.0248935546875,9.126696586608887,1.7525556087493896,-0.12449848651885986
1733404711865872600,6.03487255859375,9.205705642700195,1.680729627609253,-0.011971008032560349
1733404711875882500,6.044882568359375,8.990227699279785,1.6687586307525635,0.047884032130241394
1733404711885892400,6.054892333984375,8.69334602355957,1.6927006244659424,0.047884032130241394
1733404711895871500,6.06487158203125,8.422801971435547,1.7693150043487549,0.14844051003456116
1733404711905881300,6.07488134765625,8.219294548034668,1.766920804977417,0.30885201692581177
1733404711915891200,6.08489111328125,8.068459510803223,1.7956513166427612,0.36152446269989014
1733404711925870300,6.094870361328125,8.099584579467773,1.8267759084701538,0.28969839215278625
1733404711935880200,6.104880126953125,8.374917984008789,1.8315643072128296,0.3016694188117981
1733404711945889800,6.114889892578125,8.707711219787598,1.8579005002975464,0.2346317619085312
1733404711955869000,6.124868896484375,8.939949035644531,1.9345149993896484,0.06464344263076782
1733404711965878800,6.134878662109375,9.20091724395752,1.9967641830444336,-0.06464344263076782
1733404711975888600,6.144888671875,9.39245319366455,2.049436569213867,-0.11971008777618408
1733404711985898500,6.1548984375,9.524134635925293,2.1332337856292725,-0.2322375625371933
1733404711995877600,6.164877685546875,9.612719535827637,2.1332337856292725,-0.12449848651885986
1733404712005887500,6.174887451171875,9.75397777557373,2.166752576828003,0.004788403399288654
1733404712015897300,6.1848974609375,9.914389610290527,2.145204782485962,0.3280056416988373
1733404712025876500,6.19487646484375,10.18493366241455,2.0590133666992188,0.6057330369949341
1733404712035886000,6.204885986328125,10.793061256408691,1.920149803161621,0.8954314589500427
1733404712045896000,6.21489599609375,11.621455192565918,1.8962076902389526,1.1683704853057861
1733404712055875000,6.224875,12.593501091003418,1.9081788063049316,1.2330138683319092
1733404712065885000,6.234885009765625,13.204022407531738,2.2026655673980713,1.0989385843276978
1733404712075894800,6.244894775390625,13.333309173583984,2.715024709701538,0.7398083209991455
1733404712085874000,6.2548740234375,12.94305419921875,3.1244332790374756,0.31603461503982544
1733404712095883800,6.2648837890625,12.021286964416504,3.270479440689087,-0.11013327538967133
1733404712105893600,6.2748935546875,11.259930610656738,3.2393548488616943,-0.4429273009300232
1733404712115872800,6.284872802734375,11.101913452148438,3.0334534645080566,-0.40462008118629456
1733404712125882400,6.29488232421875,11.374852180480957,2.7485435009002686,-0.5650315880775452
1733404712135892200,6.304892333984375,11.781867027282715,2.3726539611816406,-0.5410895943641663
1733404712145871400,6.314871337890625,12.318167686462402,1.6376339197158813,-0.3447650372982025
1733404712155881200,6.324881103515625,12.773066520690918,0.7038952708244324,-0.0454898327589035
1733404712165891000,6.33489111328125,13.615824699401855,-0.5530605912208557,0.45489832758903503
1733404712175870200,6.3448701171875,14.741100311279297,-1.479616641998291,0.5482721924781799
1733404712185880000,6.354880126953125,15.91665267944336,-2.1787235736846924,0.3232172429561615
1733404712195890000,6.364889892578125,16.352397918701172,-2.1811177730560303,0.40222588181495667
1733404712205869000,6.374869140625,15.725116729736328,-1.7334020137786865,-0.363918662071228
1733404712215879000,6.38487890625,13.646949768066406,-1.2186486721038818,-1.2234370708465576
1733404712225888800,6.394888671875,11.583148002624512,-0.38067805767059326,-1.6112977266311646
1733404712235898400,6.4048984375,8.875306129455566,0.42856210470199585,-1.9297266006469727
1733404712245877800,6.414877685546875,6.165069580078125,0.9864110946655273,-2.3032219409942627
1733404712255887400,6.424887451171875,3.5913026332855225,1.414973258972168,-2.3080103397369385
1733404712265897200,6.434897216796875,2.006340980529785,1.6639702320098877,-1.9752163887023926
1733404712275876400,6.44487646484375,1.1994950771331787,1.8794482946395874,-1.6903064250946045
1733404712285886200,6.45488623046875,1.213860273361206,1.7764976024627686,-1.5658079385757446
1733404712295896000,6.46489599609375,1.8555063009262085,1.2761094570159912,-1.194706678390503
1733404712305875200,6.474875244140625,3.4093432426452637,1.1300631761550903,-0.9864110946655273
1733404712315885000,6.484885009765625,5.492298603057861,0.8236053586006165,-0.6607996821403503
1733404712325895000,6.49489501953125,7.326257228851318,0.4189853072166443,-0.569819986820221
1733404712335874000,6.5048740234375,9.129091262817383,0.14604631066322327,-0.5650315880775452
1733404712345883600,6.514883544921875,10.972626686096191,-0.05985504388809204,-0.667982280254364
1733404712355893500,6.5248935546875,12.320562362670898,-0.26096799969673157,-0.5386953949928284
1733404712365872600,6.53487255859375,13.225569725036621,-0.31124621629714966,-0.3878606855869293
1733404712375882500,6.544882568359375,13.204022407531738,-0.23702596127986908,-0.3280056416988373
1733404712385892400,6.554892333984375,12.445060729980469,0.12210428714752197,-0.2753331959247589
1733404712395871500,6.56487158203125,11.44907283782959,0.545877993106842,-0.2059013396501541
1733404712405881300,6.57488134765625,10.42195987701416,0.9983820915222168,-0.1388636976480484
1733404712415891200,6.58489111328125,9.897629737854004,1.3527239561080933,-0.07900865375995636
1733404712425870300,6.594870361328125,9.406818389892578,1.6352397203445435,-0.038307227194309235
1733404712435880200,6.604880126953125,8.880094528198242,1.8411411046981812,-0.05506663769483566
1733404712445889800,6.614889892578125,8.731653213500977,2.2457611560821533,-0.1843535304069519
1733404712455869000,6.624868896484375,8.286332130432129,2.4372973442077637,-0.19393034279346466
1733404712465878800,6.634878662109375,7.982268333435059,2.367865562438965,-0.2777273952960968
1733404712475888600,6.644888671875,8.018181800842285,2.2242133617401123,-0.1412578970193863
1733404712485898500,6.6548984375,8.185775756835938,1.9847931861877441,-0.10773907601833344
1733404712495877600,6.664877685546875,8.40843677520752,1.7118542194366455,-0.13407529890537262
1733404712505887500,6.674887451171875,8.83699893951416,1.5682021379470825,-0.016759412363171577
1733404712515897300,6.6848974609375,9.246406555175781,1.3886369466781616,-0.05985504388809204
1733404712525876500,6.69487646484375,9.524134635925293,1.2832920551300049,0.026336219161748886
1733404712535886300,6.70488623046875,9.651026725769043,1.2425906658172607,0.11013327538967133
1733404712545896000,6.71489599609375,9.536105155944824,1.2737152576446533,0.27054479718208313
1733404712555875000,6.724875,9.351752281188965,1.3646949529647827,0.31124621629714966
1733404712565885000,6.734885009765625,9.17936897277832,1.6041151285171509,0.26336219906806946
1733404712575894800,6.744894775390625,9.107542991638184,1.8842366933822632,0.2968810200691223
1733404712585874000,6.7548740234375,9.131484985351562,2.1571757793426514,0.2322375625371933
1733404712595883800,6.7648837890625,9.275136947631836,2.408566951751709,0.08619125932455063
1733404712605893600,6.7748935546875,9.476250648498535,2.5761611461639404,0.15562310814857483
1733404712615872800,6.784872802734375,9.576807022094727,2.655169725418091,0.35673606395721436
1733404712625882600,6.794882568359375,9.564835548400879,2.6647465229034424,0.363918662071228
1733404712635892200,6.804892333984375,9.536105155944824,2.698265314102173,0.28969839215278625
1733404712645871600,6.81487158203125,9.607931137084961,2.693476915359497,0.31124621629714966
1733404712655881200,6.824881103515625,9.818621635437012,2.63362193107605,0.3758896589279175
1733404712665891000,6.83489111328125,10.091560363769531,2.542642116546631,0.40462008118629456
1733404712675870500,6.844870361328125,10.424354553222656,2.3750481605529785,0.5219359993934631
1733404712685880000,6.854880126953125,10.867281913757324,2.3343467712402344,0.8307880163192749
1733404712695890000,6.864889892578125,11.23598861694336,2.233790159225464,1.0989385843276978
1733404712705869000,6.874869140625,11.384428977966309,2.118868589401245,1.2880805730819702
1733404712715879000,6.88487890625,11.848904609680176,1.8914192914962769,1.5897499322891235
1733404712725888800,6.894888671875,12.346898078918457,1.6855180263519287,1.8579005002975464
1733404712735898400,6.9048984375,12.607866287231445,1.6424223184585571,1.9536685943603516
1733404712745877800,6.914877685546875,12.650961875915527,1.6615760326385498,1.7094600200653076
1733404712755887400,6.924887451171875,12.291831970214844,1.4077905416488647,1.558625340461731
1733404712765897200,6.934897216796875,12.248735427856445,1.0319008827209473,1.7956513166427612
1733404712775876400,6.94487646484375,12.459425926208496,0.49559974670410156,1.9249382019042969
1733404712785886200,6.95488623046875,12.868834495544434,-0.26575639843940735,2.0422539710998535
1733404712795896000,6.96489599609375,13.563152313232422,-0.8523358106613159,2.0183119773864746
1733404712805875200,6.974875244140625,14.279019355773926,-1.1683704853057861,1.9728221893310547
1733404712815885000,6.984885009765625,14.427459716796875,-1.01753568649292,1.7262194156646729
1733404712825895000,6.99489501953125,13.634978294372559,-0.5315127968788147,1.41257905960083
1733404712835874000,7.0048740234375,12.176909446716309,-0.043095629662275314,1.0821791887283325
1733404712845884000,7.0148837890625,10.204087257385254,0.3734954595565796,0.933738648891449
1733404712855893500,7.0248935546875,8.300697326660156,0.9074024558067322,0.5841852426528931
1733404712865872600,7.03487255859375,6.222530364990234,1.1492167711257935,0.4118026793003082
1733404712875882500,7.044882568359375,4.611232280731201,1.3072341680526733,0.5841852426528931
1733404712885892400,7.054892333984375,3.6607344150543213,1.4748282432556152,0.689530074596405
1733404712895871500,7.06487158203125,3.0813376903533936,1.5442601442337036,0.706289529800415
1733404712905881300,7.07488134765625,2.9927520751953125,1.4077905416488647,0.5434837937355042
1733404712915891200,7.08489111328125,3.4332852363586426,1.139639973640442,0.3423708379268646
1733404712925870300,7.094870361328125,4.273650169372559,0.7996633648872375,0.14844051003456116
1733404712935880200,7.104880126953125,5.57370138168335,0.3663128614425659,-0.05506663769483566
1733404712945889800,7.114889892578125,7.046135425567627,-0.043095629662275314,-0.1628057211637497
1733404712955869000,7.124868896484375,8.829815864562988,-0.2849099934101105,-0.40462008118629456
1733404712965878800,7.134878662109375,10.335768699645996,-0.395043283700943,-0.6248866319656372
1733404712975888600,7.144888671875,11.583148002624512,-0.3758896589279175,-0.8068459630012512
1733404712985898500,7.1548984375,12.227188110351562,-0.19153612852096558,-0.9624691009521484
1733404712995877600,7.164877685546875,12.437877655029297,0.18914192914962769,-0.9409212470054626
1733404713005887500,7.174887451171875,12.107478141784668,0.6392518281936646,-0.9265560507774353
1733404713015897300,7.1848974609375,11.549629211425781,0.9528923034667969,-1.0319008827209473
1733404713025876500,7.19487646484375,10.90798282623291,1.2641384601593018,-1.0414776802062988
1733404713035886000,7.204885986328125,10.450690269470215,1.558625340461731,-1.1324573755264282
1733404713045896000,7.21489599609375,10.110713958740234,1.7190368175506592,-1.2665326595306396
1733404713055875000,7.224875,9.90241813659668,1.745373010635376,-1.2306196689605713
1733404713065885000,7.234885009765625,9.62947940826416,1.7118542194366455,-1.292868971824646
1733404713075894800,7.244894775390625,9.41400146484375,1.522712230682373,-1.3215993642807007
1733404713085874000,7.2548740234375,9.239224433898926,1.414973258972168,-1.2330138683319092
1733404713095883800,7.2648837890625,9.071630477905273,1.316810965538025,-1.170764684677124
1733404713105893600,7.2748935546875,8.927978515625,1.2473790645599365,-1.0869675874710083
1733404713115872800,7.284872802734375,8.868123054504395,1.2186486721038818,-1.0295066833496094
1733404713125882400,7.29488232421875,8.844181060791016,1.1779472827911377,-1.0103530883789062
1733404713135892200,7.304892333984375,8.884882926940918,1.1492167711257935,-1.0678139925003052
1733404713145871600,7.31487158203125,8.932766914367676,1.1803414821624756,-1.1899182796478271
1733404713155881200,7.324881103515625,9.08838939666748,1.2401964664459229,-1.2713210582733154
1733404713165891000,7.33489111328125,9.220070838928223,1.3335703611373901,-1.2952631711959839
1733404713175870200,7.3448701171875,9.375694274902344,1.460463047027588,-1.2761094570159912
1733404713185880000,7.354880126953125,9.320627212524414,1.50355863571167,-1.237802267074585
1733404713195890000,7.364889892578125,9.157821655273438,1.4389152526855469,-1.2330138683319092
1733404713205869000,7.374869140625,9.20091724395752,1.400607943534851,-1.290474772453308
1733404713215879000,7.38487890625,9.418789863586426,1.4221558570861816,-1.4197616577148438
1733404713225888800,7.394888671875,9.742006301879883,1.290474772453308,-1.7070658206939697
1733404713235898400,7.4048984375,10.278307914733887,1.1180921792984009,-1.8052281141281128
1733404713245877800,7.414877685546875,10.742782592773438,1.113303780555725,-1.7693150043487549
1733404713255887400,7.424887451171875,11.070788383483887,1.216254472732544,-1.6615760326385498
1733404713265897200,7.434897216796875,11.05402946472168,1.1827356815338135,-1.4269442558288574
1733404713275876400,7.44487646484375,10.723628997802734,1.094150185585022,-1.280897855758667
1733404713285886200,7.45488623046875,10.488997459411621,0.8882488012313843,-1.1540051698684692
1733404713295896000,7.46489599609375,10.378864288330078,0.8882488012313843,-0.8571242094039917
1733404713305875200,7.474875244140625,10.287884712219238,0.7924807667732239,-0.7805097699165344
1733404713315885000,7.484885009765625,10.321403503417969,1.015141487121582,-0.727837324142456
1733404713325895000,7.49489501953125,9.5408935546875,1.7310078144073486,-0.3687070608139038
1733404713335874000,7.5048740234375,9.074024200439453,1.5634137392044067,-0.7110779285430908
1733404713345883600,7.514883544921875,9.330204010009766,1.400607943534851,-0.33997663855552673
1733404713355893500,7.5248935546875,9.895236015319824,1.6136919260025024,0.17238251864910126
1733404713365872600,7.53487255859375,10.029311180114746,1.4269442558288574,0.40462008118629456
1733404713375882500,7.544882568359375,10.44350814819336,0.9265560507774353,0.5506663918495178
1733404713385892400,7.554892333984375,11.164162635803223,0.7206547260284424,0.5602431893348694
1733404713395871500,7.56487158203125,12.172121047973633,0.6009446382522583,0.6009446382522583
1733404713405881300,7.57488134765625,13.163320541381836,0.7374141216278076,0.16519992053508759
1733404713415891200,7.58489111328125,13.996502876281738,0.5482721924781799,0.06224924325942993
1733404713425870300,7.594870361328125,14.231135368347168,0.6033388376235962,-0.21547815203666687
1733404713435880200,7.604880126953125,13.438653945922852,0.8954314589500427,-0.9552865028381348
1733404713445889800,7.614889892578125,11.738770484924316,1.0797849893569946,-1.3479355573654175
1733404713455869000,7.624868896484375,9.818621635437012,1.192312479019165,-1.7262194156646729
1733404713465878800,7.634878662109375,7.972691535949707,1.4221558570861816,-2.0470423698425293
1733404713475888600,7.644888671875,6.7061591148376465,1.3646949529647827,-1.86508309841156
1733404713485898500,7.6548984375,5.817910194396973,1.3910311460494995,-1.8411411046981812
1733404713495877600,7.664877685546875,5.796362400054932,1.3048399686813354,-2.121262788772583
1733404713505887500,7.674887451171875,6.090848922729492,1.1827356815338135,-2.564189910888672
1733404713515897300,7.6848974609375,6.63433313369751,0.9792284965515137,-2.7269957065582275
1733404713525876500,7.69487646484375,7.3238630294799805,0.6919242739677429,-3.1435868740081787
1733404713535886300,7.70488623046875,8.106766700744629,0.395043283700943,-3.1747114658355713
1733404713545896000,7.71489599609375,8.975862503051758,0.11252748221158981,-3.2968156337738037
1733404713555875000,7.724875,9.710882186889648,-0.13168109953403473,-3.380612850189209
1733404713565885000,7.734885009765625,10.20887565612793,-0.19871874153614044,-3.4380736351013184
1733404713575894800,7.744894775390625,10.414777755737305,-0.35434186458587646,-3.5434184074401855
1733404713585874000,7.7548740234375,10.319009780883789,-0.5315127968788147,-3.4811692237854004
1733404713595883800,7.7648837890625,10.129867553710938,-0.6248866319656372,-3.2632968425750732
1733404713605893600,7.7748935546875,9.86650562286377,-0.6105214357376099,-3.1747114658355713
1733404713615872800,7.784872802734375,9.583989143371582,-0.6320692300796509,-3.0885202884674072
1733404713625882600,7.794882568359375,9.660603523254395,-0.6153098344802856,-3.0358476638793945
1733404713635892200,7.804892333984375,10.017339706420898,-0.6991068720817566,-2.9664158821105957
1733404713645871600,7.81487158203125,10.462661743164062,-0.7230489253997803,-2.892195701599121
1733404713655881200,7.824881103515625,11.03248119354248,-0.6871358752250671,-2.7724854946136475
1733404713665891000,7.83489111328125,11.446678161621094,-0.6344634294509888,-2.7054479122161865
1733404713675870200,7.8448701171875,11.487380027770996,-0.5841852426528931,-2.6408045291900635
1733404713685880000,7.854880126953125,11.255142211914062,-0.507570743560791,-2.4588451385498047
1733404713695890000,7.864889892578125,10.718840599060059,-0.507570743560791,-2.3247697353363037
1733404713705869000,7.874869140625,9.952696800231934,-0.5554547905921936,-2.0829553604125977
1733404713715879000,7.88487890625,9.387664794921875,-0.5578489899635315,-1.9273324012756348
1733404713725888800,7.894888671875,8.96389102935791,-0.5267243981361389,-1.7525556087493896
1733404713735898400,7.9048984375,8.671798706054688,-0.5650315880775452,-1.6208745241165161
1733404713745877800,7.914877685546875,8.544905662536621,-0.524330198764801,-1.5155296325683594
1733404713755887400,7.924887451171875,8.547300338745117,-0.5099649429321289,-1.501164436340332
1733404713765897200,7.934897216796875,8.621520042419434,-0.5793967843055725,-1.50355863571167
1733404713775876400,7.94487646484375,8.87291145324707,-0.6320692300796509,-1.4700398445129395
1733404713785886200,7.95488623046875,9.124302864074707,-0.5985504388809204,-1.4844050407409668
1733404713795896000,7.96489599609375,9.445125579833984,-0.5961562395095825,-1.4915876388549805
1733404713805875200,7.974875244140625,9.8784761428833,-0.5722141861915588,-1.3263877630233765
1733404713815885000,7.984885009765625,10.357316970825195,-0.6200982332229614,-1.2689268589019775
1733404713825895000,7.99489501953125,10.84094524383545,-0.5770025849342346,-1.2641384601593018
1733404713835874000,8.0048740234375,11.245565414428711,-0.5099649429321289,-1.3048399686813354
1733404713845884000,8.0148837890625,11.434707641601562,-0.5123591423034668,-1.2880805730819702
1733404713855893500,8.0248935546875,11.39400577545166,-0.5171475410461426,-1.1683704853057861
1733404713865872600,8.03487255859375,11.26950740814209,-0.5722141861915588,-0.9864110946655273
1733404713875882500,8.044882568359375,11.092336654663086,-0.6129156351089478,-0.7445967197418213
1733404713885892400,8.054892333984375,10.83855152130127,-0.6009446382522583,-0.5099649429321289
1733404713895871500,8.06487158203125,10.565611839294434,-0.5554547905921936,-0.17956513166427612
1733404713905881300,8.07488134765625,10.393229484558105,-0.40222588181495667,0.17477671802043915
1733404713915891200,8.08489111328125,10.177751541137695,-0.3902548849582672,0.33758243918418884
1733404713925870300,8.094870361328125,9.916783332824707,-0.31124621629714966,0.4596867263317108
1733404713935880200,8.104880126953125,9.694122314453125,-0.2513911724090576,0.5913678407669067
1733404713945889800,8.114889892578125,9.476250648498535,-0.395043283700943,0.8451532125473022
1733404713955869000,8.124868896484376,9.445125579833984,-0.5291185975074768,1.0965443849563599
1733404713965878800,8.134878662109376,9.792284965515137,-0.6488286852836609,1.4077905416488647
1733404713975888600,8.144888671875,10.285490036010742,-0.7852981686592102,1.6160861253738403
1733404713985898500,8.1548984375,10.857705116271973,-0.8643068075180054,1.7764976024627686
1733404713995877600,8.164877685546875,11.255142211914062,-0.9145850539207458,2.006340980529785
1733404714005887500,8.174887451171875,11.501745223999023,-0.8164227604866028,2.185906171798706
1733404714015897300,8.1848974609375,11.528080940246582,-0.5841852426528931,2.4684219360351562
1733404714025876500,8.19487646484375,11.245565414428711,-0.35434186458587646,2.5330653190612793
1733404714035886000,8.204885986328126,10.682928085327148,0.009576806798577309,2.454056739807129
1733404714045896000,8.21489599609375,9.938331604003906,0.24660277366638184,2.387019157409668
1733404714055875000,8.224875,9.193734169006348,0.5099649429321289,2.2457611560821533
1733404714065885000,8.234885009765625,8.525752067565918,0.7206547260284424,2.1571757793426514
1733404714075894800,8.244894775390625,7.7763671875,0.9145850539207458,2.2146365642547607
1733404714085874000,8.2548740234375,7.206547260284424,0.9696516990661621,2.248155355453491
1733404714095883800,8.2648837890625,6.789956092834473,0.8786720037460327,2.2577321529388428
1733404714105893600,8.2748935546875,6.687005519866943,0.7589619159698486,2.3965959548950195
1733404714115872800,8.284872802734375,7.0557122230529785,0.5961562395095825,2.494758129119873
1733404714125882400,8.29488232421875,7.833827972412109,0.31842881441116333,2.4851813316345215
1733404714135892200,8.304892333984375,8.678980827331543,0.23942017555236816,2.250549554824829
1733404714145871600,8.31487158203125,9.452308654785156,0.181959331035614,2.027888774871826
1733404714155881200,8.324881103515626,10.050858497619629,0.17956513166427612,1.7501614093780518
1733404714165891000,8.33489111328125,10.345345497131348,0.31364041566848755,1.5203180313110352
1733404714175870200,8.3448701171875,10.086771965026855,0.3208230137825012,1.50355863571167
1733404714185880000,8.354880126953125,9.418789863586426,0.29209262132644653,1.534683346748352
1733404714195890000,8.364889892578125,8.83699893951416,0.3734954595565796,1.6089035272598267
1733404714205869000,8.374869140625,8.44195556640625,0.4812345504760742,1.9776105880737305
1733404714215879000,8.38487890625,8.564059257507324,0.6847416758537292,2.2194249629974365
1733404714225888800,8.394888671875,8.911218643188477,0.9409212470054626,2.2816741466522217
1733404714235898400,8.4048984375,9.344569206237793,1.173158884048462,2.1140801906585693
1733404714245877800,8.414877685546875,9.730035781860352,1.4460978507995605,1.941697597503662
1733404714255887400,8.424887451171875,10.271124839782715,1.8076223134994507,1.745373010635376
1733404714265897200,8.434897216796875,10.63504409790039,2.1068975925445557,1.3934253454208374
1733404714275876400,8.44487646484375,10.649409294128418,2.38462495803833,0.9624691009521484
1733404714285886200,8.45488623046875,10.584765434265137,2.1763293743133545,1.292868971824646
1733404714295896000,8.46489599609375,10.556035041809082,2.0877439975738525,1.50355863571167
1733404714305875200,8.474875244140625,10.678139686584473,1.941697597503662,1.6112977266311646
1733404714315885000,8.484885009765625,10.910377502441406,1.8411411046981812,1.5418659448623657
1733404714325895000,8.49489501953125,11.166556358337402,1.6903064250946045,1.6112977266311646
1733404714335874000,8.5048740234375,11.475408554077148,1.6304513216018677,1.5442601442337036
1733404714345883600,8.514883544921876,11.683704376220703,1.6089035272598267,1.3862427473068237
1733404714355893500,8.5248935546875,11.865663528442383,1.6855180263519287,1.2306196689605713
1733404714365872600,8.53487255859375,11.793837547302246,1.7980455160140991,0.8427590131759644
1733404714375882500,8.544882568359375,11.370063781738281,2.070984363555908,0.4644751250743866
1733404714385892400,8.554892333984375,10.685321807861328,2.2888567447662354,0.3495534360408783
1733404714395871500,8.56487158203125,9.856928825378418,2.4205379486083984,0.3280056416988373
1733404714405881300,8.57488134765625,9.083600997924805,2.542642116546631,0.1604115068912506
1733404714415891200,8.58489111328125,8.44434928894043,2.537853717803955,0.06224924325942993
1733404714425870300,8.594870361328125,8.01339340209961,2.451662540435791,-0.09816227108240128
1733404714435880200,8.604880126953125,7.989450931549072,2.293645143508911,-0.15322890877723694
1733404714445889800,8.614889892578125,8.317456245422363,2.0805611610412598,-0.11252748221158981
1733404714455869000,8.624868896484376,9.028534889221191,1.8291701078414917,-0.1412578970193863
1733404714465878800,8.634878662109376,9.710882186889648,1.5753847360610962,-0.011971008032560349
1733404714475888600,8.644888671875,10.517727851867676,1.623268723487854,0.06464344263076782
1733404714485898500,8.6548984375,10.979808807373047,1.723825216293335,-0.043095629662275314
1733404714495877600,8.664877685546875,11.070788383483887,1.8339585065841675,-0.17477671802043915
1733404714505887500,8.674887451171875,10.848128318786621,1.9512743949890137,-0.16519992053508759
1733404714515897300,8.6848974609375,10.244789123535156,1.987187385559082,-0.08858546614646912
1733404714525876500,8.69487646484375,9.564835548400879,2.0183119773864746,-0.08140286058187485
1733404714535886300,8.70488623046875,9.066842079162598,2.1595699787139893,-0.15801730751991272
1733404714545896000,8.71489599609375,8.882488250732422,2.4444799423217773,-0.42377370595932007
1733404714555875000,8.724875,8.942343711853027,2.736572504043579,-0.646434485912323
1733404714565885000,8.734885009765625,9.009381294250488,2.935291290283203,-0.9983820915222168
1733404714575894800,8.744894775390625,8.904036521911621,2.87064790725708,-0.9911994934082031
1733404714585874000,8.7548740234375,8.81784439086914,2.715024709701538,-0.7757213711738586
1733404714595883800,8.7648837890625,8.875306129455566,2.5522189140319824,-0.6200982332229614
1733404714605893600,8.7748935546875,9.165003776550293,2.3080103397369385,-0.42377370595932007
1733404714615872800,8.784872802734375,9.488221168518066,1.9823989868164062,-0.09816227108240128
1733404714625882600,8.794882568359375,9.849745750427246,1.7597382068634033,0.2992752194404602
1733404714635892200,8.804892333984375,10.160991668701172,1.764526605606079,0.40462008118629456
1733404714645871600,8.81487158203125,10.29746150970459,1.8195933103561401,0.38307225704193115
1733404714655881200,8.824881103515626,10.072406768798828,1.9057846069335938,0.4405331015586853
1733404714665891000,8.83489111328125,9.6989107131958,2.006340980529785,0.4668693244457245
1733404714675870200,8.8448701171875,9.191340446472168,2.1140801906585693,0.33279404044151306
1733404714685880000,8.854880126953125,8.779537200927734,2.2242133617401123,0.23942017555236816
1733404714695890000,8.864889892578125,8.4108304977417,2.3104045391082764,0.20111294090747833
1733404714705869000,8.874869140625,8.094796180725098,2.367865562438965,0.18914192914962769
1733404714715879000,8.88487890625,7.795520782470703,2.3918075561523438,0.22744916379451752
1733404714725888800,8.894888671875,7.663839817047119,2.535459518432617,0.2346317619085312
1733404714735898400,8.9048984375,7.501033782958984,2.6216509342193604,0.2059013396501541
1733404714745877800,8.914877685546875,7.527369976043701,2.80361008644104,0.06703764945268631
1733404714755887400,8.924887451171875,7.752425193786621,2.9688100814819336,-0.09816227108240128
1733404714765897200,8.934897216796875,8.018181800842285,2.9951462745666504,-0.11013327538967133
1733404714775876400,8.94487646484375,8.379706382751465,2.9472622871398926,-0.05746084079146385
1733404714785886200,8.95488623046875,8.774748802185059,2.9472622871398926,-0.2513911724090576
1733404714795896000,8.96489599609375,9.205705642700195,3.004723072052002,-0.5219359993934631
1733404714805875200,8.974875244140625,9.493009567260742,3.0597896575927734,-0.6847416758537292
1733404714815885000,8.984885009765625,9.763554573059082,3.1316158771514893,-0.7733271718025208
1733404714825895000,8.99489501953125,10.022128105163574,3.2345664501190186,-0.8834604024887085
1733404714835874000,9.0048740234375,10.33098030090332,3.354276657104492,-0.9983820915222168
1733404714845884000,9.0148837890625,10.654197692871094,3.450044631958008,-1.0869675874710083
1733404714855893500,9.0248935546875,10.891223907470703,3.5051112174987793,-1.259350061416626
1733404714865872600,9.03487255859375,11.05642318725586,3.4835634231567383,-1.41257905960083
1733404714875882500,9.044882568359375,11.228805541992188,3.5003228187561035,-1.5418659448623657
1733404714885892400,9.054892333984375,11.264719009399414,3.4548330307006836,-1.6208745241165161
1733404714895871500,9.06487158203125,11.279084205627441,3.3710360527038574,-1.680729627609253
1733404714905881300,9.07488134765625,11.307814598083496,3.272873640060425,-1.702277421951294
1733404714915891200,9.08489111328125,11.446678161621094,3.2824504375457764,-1.7717092037200928
1733404714925870300,9.094870361328125,11.563994407653809,3.337517261505127,-1.5945383310317993
1733404714935880200,9.104880126953125,11.640608787536621,3.426102638244629,-1.482010841369629
1733404714945889800,9.114889892578125,11.597513198852539,3.3518824577331543,-1.400607943534851
1733404714955869000,9.124868896484376,11.5065336227417,3.1747114658355713,-1.2521674633026123
1733404714965878800,9.134878662109376,11.446678161621094,3.0550012588500977,-1.113303780555725
1733404714975888600,9.144888671875,11.528080940246582,3.0621838569641113,-1.237802267074585
1733404714985898500,9.1548984375,11.554417610168457,2.985569477081299,-1.4700398445129395
1733404714995877600,9.164877685546875,11.508927345275879,2.8634653091430664,-1.6424223184585571
1733404715005887500,9.174887451171875,11.403582572937012,2.5929205417633057,-1.5682021379470825
1733404715015897300,9.1848974609375,11.279084205627441,2.296039342880249,-1.4508862495422363
1733404715025876500,9.19487646484375,11.346121788024902,1.9608511924743652,-1.3215993642807007
1733404715035886000,9.204885986328126,11.446678161621094,1.53707754611969,-1.3048399686813354
1733404715045896000,9.21489599609375,11.73398208618164,0.8810662031173706,-1.0869675874710083
1733404715055875000,9.224875,12.105083465576172,0.42377370595932007,-1.039083480834961
1733404715065885000,9.234885009765625,12.610260009765625,0.12928688526153564,-0.9816226959228516
1733404715075894800,9.244894775390625,12.995726585388184,-0.0454898327589035,-0.7924807667732239
1733404715085874000,9.2548740234375,13.12501335144043,-0.12928688526153564,-0.6823474764823914
1733404715095883800,9.2648837890625,12.756306648254395,-0.13168109953403473,-0.4884171485900879
1733404715105893600,9.2748935546875,12.045228958129883,-0.07422025501728058,-0.1388636976480484
1733404715115872800,9.284872802734375,11.109095573425293,0.1412578970193863,0.3447650372982025
1733404715125882400,9.29488232421875,10.319009780883789,0.31842881441116333,0.6584054827690125
1733404715135892200,9.304892333984375,9.41400146484375,0.5506663918495178,1.0869675874710083
1733404715145871600,9.31487158203125,8.480262756347656,0.7445967197418213,1.3838485479354858
1733404715155881200,9.324881103515626,7.3023152351379395,0.8068459630012512,1.7142484188079834
1733404715165891000,9.33489111328125,6.3973069190979,0.8427590131759644,1.9752163887023926
1733404715175870200,9.3448701171875,5.6455278396606445,0.9050082564353943,2.207453966140747
1733404715185880000,9.354880126953125,5.236119270324707,1.01753568649292,2.2649147510528564
1733404715195890000,9.364889892578125,4.891354084014893,1.1683704853057861,2.1811177730560303
1733404715205869000,9.374869140625,4.596867084503174,1.1755530834197998,1.8818424940109253
1733404715215879000,9.38487890625,4.618414878845215,1.192312479019165,1.5418659448623657
1733404715225888800,9.394888671875,5.145139217376709,1.2665326595306396,1.3000515699386597
1733404715235898400,9.4048984375,5.896918773651123,1.292868971824646,0.9576807022094727
1733404715245877800,9.414877685546875,6.866570472717285,1.259350061416626,0.7134721279144287
1733404715255887400,9.424887451171875,7.711723804473877,1.158793568611145,0.5410895943641663
1733404715265897200,9.434897216796875,8.597578048706055,1.0989385843276978,0.33758243918418884
1733404715275876400,9.44487646484375,9.387664794921875,1.216254472732544,0.10055647045373917
1733404715285886200,9.45488623046875,10.005369186401367,1.2617442607879639,-0.20350714027881622
1733404715295896000,9.46489599609375,10.453084945678711,1.3048399686813354,-0.24181437492370605
1733404715305875200,9.474875244140625,10.845733642578125,1.4101848602294922,-0.23702596127986908
1733404715315885000,9.484885009765625,10.951078414916992,1.5322890281677246,-0.22505496442317963
1733404715325895000,9.49489501953125,10.74996566772461,1.5753847360610962,-0.20111294090747833
1733404715335874000,9.5048740234375,10.414777755737305,1.7908629179000854,-0.13168109953403473
1733404715345883600,9.514883544921876,10.022128105163574,2.054224967956543,-0.10295066982507706
1733404715355893500,9.5248935546875,9.512163162231445,2.209848165512085,-0.028730420395731926
1733404715365872600,9.53487255859375,9.023746490478516,2.233790159225464,0.1628057211637497
1733404715375882500,9.544882568359375,8.69095230102539,2.255337953567505,0.3064578175544739
1733404715385892400,9.554892333984375,8.504204750061035,2.3080103397369385,0.3902548849582672
1733404715395871500,9.56487158203125,8.370129585266113,2.293645143508911,0.3998316824436188
1733404715405881300,9.57488134765625,8.29830265045166,2.3080103397369385,0.42377370595932007
1733404715415891200,9.58489111328125,8.245630264282227,2.4684219360351562,0.2992752194404602
1733404715425870300,9.594870361328125,8.130708694458008,2.5546131134033203,0.0933738648891449
1733404715435880200,9.604880126953125,7.936778545379639,2.5737667083740234,-0.05985504388809204
1733404715445889800,9.614889892578125,7.666234016418457,2.585737943649292,-0.11971008777618408
1733404715455869000,9.624868896484376,7.5201873779296875,2.5258827209472656,-0.08858546614646912
1733404715465878800,9.634878662109376,7.618350028991699,2.4133553504943848,-0.043095629662275314
1733404715475888600,9.644888671875,7.893682956695557,2.31758713722229,-0.13168109953403473
1733404715485898500,9.6548984375,8.312667846679688,2.22660756111145,-0.23942017555236816
1733404715495877600,9.664877685546875,8.753201484680176,2.190694570541382,-0.37828385829925537
1733404715505887500,9.674887451171875,9.406818389892578,2.2433669567108154,-0.45010992884635925
1733404715515897300,9.6848974609375,10.012551307678223,2.300827741622925,-0.5506663918495178
1733404715525876500,9.69487646484375,10.795455932617188,2.4157495498657227,-0.7206547260284424
1733404715535886300,9.70488623046875,11.571176528930664,2.518700122833252,-0.8906430602073669
1733404715545896000,9.71489599609375,12.071564674377441,2.5450363159179688,-0.9816226959228516
1733404715555875000,9.724875,12.380416870117188,2.7078421115875244,-0.8475474119186401
1733404715565885000,9.734885009765625,12.112266540527344,2.8155810832977295,-0.5219359993934631
1733404715575894800,9.744894775390625,11.322179794311523,2.7246015071868896,-0.20350714027881622
1733404715585874000,9.7548740234375,10.615890502929688,2.6431987285614014,0.021547814831137657
1733404715595883800,9.7648837890625,9.911994934082031,2.7222073078155518,0.5722141861915588
1733404715605893600,9.7748935546875,9.48343276977539,2.80361008644104,0.8236053586006165
1733404715615872800,9.784872802734375,9.497797966003418,2.8993782997131348,0.7613561153411865
1733404715625882600,9.794882568359375,10.022128105163574,3.220201253890991,0.29209262132644653
1733404715635892200,9.804892333984375,10.606313705444336,3.4141316413879395,0.011971008032560349
1733404715645871600,9.81487158203125,10.903194427490234,3.450044631958008,-0.33518823981285095
1733404715655881200,9.824881103515626,11.082759857177734,3.507505416870117,-0.5770025849342346
1733404715665891000,9.83489111328125,11.15697956085205,3.5051112174987793,-0.790086567401886
1733404715675870200,9.8448701171875,11.171344757080078,3.469198226928711,-0.993593692779541
1733404715685880000,9.854880126953125,11.12346076965332,3.4572272300720215,-1.1516109704971313
1733404715695890000,9.864889892578125,11.061211585998535,3.3039982318878174,-1.1085153818130493
1733404715705869000,9.874869140625,10.936713218688965,2.9305028915405273,-0.9145850539207458
1733404715715879000,9.88487890625,11.14500904083252,2.1811177730560303,-0.7326257228851318
1733404715725888800,9.894888671875,11.872846603393555,1.278503656387329,-0.5147533416748047
1733404715735898400,9.9048984375,12.768278121948242,0.31842881441116333,-0.35434186458587646
1733404715745877800,9.914877685546875,14.27662467956543,-0.7781155705451965,-0.2106897532939911
1733404715755887400,9.924887451171875,16.16804313659668,-1.5107412338256836,-0.31124621629714966
1733404715765897200,9.934897216796875,17.266983032226562,-1.6855180263519287,-0.6129156351089478
1733404715775876400,9.94487646484375,17.221492767333984,-1.3862427473068237,-0.9720458984375
1733404715785886200,9.95488623046875,15.674838066101074,-1.0295066833496094,-1.0869675874710083
1733404715795896000,9.96489599609375,12.768278121948242,-0.4429273009300232,-1.482010841369629
1733404715805875200,9.974875244140625,9.679757118225098,0.08858546614646912,-1.7357962131500244
1733404715815885000,9.984885009765625,6.461950302124023,0.7422025203704834,-1.9752163887023926
1733404715825895000,9.99489501953125,4.082113742828369,1.2114660739898682,-2.0398597717285156
1733404715835874000,10.0048740234375,2.0805611610412598,1.4484920501708984,-1.8602946996688843
1733404715845884000,10.0148837890625,1.1180921792984009,1.5275006294250488,-1.721431016921997
1733404715856013600,10.025013671875,1.400607943534851,1.534683346748352,-1.4101848602294922
1733404715865872600,10.03487255859375,2.58813214302063,1.3455413579940796,-0.8164227604866028
1733404715875882500,10.044882568359375,4.496310710906982,1.0055646896362305,-0.45489832758903503
1733404715885892400,10.054892333984375,6.751648902893066,0.6823474764823914,-0.12449848651885986
1733404715895871500,10.06487158203125,8.35336971282959,0.44532153010368347,0.028730420395731926
1733404715905881300,10.07488134765625,9.75637149810791,0.3758896589279175,0.12449848651885986
1733404715915891200,10.08489111328125,10.38844108581543,0.38067805767059326,0.05267243832349777
1733404715925870300,10.094870361328125,10.627861022949219,0.4405331015586853,-0.05027823522686958
1733404715935880200,10.104880126953125,10.556035041809082,0.5722141861915588,-0.07422025501728058
1733404715945889800,10.114889892578125,10.417171478271484,0.7661445140838623,-0.002394201699644327
1733404715955869000,10.124868896484376,10.165780067443848,1.0630255937576294,-0.011971008032560349
1733404715965878800,10.134878662109376,9.861717224121094,1.4748282432556152,-0.1173158809542656
1733404715975888600,10.144888671875,9.294290542602539,1.764526605606079,-0.2082955539226532
1733404715985898500,10.1548984375,8.769960403442383,2.0207061767578125,-0.1388636976480484
1733404715995877600,10.164877685546875,8.142680168151855,2.207453966140747,-0.038307227194309235
1733404716005887500,10.174887451171875,7.627926826477051,2.3319525718688965,-0.05027823522686958
1733404716015897300,10.1848974609375,7.094019412994385,2.454056739807129,-0.026336219161748886
1733404716025876500,10.19487646484375,7.0317702293396,2.3965959548950195,0.011971008032560349
1733404716035886000,10.204885986328126,7.1921820640563965,2.425326347351074,-0.023942016065120697
1733404716045896000,10.21489599609375,7.580042362213135,2.4229321479797363,-0.031124621629714966
1733404716055875000,10.224875,8.149862289428711,2.3774423599243164,-0.038307227194309235
1733404716065885000,10.234885009765625,8.616731643676758,2.3535003662109375,-0.002394201699644327
1733404716075894800,10.244894775390625,9.028534889221191,2.3965959548950195,-0.021547814831137657
1733404716085874000,10.2548740234375,9.196128845214844,2.4875755310058594,-0.06703764945268631
1733404716095883800,10.2648837890625,9.215282440185547,2.63362193107605,-0.20111294090747833
1733404716105893600,10.2748935546875,9.114726066589355,2.7317841053009033,-0.3711012601852417
1733404716115872800,10.284872802734375,9.097966194152832,2.80361008644104,-0.4141969084739685
1733404716125882400,10.29488232421875,9.229647636413574,2.87064790725708,-0.38546648621559143
1733404716135892200,10.304892333984375,9.464279174804688,2.8131868839263916,-0.2944868206977844
1733404716145871600,10.31487158203125,9.832986831665039,2.8227639198303223,-0.1867477297782898
1733404716155881200,10.324881103515626,10.134655952453613,2.7676970958709717,-0.12210428714752197
1733404716165891000,10.33489111328125,10.359710693359375,2.6647465229034424,-0.05027823522686958
1733404716175870200,10.3448701171875,10.424354553222656,2.6240451335906982,0.0454898327589035
1733404716185880000,10.354880126953125,10.467450141906738,2.7078421115875244,-0.019153613597154617
1733404716195890000,10.364889892578125,10.541669845581055,2.82515811920166,-0.1388636976480484
1733404716205869000,10.374869140625,10.577583312988281,2.8874073028564453,-0.08619125932455063
1733404716215879000,10.38487890625,10.706870079040527,2.9017724990844727,-0.06703764945268631
1733404716225888800,10.394888671875,10.900800704956055,2.8131868839263916,-0.12928688526153564
1733404716235898400,10.4048984375,11.240777015686035,2.7485435009002686,-0.18914192914962769
1733404716245877800,10.414877685546875,11.444284439086914,2.7892448902130127,-0.2106897532939911
1733404716255887400,10.424887451171875,11.528080940246582,2.782062292098999,0.05027823522686958
1733404716265897200,10.434897216796875,11.616666793823242,2.7557260990142822,0.40222588181495667
1733404716275876400,10.44487646484375,11.889605522155762,2.5450363159179688,0.9648633003234863
1733404716285886200,10.45488623046875,12.382811546325684,2.5043349266052246,1.2042834758758545
1733404716295896000,10.46489599609375,12.921506881713867,2.607285737991333,1.2090718746185303
1733404716305875200,10.474875244140625,13.46259593963623,2.8850131034851074,1.1875240802764893
1733404716315885000,10.484885009765625,13.445837020874023,3.047818660736084,1.0319008827209473
1733404716325895000,10.49489501953125,12.878411293029785,2.853888511657715,0.7996633648872375
1733404716335874000,10.5048740234375,12.162544250488281,2.279279947280884,0.5434837937355042
1733404716345883600,10.514883544921876,11.659762382507324,1.2066776752471924,0.47644615173339844
1733404716355893500,10.5248935546875,11.820174217224121,0.27054479718208313,0.0694318488240242
1733404716365872600,10.53487255859375,12.789825439453125,-0.3902548849582672,-0.21547815203666687
1733404716375882500,10.544882568359375,13.39316463470459,-0.7445967197418213,-0.4429273009300232
1733404716385892400,10.554892333984375,13.352462768554688,-0.8690952062606812,-0.363918662071228
1733404716395871500,10.56487158203125,12.42111873626709,-0.8858546018600464,-0.1843535304069519
1733404716405881300,10.57488134765625,10.620678901672363,-0.7589619159698486,0.5937620401382446
1733404716415891200,10.58489111328125,8.38688850402832,-0.6320692300796509,1.0654197931289673
1733404716425870300,10.594870361328125,6.610390663146973,-0.2322375625371933,1.161187767982483
1733404716435880200,10.604880126953125,5.056553840637207,0.2585737705230713,1.1109095811843872
1733404716445889800,10.614889892578125,4.225766181945801,0.6991068720817566,1.0749965906143188
1733404716455869000,10.624868896484376,3.7469255924224854,1.137245774269104,0.9624691009521484
1733404716465878800,10.634878662109376,3.6583402156829834,1.4317326545715332,0.7805097699165344
1733404716475888600,10.644888671875,3.936067581176758,1.623268723487854,0.5554547905921936
1733404716485898500,10.6548984375,4.793191909790039,1.577778935432434,0.4213795065879822
1733404716495877600,10.664877685546875,6.011840343475342,1.3120225667953491,0.29209262132644653
1733404716505887500,10.674887451171875,7.465120792388916,1.1324573755264282,0.090979665517807
1733404716515897300,10.6848974609375,9.2033109664917,1.0247182846069336,0.05267243832349777
1733404716525876500,10.69487646484375,10.503362655639648,0.9528923034667969,-0.13168109953403473
1733404716535886300,10.70488623046875,11.173739433288574,0.9552865028381348,-0.40222588181495667
1733404716545896000,10.71489599609375,11.528080940246582,1.0582371950149536,-0.6177040338516235
1733404716555875000,10.724875,11.611878395080566,1.1755530834197998,-0.7134721279144287
1733404716565885000,10.734885009765625,11.384428977966309,1.3910311460494995,-0.7565677165985107
1733404716575894800,10.744894775390625,10.721235275268555,1.5969325304031372,-0.7972691655158997
1733404716585874000,10.7548740234375,9.782708168029785,1.8555063009262085,-0.5722141861915588
1733404716595883800,10.7648837890625,9.071630477905273,2.1164743900299072,-0.3663128614425659
1733404716605893600,10.7748935546875,8.480262756347656,2.2146365642547607,-0.2801215946674347
1733404716615872800,10.784872802734375,8.180987358093262,2.212242364883423,-0.17477671802043915
1733404716625882600,10.794882568359375,8.101978302001953,2.212242364883423,0.009576806798577309
1733404716635892200,10.804892333984375,8.212111473083496,2.1356279850006104,0.13407529890537262
1733404716645871600,10.81487158203125,8.379706382751465,2.0590133666992188,0.2059013396501541
1733404716655881200,10.824881103515626,8.401253700256348,1.9800047874450684,0.3423708379268646
1733404716665891000,10.83489111328125,8.197746276855469,1.920149803161621,0.4381389021873474
1733404716675870200,10.8448701171875,7.929595947265625,1.944091796875,0.5985504388809204
1733404716685880000,10.854880126953125,7.726089000701904,2.0183119773864746,0.7565677165985107
1733404716695890000,10.864889892578125,7.469909191131592,2.126051187515259,0.8762778043746948
1733404716705869000,10.874869140625,7.3885064125061035,2.140416383743286,1.0295066833496094
1733404716715879000,10.88487890625,7.5632829666137695,2.276885747909546,1.0558429956436157
1733404716725888800,10.894888671875,7.879317760467529,2.43011474609375,0.9097966551780701
1733404716735898600,10.904898681640624,8.317456245422363,2.499546527862549,0.7805097699165344
1733404716745877800,10.914877685546875,8.652645111083984,2.4899697303771973,0.545877993106842
1733404716755887400,10.924887451171875,9.368511199951172,2.542642116546631,0.3758896589279175
1733404716765897200,10.934897216796875,9.86650562286377,2.4133553504943848,0.19393034279346466
1733404716775876400,10.94487646484375,10.278307914733887,2.473210334777832,0.1173158809542656
1733404716785886200,10.95488623046875,10.460267066955566,2.5761611461639404,-0.0454898327589035
1733404716795896000,10.96489599609375,10.493785858154297,2.631227731704712,-0.13407529890537262
1733404716805875200,10.974875244140625,10.522516250610352,2.631227731704712,-0.016759412363171577
1733404716815463700,10.984463623046874,10.560823440551758,2.628833532333374,0.19153612852096558
1733404716825473300,10.994473388671874,10.556035041809082,2.6216509342193604,0.304063618183136
1733404716835452400,11.004452392578125,10.608707427978516,2.5019407272338867,0.5674257874488831
1733404716845462300,11.014462158203125,10.99896240234375,2.3558945655822754,0.7781155705451965
1733404716855472000,11.02447216796875,11.678915977478027,2.255337953567505,0.7996633648872375
1733404716865451300,11.034451171875,12.320562362670898,2.4827871322631836,0.6919242739677429
1733404716875461000,11.044461181640624,12.87362289428711,2.8179752826690674,0.45250412821769714
1733404716885471000,11.054470947265624,12.842497825622559,3.1052796840667725,-0.10773907601833344
1733404716895450000,11.0644501953125,12.449849128723145,3.4189200401306152,-0.49799394607543945
1733404716905460000,11.0744599609375,12.121843338012695,3.6750996112823486,-0.5889736413955688
1733404716915469600,11.084469482421875,12.006921768188477,3.9863457679748535,-0.6129156351089478
1733404716925448700,11.09444873046875,11.87763500213623,4.027047157287598,-0.7422025203704834
1733404716935458600,11.10445849609375,11.87763500213623,3.8498764038085938,-0.706289529800415
1733404716945468400,11.114468505859374,11.954249382019043,3.469198226928711,-0.9720458984375
1733404716955447600,11.124447509765625,12.006921768188477,2.477998733520508,-1.0534487962722778
1733404716965457400,11.13445751953125,12.18648624420166,1.213860273361206,-0.849941611289978
1733404716975467300,11.14446728515625,12.837709426879883,-0.36152446269989014,-0.5770025849342346
1733404716985477000,11.15447705078125,14.046781539916992,-1.45806884765625,-0.24181437492370605
1733404716995456300,11.164456298828124,15.272612571716309,-1.7836803197860718,-0.4357447028160095
1733404717005465900,11.1744658203125,15.713146209716797,-1.7286136150360107,-0.8379706144332886
1733404717015475700,11.184475830078124,14.518439292907715,-1.4460978507995605,-1.0438719987869263
1733404717025454800,11.194454833984375,12.24394702911377,-0.9097966551780701,-1.4437036514282227
1733404717035464700,11.204464599609375,9.677363395690918,-0.3734954595565796,-1.6974890232086182
1733404717045474600,11.214474609375,6.433219909667969,0.24899697303771973,-1.9297266006469727
1733404717055453700,11.22445361328125,3.7469255924224854,0.730231523513794,-1.9177556037902832
1733404717065463600,11.234463623046874,1.3958195447921753,1.2330138683319092,-1.7286136150360107
1733404717075473400,11.244473388671874,0,1.558625340461731,-1.5179238319396973
1733404717085452500,11.25445263671875,-0.4644751250743866,1.6136919260025024,-1.2976573705673218
1733404717095615000,11.264614990234374,0.272938996553421,1.381454348564148,-0.9409212470054626
1733404717105472000,11.274471923828125,2.2433669567108154,1.1563993692398071,-0.6631938815116882
1733404717115451100,11.284451171875,4.941632270812988,0.8930372595787048,-0.47884035110473633
1733404717125461000,11.2944609375,7.60637903213501,0.629675030708313,-0.5746083855628967
1733404717135470800,11.304470947265624,10.230423927307129,0.5123591423034668,-0.6631938815116882
1733404717145450000,11.314449951171875,11.8225679397583,0.4644751250743866,-0.7206547260284424
1733404717155459800,11.3244599609375,12.859257698059082,0.5410895943641663,-0.8236053586006165
1733404717165469700,11.3344697265625,13.0914945602417,0.6871358752250671,-0.7972691655158997
1733404717175448800,11.34444873046875,12.67011547088623,0.9289502501487732,-0.5793967843055725
1733404717185458700,11.354458740234374,11.798625946044922,1.192312479019165,-0.44771572947502136
1733404717195468300,11.36446826171875,10.740388870239258,1.5658079385757446,-0.40222588181495667
1733404717205447700,11.37444775390625,9.892841339111328,1.9177556037902832,-0.2537853717803955
1733404717215457300,11.384457275390625,9.399636268615723,2.2433669567108154,-0.21547815203666687
1733404717225467100,11.394467041015625,9.042900085449219,2.456450939178467,-0.44771572947502136
1733404717235477000,11.40447705078125,8.75080680847168,2.5953147411346436,-0.6416460275650024
1733404717245456100,11.4144560546875,8.504204750061035,2.628833532333374,-0.7398083209991455
1733404717255466000,11.424466064453124,8.382100105285645,2.5713725090026855,-0.7086837291717529
1733404717265475800,11.434475830078124,8.382100105285645,2.4660277366638184,-0.6129156351089478
1733404717275455000,11.444455078125,8.489839553833008,2.319981336593628,-0.5985504388809204
1733404717285464800,11.45446484375,8.616731643676758,2.2385785579681396,-0.4908113479614258
1733404717295474700,11.464474609375,8.738836288452148,2.205059766769409,-0.4620809257030487
1733404717305453800,11.474453857421874,8.860940933227539,2.185906171798706,-0.40222588181495667
1733404717315463400,11.48446337890625,8.942343711853027,2.188300371170044,-0.40462008118629456
1733404717325473300,11.494473388671874,8.918401718139648,2.3080103397369385,-0.5602431893348694
1733404717335452400,11.504452392578125,8.916007041931152,2.4660277366638184,-0.5770025849342346
1733404717345462300,11.514462158203125,8.892065048217773,2.628833532333374,-0.6177040338516235
1733404717355472100,11.52447216796875,8.796297073364258,2.698265314102173,-0.5889736413955688
1733404717365451300,11.534451171875,8.702922821044922,2.7557260990142822,-0.5482721924781799
1733404717375461000,11.544461181640624,8.710105895996094,2.7916390895843506,-0.44532153010368347
1733404717385471000,11.554470947265624,8.911218643188477,2.8826189041137695,-0.48602294921875
1733404717395450000,11.5644501953125,9.191340446472168,2.9065608978271484,-0.5099649429321289
1733404717405460000,11.5744599609375,9.57441234588623,2.8850131034851074,-0.5410895943641663
1733404717415469600,11.584469482421875,10.096348762512207,2.806004285812378,-0.5027823448181152
1733404717425448700,11.59444873046875,10.467450141906738,2.652775526046753,-0.3687070608139038
1733404717435458600,11.60445849609375,10.81460952758789,2.449268341064453,-0.304063618183136
1733404717445468400,11.614468505859374,11.305420875549316,2.33913516998291,-0.22026655077934265
1733404717455447600,11.624447509765625,11.753135681152344,2.3774423599243164,-0.08619125932455063
1733404717465457400,11.63445751953125,12.15057373046875,2.2433669567108154,0.17717093229293823
1733404717475467300,11.64446728515625,12.409147262573242,2.011129379272461,0.7015010714530945
1733404717485477000,11.65447705078125,12.746729850769043,1.8387469053268433,0.9888052940368652
1733404717495456300,11.664456298828124,13.26866626739502,2.1571757793426514,1.2114660739898682
1733404717505465900,11.6744658203125,13.596671104431152,2.5067291259765625,1.335964560508728
1733404717515475700,11.684475830078124,13.651738166809082,2.7246015071868896,1.1827356815338135
1733404717525454800,11.694454833984375,13.235146522521973,2.762908697128296,1.048660397529602
1733404717535464700,11.704464599609375,12.497733116149902,2.3582887649536133,0.7852981686592102
1733404717545474600,11.714474609375,12.018892288208008,1.4867992401123047,0.4357447028160095
1733404717555453700,11.72445361328125,12.234370231628418,0.2825157940387726,0.17238251864910126
1733404717565463600,11.734463623046874,13.287819862365723,-0.6177040338516235,0.038307227194309235
1733404717575473400,11.744473388671874,14.772224426269531,-1.1492167711257935,-0.15083470940589905
1733404717585452500,11.75445263671875,15.437812805175781,-1.237802267074585,-0.21787235140800476
1733404717595462400,11.76446240234375,14.820108413696289,-1.194706678390503,-0.040701430290937424
1733404717605472000,11.774471923828125,13.232752799987793,-1.0654197931289673,0.4189853072166443
1733404717615451100,11.784451171875,10.618284225463867,-0.811634361743927,0.8427590131759644
1733404717625461000,11.7944609375,7.8529815673828125,-0.4572925269603729,0.9744400978088379
1733404717635470800,11.804470947265624,4.941632270812988,0.05506663769483566,0.8236053586006165
1733404717645450000,11.814449951171875,2.8993782997131348,0.7589619159698486,0.6967126727104187
1733404717655459800,11.8244599609375,1.8698714971542358,1.1779472827911377,0.5267243981361389
1733404717665469700,11.8344697265625,1.6065093278884888,1.4293384552001953,0.3280056416988373
1733404717675448800,11.84444873046875,2.363077163696289,1.4628572463989258,0.2513911724090576
1733404717685458700,11.854458740234374,4.268861770629883,1.2449848651885986,0.0454898327589035
1733404717695468300,11.86446826171875,6.088454723358154,0.8331822156906128,-0.026336219161748886
1733404717705447700,11.87444775390625,8.221688270568848,0.5961562395095825,-0.2059013396501541
1733404717715457500,11.88445751953125,9.90241813659668,0.4884171485900879,-0.29209262132644653
1733404717725467100,11.894467041015625,11.137825965881348,0.5291185975074768,-0.363918662071228
1733404717735477000,11.90447705078125,11.619060516357422,0.6775590777397156,-0.5410895943641663
1733404717745456000,11.9144560546875,11.623848915100098,0.8259995579719543,-0.689530074596405
1733404717755466000,11.924466064453124,11.23598861694336,1.0247182846069336,-0.8092401623725891
1733404717765475800,11.934475830078124,10.802638053894043,1.280897855758667,-0.933738648891449
1733404717775455000,11.944455078125,10.199298858642578,1.556231141090393,-0.9385270476341248
1733404717785464800,11.95446484375,9.576807022094727,1.6927006244659424,-0.8164227604866028
1733404717795474700,11.964474609375,9.095572471618652,1.946485996246338,-0.8188169598579407
1733404717805453800,11.974453857421874,8.78193187713623,2.0254945755004883,-0.7445967197418213
1733404717815463700,11.984463623046874,8.427590370178223,2.0254945755004883,-0.4692635238170624
1733404717825473300,11.994473388671874,8.315062522888184,2.03507137298584,-0.38307225704193115
1733404717835452400,12.004452392578125,8.197746276855469,1.9297266006469727,-0.26575639843940735
1733404717845462300,12.014462158203125,8.097189903259277,1.7405846118927002,0.12689268589019775
1733404717855472000,12.02447216796875,7.939172744750977,1.6687586307525635,0.33039984107017517
1733404717865451300,12.034451171875,7.972691535949707,1.680729627609253,0.4357447028160095
1733404717875461000,12.044461181640624,8.109161376953125,1.6903064250946045,0.6272808313369751
1733404717885471000,12.054470947265624,8.2312650680542,1.778891921043396,0.6272808313369751
1733404717895450000,12.0644501953125,8.276755332946777,1.8315643072128296,0.6009446382522583
1733404717905460000,12.0744599609375,8.259995460510254,1.9105730056762695,0.5841852426528931
1733404717915469600,12.084469482421875,8.24084186553955,1.941697597503662,0.6033388376235962
1733404717925448700,12.09444873046875,8.449137687683105,2.027888774871826,0.5530605912208557
1733404717935458600,12.10445849609375,8.767566680908203,2.070984363555908,0.5195417404174805
1733404717945468400,12.114468505859374,9.093177795410156,2.1332337856292725,0.569819986820221
1733404717955447600,12.124447509765625,9.418789863586426,2.2170307636260986,0.5506663918495178
1733404717965457400,12.13445751953125,9.706093788146973,2.3247697353363037,0.4884171485900879
1733404717975467300,12.14446728515625,9.914389610290527,2.4205379486083984,0.5985504388809204
1733404717985477000,12.15447705078125,10.218452453613281,2.6431987285614014,0.44532153010368347
1733404717995456300,12.164456298828124,10.280701637268066,2.8658595085144043,0.40940847992897034
1733404718005465900,12.1744658203125,10.120290756225586,2.9065608978271484,0.524330198764801
1733404718015475700,12.184475830078124,9.785101890563965,3.00711727142334,0.5434837937355042
1733404718025454800,12.194454833984375,9.469067573547363,2.9664158821105957,0.6057330369949341
1733404718035464700,12.204464599609375,9.481039047241211,2.8227639198303223,0.7230489253997803
1733404718045474600,12.214474609375,9.804255485534668,2.5689783096313477,0.8259995579719543
1733404718055453700,12.22445361328125,10.498574256896973,2.319981336593628,0.9050082564353943
1733404718065463600,12.234463623046874,11.274295806884766,2.0853497982025146,0.8236053586006165
1733404718075473400,12.244473388671874,12.0021333694458,2.0877439975738525,0.6416460275650024
1733404718085452500,12.25445263671875,12.325350761413574,2.31758713722229,0.22266076505184174
1733404718095462100,12.264462158203125,12.124237060546875,2.6216509342193604,-0.12928688526153564
1733404718105472000,12.274471923828125,11.626243591308594,3.1196448802948,-0.6105214357376099
1733404718115451100,12.284451171875,11.24795913696289,3.5242648124694824,-0.912190854549408
1733404718125461000,12.2944609375,11.058817863464355,3.6296098232269287,-1.2042834758758545
1733404718135470800,12.304470947265624,11.113883972167969,3.3279404640197754,-1.3263877630233765
1733404718145450000,12.314449951171875,11.829751014709473,3.162740468978882,-1.2042834758758545
1733404718155459800,12.3244599609375,12.361263275146484,2.918531894683838,-0.9433154463768005
1733404718165469700,12.3344697265625,12.866439819335938,2.492363929748535,-0.9026140570640564
1733404718175448800,12.34444873046875,13.33809757232666,2.0614075660705566,-0.6919242739677429
1733404718185458700,12.354458740234374,13.706804275512695,1.2737152576446533,-0.47644615173339844
1733404718195468300,12.36446826171875,13.962984085083008,0.3232172429561615,-0.4429273009300232
1733404718205447700,12.37444775390625,14.204798698425293,-0.5554547905921936,-0.2298433631658554
1733404718215457500,12.38445751953125,14.381969451904297,-1.113303780555725,0.0454898327589035
1733404718225467100,12.394467041015625,14.03720474243164,-1.1444283723831177,-0.14365209639072418
1733404718235477000,12.40447705078125,12.914323806762695,-1.0678139925003052,-0.3447650372982025
1733404718245456100,12.4144560546875,11.439496040344238,-0.7374141216278076,-0.6248866319656372
1733404718255466000,12.424466064453124,9.05487060546875,-0.2346317619085312,-1.0893617868423462
1733404718265475800,12.434475830078124,6.885724067687988,0.14365209639072418,-1.3646949529647827
1733404718275455000,12.444455078125,4.611232280731201,0.5363011956214905,-1.4460978507995605
1733404718285464800,12.45446484375,2.959233283996582,0.7398083209991455,-1.522712230682373
1733404718295474700,12.464474609375,1.745373010635376,0.9313444495201111,-1.290474772453308
1733404718305453800,12.474453857421874,1.316810965538025,0.8595184087753296,-0.8068459630012512
1733404718315463400,12.48446337890625,1.8818424940109253,0.7493851184844971,-0.23702596127986908
1733404718325473300,12.494473388671874,3.711012601852417,0.6440402865409851,0.05027823522686958
1733404718335452400,12.504452392578125,5.822698593139648,0.4165911078453064,0.15083470940589905
1733404718345462300,12.514462158203125,8.650250434875488,0.27054479718208313,-0.18914192914962769
1733404718355472100,12.52447216796875,10.948684692382812,0.24181437492370605,-0.38546648621559143
1733404718365451300,12.534451171875,12.698845863342285,0.3016694188117981,-0.6631938815116882
1733404718375461000,12.544461181640624,13.445837020874023,0.38307225704193115,-0.8140285611152649
1733404718385471000,12.554470947265624,13.397953033447266,0.6009446382522583,-0.8259995579719543
1733404718395450000,12.5644501953125,12.689269065856934,0.8427590131759644,-0.6799532771110535
1733404718405460000,12.5744599609375,11.537657737731934,1.1851298809051514,-0.47884035110473633
1733404718415469600,12.584469482421875,10.472238540649414,1.5418659448623657,-0.26575639843940735
1733404718425448700,12.59444873046875,9.923966407775879,1.867477297782898,-0.10534487664699554
1733404718435458600,12.60445849609375,9.627084732055664,2.1380221843719482,0.0071826050989329815
1733404718445468400,12.614468505859374,9.497797966003418,2.2601263523101807,-0.05506663769483566
1733404718455447600,12.624447509765625,9.469067573547363,2.4444799423217773,-0.21308395266532898
1733404718465457400,12.63445751953125,9.3828763961792,2.4444799423217773,-0.2537853717803955
1733404718475467300,12.64446728515625,9.069235801696777,2.341529369354248,-0.24899697303771973
1733404718485477000,12.65447705078125,8.791508674621582,2.2649147510528564,-0.2944868206977844
1733404718495456300,12.664456298828124,8.429984092712402,2.1332337856292725,-0.38546648621559143
1733404718505465900,12.6744658203125,8.212111473083496,2.006340980529785,-0.4357447028160095
1733404718515475700,12.684475830078124,8.13789176940918,1.845929503440857,-0.5530605912208557
1733404718525454800,12.694454833984375,8.058882713317871,1.723825216293335,-0.629675030708313
1733404718535464700,12.704464599609375,8.169015884399414,1.6160861253738403,-0.7015010714530945
1733404718545474600,12.714474609375,8.271966934204102,1.45806884765625,-0.7613561153411865
1733404718555453700,12.72445361328125,8.293514251708984,1.3670891523361206,-0.7852981686592102
1733404718565463600,12.734463623046874,8.372523307800293,1.3862427473068237,-0.7398083209991455
1733404718575473400,12.744473388671874,8.396465301513672,1.4437036514282227,-0.6775590777397156
1733404718585452500,12.75445263671875,8.221688270568848,1.525106430053711,-0.6631938815116882
1733404718595462400,12.76446240234375,8.04691219329834,1.6328455209732056,-0.6153098344802856
1733404718605472000,12.774471923828125,7.977479934692383,1.7836803197860718,-0.5961562395095825
1733404718615451100,12.784451171875,8.111555099487305,1.9297266006469727,-0.5937620401382446
1733404718625461000,12.7944609375,8.552088737487793,2.1284453868865967,-0.6775590777397156
1733404718635470800,12.804470947265624,9.196128845214844,2.2649147510528564,-0.7134721279144287
1733404718645450000,12.814449951171875,9.823410034179688,2.363077163696289,-0.6823474764823914
1733404718655459800,12.8244599609375,10.244789123535156,2.470816135406494,-0.7134721279144287
1733404718665469700,12.8344697265625,10.855310440063477,2.609679937362671,-0.6416460275650024
1733404718675448800,12.84444873046875,11.683704376220703,2.7485435009002686,-0.7565677165985107
1733404718685458700,12.854458740234374,12.239158630371094,2.741360902786255,-0.6799532771110535
1733404718695468300,12.86446826171875,12.461819648742676,2.6408045291900635,-0.6799532771110535
1733404718705447700,12.87444775390625,12.215216636657715,2.494758129119873,-0.6536170840263367
1733404718715457500,12.88445751953125,11.552022933959961,2.4133553504943848,-0.40701428055763245
1733404718725467100,12.894467041015625,10.876858711242676,2.561795711517334,-0.4141969084739685
1733404718735477000,12.90447705078125,10.18493366241455,2.669534921646118,-0.4692635238170624
1733404718745456000,12.9144560546875,9.385271072387695,2.434903144836426,-0.45010992884635925
1733404718755466000,12.924466064453124,9.045293807983398,2.2625205516815186,-0.3423708379268646
