time,seconds_elapsed,z,y,x
1732873140024947700,0.66894775390625,0.058571815490722656,0.0037571191787719727,0.0002887248992919922
1732873140034517800,0.678517822265625,-0.09134769439697266,0.06179326772689819,0.015356078743934631
1732873140044527600,0.688527587890625,-0.1736011505126953,0.11974048614501953,-0.0205514058470726
1732873140054507000,0.698507080078125,-0.25101184844970703,0.11107319593429565,0.0048544742166996
1732873140064516600,0.7085166015625,-0.27301025390625,0.12461411952972412,-0.008263476192951202
1732873140074526500,0.7185263671875,-0.22083759307861328,0.11612993478775024,0.013051092624664307
1732873140084505900,0.728505859375,-0.09755516052246094,0.0659061074256897,0.07514167577028275
1732873140094515500,0.738515380859375,-0.06801319122314453,0.04503971338272095,0.09220989793539047
1732873140104525000,0.748525146484375,-0.041027069091796875,0.024877965450286865,0.10478230565786362
1732873140114504400,0.75850439453125,-0.021389007568359375,0.02253115177154541,0.05153302848339081
1732873140124514000,0.76851416015625,0.000034332275390625,0.007660090923309326,-0.022513113915920258
1732873140134524000,0.77852392578125,0.014577865600585938,0.014501690864562988,-0.08685454726219177
1732873140144503300,0.78850341796875,0.07001304626464844,0.0433582067489624,-0.1274094432592392
1732873140154513000,0.798512939453125,0.11818790435791016,0.040012478828430176,-0.17363332211971283
1732873140164522800,0.808522705078125,0.07559013366699219,0.04274618625640869,-0.13998685777187347
1732873140174502100,0.818502197265625,0.00848388671875,0.0076711177825927734,-0.0201485063880682
1732873140184511700,0.82851171875,-0.06336212158203125,-0.008851110935211182,-0.03399448096752167
1732873140194521600,0.838521484375,0.02769947052001953,-0.000032067298889160156,-0.11289383471012115
1732873140204500700,0.848500732421875,0.13516998291015625,-0.012455224990844727,-0.1315685510635376
1732873140214510300,0.85851025390625,0.19202709197998047,-0.03827321529388428,-0.1751185655593872
1732873140224520200,0.868520263671875,0.1772003173828125,-0.040148019790649414,-0.18821552395820618
1732873140234530000,0.878530029296875,0.07861709594726562,-0.03504544496536255,-0.07627207040786743
1732873140244509200,0.88850927734375,-0.021753311157226562,-0.032498836517333984,-0.01082506775856018
1732873140254519000,0.89851904296875,-0.1674633026123047,0.03300708532333374,0.024759650230407715
1732873140264529000,0.90852880859375,-0.332305908203125,0.027138054370880127,0.11242016404867172
1732873140274508000,0.918508056640625,-0.4323911666870117,0.02133125066757202,0.23995354771614075
1732873140284518000,0.928517822265625,-0.3516111373901367,0.09585660696029663,0.2179630696773529
1732873140294527700,0.93852783203125,-0.2656745910644531,0.10911452770233154,0.24515217542648315
1732873140304507000,0.9485068359375,-0.13509178161621094,0.049574851989746094,0.27189522981643677
1732873140314516500,0.9585166015625,-0.017167091369628906,0.007241666316986084,0.23208965361118317
1732873140324526300,0.9685263671875,0.08518409729003906,-0.05049288272857666,0.2392348051071167
1732873140334505500,0.97850537109375,0.1659231185913086,-0.13356643915176392,0.2786691188812256
1732873140344515300,0.988515380859375,0.2993011474609375,-0.23266512155532837,0.29718127846717834
1732873140354525200,0.998525146484375,0.3728294372558594,-0.29557961225509644,0.33580970764160156
1732873140364504600,1.008504638671875,0.3627185821533203,-0.3241097331047058,0.39209985733032227
1732873140374514200,1.01851416015625,0.2736806869506836,-0.3315393030643463,0.4532049000263214
1732873140384524000,1.02852392578125,0.12971210479736328,-0.2659033536911011,0.4766443073749542
1732873140394503200,1.038503173828125,0.00028133392333984375,-0.1756458282470703,0.44624027609825134
1732873140404512800,1.0485126953125,-0.15531253814697266,-0.08916085958480835,0.49949678778648376
1732873140414522600,1.058522705078125,-0.34661865234375,-0.02552509307861328,0.5754122734069824
1732873140424502000,1.068501953125,-0.43482017517089844,0.041526973247528076,0.5167678594589233
1732873140434511600,1.07851171875,-0.46070098876953125,0.11302709579467773,0.5462170243263245
1732873140444521500,1.088521484375,-0.44597530364990234,0.12187230587005615,0.5217865705490112
1732873140454500900,1.0985009765625,-0.3978385925292969,0.07055455446243286,0.4631231427192688
1732873140464510500,1.108510498046875,-0.26848888397216797,-0.025935828685760498,0.347572922706604
1732873140474520300,1.118520263671875,-0.13217639923095703,-0.09796017408370972,0.29288017749786377
1732873140484530000,1.128530029296875,0.037448883056640625,-0.1297016739845276,0.20756983757019043
1732873140494509300,1.13850927734375,0.12078094482421875,-0.10097253322601318,0.23499339818954468
1732873140504519200,1.148519287109375,0.1826019287109375,-0.06603795289993286,0.2739468514919281
1732873140514528800,1.15852880859375,0.12731552124023438,0.015331923961639404,0.346787691116333
1732873140524508000,1.1685078125,0.041159629821777344,0.09543639421463013,0.4490744471549988
1732873140534517800,1.178517822265625,-0.10934734344482422,0.1455932855606079,0.4910614490509033
1732873140544527600,1.188527587890625,-0.20456695556640625,0.15942347049713135,0.5281680822372437
1732873140554507000,1.198507080078125,-0.28538036346435547,0.17180252075195312,0.4641658663749695
1732873140564516600,1.2085166015625,-0.33273792266845703,0.16016459465026855,0.4044102430343628
1732873140574526500,1.2185263671875,-0.31799793243408203,0.09771507978439331,0.4455522298812866
1732873140584505600,1.228505615234375,-0.22940826416015625,-0.038303911685943604,0.4474828243255615
1732873140594515500,1.238515380859375,-0.009402275085449219,-0.17165303230285645,0.4803032875061035
1732873140604525300,1.248525390625,0.2965850830078125,-0.19461113214492798,0.4810011386871338
1732873140614504400,1.25850439453125,0.5807895660400391,-0.20652008056640625,0.4120104908943176
1732873140624514000,1.26851416015625,0.6733160018920898,-0.21478477120399475,0.34509655833244324
1732873140634524000,1.27852392578125,0.7395420074462891,-0.15747904777526855,0.4217345118522644
1732873140644503300,1.28850341796875,0.5545177459716797,-0.03228020668029785,0.3962886929512024
1732873140654513000,1.298512939453125,0.2979726791381836,0.053924739360809326,0.4274270534515381
1732873140664522800,1.308522705078125,0.039371490478515625,0.11005967855453491,0.33075040578842163
1732873140674502100,1.318502197265625,-0.1711721420288086,0.1347476840019226,0.2772815525531769
1732873140684511700,1.32851171875,-0.25477123260498047,0.13416004180908203,0.24136489629745483
1732873140694521600,1.338521484375,-0.2139263153076172,0.1641886830329895,0.21929070353507996
1732873140704500700,1.348500732421875,-0.07024192810058594,0.21078097820281982,0.16876688599586487
1732873140714510300,1.35851025390625,-0.055832862854003906,0.2805434465408325,0.19343024492263794
1732873140724520200,1.368520263671875,-0.08202266693115234,0.30341702699661255,0.17013832926750183
1732873140734530000,1.378530029296875,-0.23016357421875,0.2602810263633728,0.1911996603012085
1732873140744509200,1.38850927734375,-0.3352327346801758,0.15571677684783936,0.2667332887649536
1732873140754519000,1.39851904296875,-0.2704296112060547,0.0912814736366272,0.3229580521583557
1732873140764529000,1.40852880859375,-0.021546363830566406,0.04147624969482422,0.23760706186294556
1732873140774508000,1.418508056640625,0.21266841888427734,-0.015421807765960693,0.14091119170188904
1732873140784518000,1.428517822265625,0.4251117706298828,-0.07342660427093506,0.1313660442829132
1732873140794527700,1.43852783203125,0.4603424072265625,-0.06827163696289062,0.10188186168670654
1732873140804507000,1.4485068359375,0.40732288360595703,-0.024093985557556152,0.21978643536567688
1732873140814516500,1.4585166015625,0.1679391860961914,0.05142301321029663,0.3708585202693939
1732873140824526300,1.4685263671875,-0.06857967376708984,0.0655861496925354,0.5323256850242615
1732873140834505500,1.47850537109375,-0.1946430206298828,0.05632495880126953,0.6921159029006958
1732873140844515300,1.488515380859375,-0.2630300521850586,0.03108203411102295,0.8016763925552368
1732873140854525200,1.498525146484375,-0.2092113494873047,0.02736806869506836,0.8866102695465088
1732873140864504600,1.508504638671875,-0.11464977264404297,0.05746513605117798,0.9599273204803467
1732873140874514200,1.51851416015625,-0.13734817504882812,0.08672589063644409,1.0599541664123535
1732873140884524000,1.52852392578125,-0.1982269287109375,0.09200125932693481,1.1599520444869995
1732873140894503200,1.538503173828125,-0.2566356658935547,0.07864296436309814,1.1669903993606567
1732873140904512800,1.5485126953125,-0.2432088851928711,0.021429836750030518,1.2506827116012573
1732873140914522600,1.558522705078125,-0.2010793685913086,0.054113030433654785,1.2212274074554443
1732873140924502000,1.568501953125,-0.027257919311523438,0.08341372013092041,1.118356704711914
1732873140934511600,1.57851171875,0.18960285186767578,0.12141406536102295,0.9937214255332947
1732873140944521500,1.588521484375,0.28894996643066406,0.04363095760345459,0.8596377968788147
1732873140954500900,1.5985009765625,0.33308982849121094,-0.06980890035629272,0.7909194231033325
1732873140964510500,1.608510498046875,0.3029041290283203,-0.2465585470199585,0.8352116346359253
1732873140974520300,1.618520263671875,0.3276033401489258,-0.43728333711624146,0.7882248759269714
1732873140984530000,1.628530029296875,0.5722274780273438,-0.5590613484382629,0.7008776664733887
1732873140994509300,1.63850927734375,0.8165054321289062,-0.6524105072021484,0.5515649318695068
1732873141004519200,1.648519287109375,1.0463037490844727,-0.6741539835929871,0.4618866443634033
1732873141014528800,1.65852880859375,1.1925115585327148,-0.4534979462623596,0.2858619689941406
1732873141024508000,1.6685078125,1.0592060089111328,-0.10801643133163452,0.1798052191734314
1732873141034517800,1.678517822265625,0.5696735382080078,0.34169864654541016,0.23374873399734497
1732873141044527600,1.688527587890625,0.018178939819335938,0.6411401033401489,0.3270626664161682
1732873141054507000,1.698507080078125,-0.5367212295532227,0.6824837923049927,0.23490220308303833
1732873141064516600,1.7085166015625,-0.7587661743164062,0.26996487379074097,-0.010341227054595947
1732873141074526500,1.7185263671875,-0.4847688674926758,-0.4784352481365204,-0.4556824564933777
1732873141084505600,1.728505615234375,0.43018531799316406,-1.0699485540390015,-1.0739144086837769
1732873141094515500,1.738515380859375,1.8552494049072266,-1.536327600479126,-1.7563064098358154
1732873141104525300,1.748525390625,3.1231470108032227,-1.7412879467010498,-2.1294965744018555
1732873141114504400,1.75850439453125,3.5139265060424805,-1.6151573657989502,-2.1400463581085205
1732873141124514000,1.76851416015625,3.0565547943115234,-1.1943705081939697,-2.176387310028076
1732873141134524000,1.77852392578125,1.9327898025512695,-0.6815358996391296,-2.2827723026275635
1732873141144503300,1.78850341796875,0.20927715301513672,0.06405377388000488,-2.178232192993164
1732873141154513000,1.798512939453125,-1.192697525024414,0.6492760181427002,-2.0444016456604004
1732873141164522800,1.808522705078125,-2.628383159637451,1.1652605533599854,-2.0407278537750244
1732873141174502100,1.818502197265625,-3.4984302520751953,1.4432501792907715,-2.1997361183166504
1732873141184511700,1.82851171875,-3.9347214698791504,1.4407727718353271,-2.526247501373291
1732873141194521600,1.838521484375,-3.7603402137756348,1.0968538522720337,-2.7464818954467773
1732873141204500700,1.848500732421875,-2.8797125816345215,0.37304991483688354,-2.9567618370056152
1732873141214510300,1.85851025390625,-1.4409828186035156,-0.3392481803894043,-3.0568931102752686
1732873141224520200,1.868520263671875,0.5135097503662109,-1.0350971221923828,-3.226212978363037
1732873141234530000,1.878530029296875,2.383896827697754,-1.5326404571533203,-3.5417940616607666
1732873141244509200,1.88850927734375,3.713794708251953,-1.6510601043701172,-3.8254103660583496
1732873141254519000,1.89851904296875,4.163897514343262,-1.4825016260147095,-3.9855313301086426
1732873141264529000,1.90852880859375,3.592670440673828,-1.0910804271697998,-3.874624729156494
1732873141274508000,1.918508056640625,2.1283836364746094,-0.45115628838539124,-3.662919044494629
1732873141284518000,1.928517822265625,0.5200176239013672,0.1091422438621521,-3.4060096740722656
1732873141294527700,1.93852783203125,-0.9544782638549805,0.7235819101333618,-3.217301845550537
1732873141304507000,1.9485068359375,-1.899702548980713,1.1131486892700195,-2.9760735034942627
1732873141314516500,1.9585166015625,-2.4711122512817383,1.4590768814086914,-2.813058853149414
1732873141324526300,1.9685263671875,-2.6069254875183105,1.595857858657837,-2.771547317504883
1732873141334505500,1.97850537109375,-2.3107447624206543,1.5719189643859863,-2.684131145477295
1732873141344515300,1.988515380859375,-1.7680721282958984,1.36329984664917,-2.6909685134887695
1732873141354525200,1.998525146484375,-1.1755504608154297,1.1071958541870117,-2.7841861248016357
1732873141364504600,2.008504638671875,-0.4369525909423828,0.7718280553817749,-2.74753475189209
1732873141374514200,2.01851416015625,0.10994815826416016,0.5368870496749878,-2.70719051361084
1732873141384524000,2.02852392578125,0.47728824615478516,0.4210641384124756,-2.735438108444214
1732873141394503200,2.038503173828125,0.51715087890625,0.3462114930152893,-2.7326624393463135
1732873141404512800,2.0485126953125,0.28870582580566406,0.3843425512313843,-2.7237162590026855
1732873141414522600,2.058522705078125,0.0076751708984375,0.4022064208984375,-2.689424753189087
1732873141424502000,2.068501953125,-0.17237472534179688,0.4222210645675659,-2.5389244556427
1732873141434511600,2.07851171875,-0.33024024963378906,0.40023094415664673,-2.4397311210632324
1732873141444521500,2.088521484375,-0.46574974060058594,0.3244810104370117,-2.293491840362549
1732873141454500900,2.0985009765625,-0.49278736114501953,0.19954150915145874,-2.2003509998321533
1732873141464510500,2.108510498046875,-0.4808197021484375,0.1638062596321106,-2.0432677268981934
1732873141474520300,2.118520263671875,-0.35124683380126953,0.15660256147384644,-1.962788701057434
1732873141484530200,2.1285302734375,-0.34111881256103516,0.1075141429901123,-1.900773525238037
1732873141494509300,2.13850927734375,-0.36660194396972656,0.02278316020965576,-1.665867805480957
1732873141504519200,2.148519287109375,-0.5163393020629883,0.08040642738342285,-1.4571068286895752
1732873141514528800,2.15852880859375,-0.7570171356201172,0.2697206735610962,-1.2652380466461182
1732873141524508000,2.1685078125,-0.8109760284423828,0.27209293842315674,-0.8708020448684692
1732873141534517800,2.178517822265625,-0.7433805465698242,0.10846579074859619,-0.11187999695539474
1732873141544527600,2.188527587890625,-0.4542722702026367,-0.09156560897827148,0.409004271030426
1732873141554507000,2.198507080078125,-0.0018138885498046875,-0.36993470788002014,0.6863583922386169
1732873141564516600,2.2085166015625,0.6566715240478516,-0.6127929091453552,0.6386998891830444
1732873141574526500,2.2185263671875,1.2836713790893555,-0.7801567912101746,0.4682950973510742
1732873141584505600,2.228505615234375,1.9489688873291016,-0.7734478712081909,0.12829411029815674
1732873141594515500,2.238515380859375,2.3441162109375,-0.6415560245513916,-0.13333357870578766
1732873141604525300,2.248525390625,2.2467470169067383,-0.500609278678894,-0.1077275276184082
1732873141614504400,2.25850439453125,1.8298530578613281,-0.3795584738254547,0.007778599858283997
1732873141624514000,2.26851416015625,1.0714387893676758,-0.11013743281364441,-0.0348733514547348
1732873141634524000,2.27852392578125,0.34726810455322266,0.2270767092704773,-0.11982302367687225
1732873141644503300,2.28850341796875,-0.3022747039794922,0.5336323380470276,-0.10367614030838013
1732873141654513000,2.298512939453125,-0.7505598068237305,0.642636775970459,0.06309796124696732
1732873141664522800,2.308522705078125,-0.9571809768676758,0.6070320010185242,0.28687071800231934
1732873141674502100,2.318502197265625,-0.6829671859741211,0.44678664207458496,0.5259013772010803
1732873141684511700,2.32851171875,-0.17491436004638672,0.325126051902771,0.5485477447509766
1732873141694521600,2.338521484375,0.41907405853271484,0.2174496054649353,0.5091626048088074
1732873141704500700,2.348500732421875,0.7089719772338867,0.08942234516143799,0.5290459990501404
1732873141714510300,2.35851025390625,0.8051071166992188,-0.1360163688659668,0.7518557906150818
1732873141724520200,2.368520263671875,0.8177156448364258,-0.39087554812431335,0.9567635655403137
1732873141734530000,2.378530029296875,0.6893377304077148,-0.5719214081764221,1.0942050218582153
1732873141744509200,2.38850927734375,0.4701366424560547,-0.6984972357749939,1.0263265371322632
1732873141754519000,2.39851904296875,0.47203826904296875,-0.7156622409820557,0.7973916530609131
1732873141764529000,2.40852880859375,0.5240535736083984,-0.7577893733978271,0.7127062082290649
1732873141774508000,2.418508056640625,0.5871343612670898,-1.1286273002624512,0.9488198757171631
1732873141784518000,2.428517822265625,0.7065143585205078,-1.7384690046310425,1.2614474296569824
1732873141794527700,2.43852783203125,1.0584306716918945,-2.239293098449707,1.1784608364105225
1732873141804507000,2.4485068359375,1.6286869049072266,-2.521162271499634,0.3852495551109314
1732873141814516500,2.4585166015625,2.050930976867676,-2.3385205268859863,-0.8778051137924194
1732873141824526300,2.4685263671875,1.9966087341308594,-1.9317021369934082,-1.9531657695770264
1732873141834505500,2.47850537109375,1.1698827743530273,-1.5150158405303955,-2.2500743865966797
1732873141844515300,2.488515380859375,-0.05059242248535156,-0.9680657386779785,-2.101649522781372
1732873141854525200,2.498525146484375,-1.1279582977294922,-0.5175426006317139,-1.7832341194152832
1732873141864504600,2.508504638671875,-2.056636333465576,-0.1920817494392395,-1.5033446550369263
1732873141874514200,2.51851416015625,-2.4508566856384277,-0.16849908232688904,-1.2911163568496704
1732873141884524000,2.52852392578125,-2.418581962585449,-0.4178784191608429,-1.2481709718704224
1732873141894503200,2.538503173828125,-1.6614046096801758,-0.8658515214920044,-1.260237455368042
1732873141904512800,2.5485126953125,-0.5080251693725586,-1.3146637678146362,-1.6853793859481812
1732873141914522600,2.558522705078125,1.2165002822875977,-1.534511685371399,-2.411068916320801
1732873141924502000,2.568501953125,2.705951690673828,-1.5505568981170654,-3.0245752334594727
1732873141934511600,2.57851171875,3.6951894760131836,-1.3843482732772827,-3.19003963470459
1732873141944521500,2.588521484375,3.7151050567626953,-1.0169954299926758,-3.012465715408325
1732873141954500900,2.5985009765625,2.482968330383301,-0.6170884370803833,-2.5271639823913574
1732873141964510500,2.608510498046875,0.8535232543945312,-0.2946162819862366,-2.1649982929229736
1732873141974520300,2.618520263671875,-0.7012386322021484,-0.10843294858932495,-1.6502456665039062
1732873141984530200,2.6285302734375,-1.4844942092895508,-0.12597891688346863,-1.1007823944091797
1732873141994509300,2.63850927734375,-1.5110502243041992,-0.12928897142410278,-0.8694531917572021
1732873142004519200,2.648519287109375,-1.0349540710449219,-0.17599248886108398,-0.8311389684677124
1732873142014529000,2.658529052734375,-0.4138612747192383,-0.2732936441898346,-0.8750254511833191
1732873142024508000,2.6685078125,0.08763885498046875,-0.4243161082267761,-0.9436146020889282
1732873142034517800,2.678517822265625,-0.03775215148925781,-0.6631991267204285,-0.8210047483444214
1732873142044527600,2.688527587890625,-0.31574058532714844,-0.893963634967804,-0.6401007175445557
1732873142054507000,2.698507080078125,-0.49243927001953125,-0.939250111579895,-0.6222361326217651
1732873142064516600,2.7085166015625,-0.7980165481567383,-0.972928524017334,-0.5032022595405579
1732873142074526500,2.7185263671875,-0.9858417510986328,-0.9530359506607056,-0.44020336866378784
1732873142084505600,2.728505615234375,-1.1469841003417969,-0.8835222125053406,-0.44519561529159546
1732873142094515500,2.738515380859375,-1.1905603408813477,-0.8738188743591309,-0.3085789978504181
1732873142104525300,2.748525390625,-1.174154281616211,-0.8451602458953857,-0.041780292987823486
1732873142114504400,2.75850439453125,-1.095534324645996,-0.7481281161308289,0.11873602867126465
1732873142124514000,2.76851416015625,-0.9718046188354492,-0.6553816199302673,0.30702510476112366
1732873142134524000,2.77852392578125,-0.8228330612182617,-0.46678707003593445,0.48634883761405945
1732873142144503300,2.78850341796875,-0.7804670333862305,-0.19046908617019653,0.47409868240356445
1732873142154513000,2.798512939453125,-0.7657403945922852,0.13642144203186035,0.2786804735660553
1732873142164522800,2.808522705078125,-0.8887853622436523,0.32601380348205566,0.05705752968788147
1732873142174502100,2.818502197265625,-1.0729484558105469,0.36635464429855347,-0.28732794523239136
1732873142184511700,2.82851171875,-1.2353706359863281,0.1984654664993286,-0.6834677457809448
1732873142194521600,2.838521484375,-1.342641830444336,-0.22728779911994934,-0.9034427404403687
1732873142204500700,2.848500732421875,-1.1031904220581055,-0.7103689908981323,-1.0106176137924194
1732873142214510300,2.85851025390625,-0.6773662567138672,-1.2597463130950928,-1.2431763410568237
1732873142224520200,2.868520263671875,-0.15610504150390625,-1.5160787105560303,-1.713327169418335
1732873142234530000,2.878530029296875,0.3026571273803711,-1.5026651620864868,-2.08455228805542
1732873142244509200,2.88850927734375,0.6105546951293945,-0.9724957942962646,-2.2971203327178955
1732873142254519000,2.89851904296875,0.6386795043945312,-0.33268827199935913,-2.43677020072937
1732873142264529000,2.90852880859375,0.11203479766845703,0.2822462320327759,-2.6640312671661377
1732873142274508000,2.918508056640625,-0.7623386383056641,1.1163034439086914,-2.4281656742095947
1732873142284518000,2.928517822265625,-1.439931869506836,1.9299097061157227,-1.9689249992370605
1732873142294527700,2.93852783203125,-1.8138151168823242,2.1233904361724854,-1.6143195629119873
1732873142304507000,2.9485068359375,-2.677147388458252,1.6029391288757324,-0.9628203511238098
1732873142314516500,2.9585166015625,-2.9674596786499023,0.7695157527923584,-0.5250579714775085
1732873142324526300,2.9685263671875,-1.7539901733398438,-0.39414355158805847,-0.8205122947692871
1732873142334505500,2.97850537109375,0.8103780746459961,-1.7061808109283447,-2.0712504386901855
1732873142344515300,2.988515380859375,3.836179733276367,-2.6217401027679443,-3.586801290512085
1732873142354525200,2.998525146484375,7.240625381469727,-2.954608678817749,-4.784285068511963
1732873142364504600,3.008504638671875,8.984047889709473,-2.680455207824707,-5.064232349395752
1732873142374514200,3.01851416015625,8.590604782104492,-2.3361997604370117,-4.13284969329834
1732873142384524000,3.02852392578125,6.359633445739746,-2.0152318477630615,-2.997584581375122
1732873142394503200,3.038503173828125,3.0135698318481445,-1.4250019788742065,-2.00878643989563
1732873142404513000,3.048512939453125,0.36122703552246094,-0.8886389136314392,-1.2145339250564575
1732873142414522600,3.058522705078125,-1.5744047164916992,-0.29185643792152405,-0.5937917828559875
1732873142424502000,3.068501953125,-2.5818753242492676,0.2815362513065338,-0.46773281693458557
1732873142434511600,3.07851171875,-3.058964729309082,0.9401366710662842,-0.02282997965812683
1732873142444521500,3.088521484375,-3.3367156982421875,1.3708339929580688,0.14871707558631897
1732873142454500900,3.0985009765625,-3.5760464668273926,1.4539204835891724,-0.06620833277702332
1732873142464510500,3.108510498046875,-3.739077091217041,1.3896634578704834,-0.5701404213905334
1732873142474520300,3.118520263671875,-3.627260208129883,1.1722536087036133,-1.0081896781921387
1732873142484530200,3.1285302734375,-3.1762733459472656,0.9514774680137634,-1.162222146987915
1732873142494509300,3.13850927734375,-2.3797497749328613,0.6484689712524414,-1.2317253351211548
1732873142504519200,3.148519287109375,-1.4811716079711914,0.13337618112564087,-1.233973741531372
1732873142514529000,3.158529052734375,-0.6717748641967773,-0.3925626873970032,-1.2161657810211182
1732873142524508000,3.1685078125,0.21637248992919922,-0.9557827115058899,-1.0931991338729858
1732873142534517800,3.178517822265625,0.9920339584350586,-1.1844463348388672,-1.0727709531784058
1732873142544527600,3.188527587890625,1.7010068893432617,-1.1642342805862427,-1.1445670127868652
1732873142554507000,3.198507080078125,2.0705204010009766,-0.8667213916778564,-1.207287073135376
1732873142564516600,3.2085166015625,2.0911102294921875,-0.5488803386688232,-1.1044124364852905
1732873142574526500,3.2185263671875,1.7001276016235352,-0.04846540093421936,-0.7372236251831055
1732873142584505600,3.228505615234375,1.0701780319213867,0.3850807547569275,-0.3551950454711914
1732873142594515500,3.238515380859375,0.30650997161865234,0.9477565288543701,-0.0773477852344513
1732873142604525300,3.248525390625,-0.3657703399658203,1.518604040145874,-0.021843284368515015
1732873142614504400,3.25850439453125,-0.9899377822875977,1.9672921895980835,-0.0033042430877685547
1732873142624514000,3.26851416015625,-1.5015182495117188,2.1469619274139404,0.060277849435806274
1732873142634524000,3.27852392578125,-1.7498321533203125,2.0928642749786377,0.006898373365402222
1732873142644503300,3.28850341796875,-1.6034126281738281,1.9341729879379272,-0.2106107920408249
1732873142654513000,3.298512939453125,-1.091221809387207,1.6239275932312012,-0.5262585878372192
1732873142664522800,3.308522705078125,-0.2635364532470703,1.2679506540298462,-0.9221566915512085
1732873142674502100,3.318502197265625,0.5323629379272461,0.9644817113876343,-1.1839951276779175
1732873142684511700,3.32851171875,1.0743780136108398,0.6657719016075134,-1.199285864830017
1732873142694521600,3.338521484375,1.2574357986450195,0.49342912435531616,-0.9162788987159729
1732873142704500700,3.348500732421875,1.2733993530273438,0.4258110225200653,-0.5970996618270874
1732873142714510300,3.35851025390625,1.0936155319213867,0.4273374080657959,-0.42675256729125977
1732873142724520200,3.368520263671875,0.9333744049072266,0.4721093773841858,-0.3124261796474457
1732873142734530000,3.378530029296875,0.7519569396972656,0.5726015567779541,-0.2647869884967804
1732873142744509200,3.38850927734375,0.29083251953125,0.7254165410995483,-0.33592450618743896
1732873142754519000,3.39851904296875,-0.2847166061401367,0.9170840382575989,-0.44356632232666016
1732873142764529000,3.40852880859375,-0.9916448593139648,1.1079806089401245,-0.3904624283313751
1732873142774508000,3.418508056640625,-1.7053966522216797,1.1628037691116333,-0.2576979994773865
1732873142784518000,3.428517822265625,-2.2370758056640625,1.1223803758621216,0.006799377501010895
1732873142794527700,3.43852783203125,-2.5630412101745605,1.0307323932647705,0.36271902918815613
1732873142804507000,3.4485068359375,-2.5902609825134277,0.8614082932472229,0.6396191716194153
1732873142814516500,3.4585166015625,-2.249549388885498,0.7079631686210632,0.7562229037284851
1732873142824526300,3.4685263671875,-1.6296262741088867,0.5452286601066589,0.8521034121513367
1732873142834505500,3.47850537109375,-0.8644618988037109,0.31885772943496704,0.9679542183876038
1732873142844515300,3.488515380859375,-0.38945674896240234,0.18679028749465942,1.1129246950149536
1732873142854525200,3.498525146484375,-0.06776618957519531,0.09315156936645508,1.1331989765167236
1732873142864504600,3.508504638671875,0.1465129852294922,0.042749226093292236,1.1963508129119873
1732873142874514200,3.51851416015625,0.4305105209350586,0.08120274543762207,1.1711945533752441
1732873142884524000,3.52852392578125,0.587946891784668,0.17852270603179932,1.0796664953231812
1732873142894503200,3.538503173828125,0.5470447540283203,0.2470780611038208,0.9411734342575073
1732873142904513000,3.548512939453125,0.4945955276489258,0.3983724117279053,0.7264801263809204
1732873142914522600,3.558522705078125,0.35636234283447266,0.49164146184921265,0.6741461157798767
1732873142924502000,3.568501953125,0.16825294494628906,0.6664567589759827,0.5389022827148438
1732873142934511600,3.57851171875,0.0740976333618164,0.8944931626319885,0.26730531454086304
1732873142944521500,3.588521484375,-0.06518173217773438,1.1449276208877563,0.03438139334321022
1732873142954500900,3.5985009765625,-0.17780685424804688,1.4335761070251465,-0.10424599796533585
1732873142964510500,3.608510498046875,-0.2662162780761719,1.5199699401855469,-0.2400113046169281
1732873142974520300,3.618520263671875,-0.17242908477783203,1.4244699478149414,-0.11758413910865784
1732873142984530200,3.6285302734375,0.23969459533691406,1.143728494644165,-0.12782011926174164
1732873142994509300,3.63850927734375,0.8541545867919922,0.41924774646759033,-0.23765984177589417
1732873143004519200,3.648519287109375,1.3447017669677734,-0.15495967864990234,-0.511340856552124
1732873143014529000,3.658529052734375,1.7718944549560547,-0.47982263565063477,-0.8447090983390808
1732873143024508000,3.6685078125,1.8306427001953125,-0.6007581949234009,-0.9877753853797913
1732873143034517800,3.678517822265625,1.4137773513793945,-0.65791255235672,-1.173738956451416
1732873143044527600,3.688527587890625,0.8878021240234375,-0.9704986810684204,-1.4033628702163696
1732873143054507000,3.698507080078125,0.2906484603881836,-1.1340540647506714,-2.5358622074127197
1732873143064516600,3.7085166015625,-0.7181291580200195,-1.3451985120773315,-3.285043478012085
1732873143074526500,3.7185263671875,-0.4204082489013672,-0.7734969258308411,-1.2982957363128662
1732873143084505600,3.728505615234375,0.26181507110595703,-0.30250251293182373,0.8544461131095886
1732873143094515500,3.738515380859375,0.7818336486816406,0.12632906436920166,1.7657700777053833
1732873143104525300,3.748525390625,0.3428688049316406,0.35596632957458496,1.2288579940795898
1732873143114504400,3.75850439453125,-0.3509092330932617,0.29447805881500244,-0.058846741914749146
1732873143124514000,3.76851416015625,-0.3903160095214844,-0.008259057998657227,-1.3265948295593262
1732873143134524000,3.77852392578125,0.15915679931640625,-0.5551068782806396,-1.7615571022033691
1732873143144503300,3.78850341796875,1.9514102935791016,-1.3628618717193604,-2.0042617321014404
1732873143154513000,3.798512939453125,3.086231231689453,-2.5007522106170654,-1.5101045370101929
1732873143164522800,3.808522705078125,4.203940391540527,-3.071322441101074,-1.141465663909912
1732873143174502100,3.818502197265625,4.606412887573242,-3.3050990104675293,-0.6747136116027832
1732873143184511700,3.82851171875,4.177225112915039,-3.177804946899414,0.22537322342395782
1732873143194521600,3.838521484375,3.2035703659057617,-2.5166563987731934,1.3213194608688354
1732873143204500700,3.848500732421875,1.6057395935058594,-1.6997621059417725,2.548720598220825
1732873143214510300,3.85851025390625,-0.5164632797241211,-1.2505457401275635,2.576557159423828
1732873143224520200,3.868520263671875,-2.5217223167419434,-1.0611909627914429,1.5231881141662598
1732873143234530000,3.878530029296875,-3.594482898712158,-0.6545663475990295,0.2134690284729004
1732873143244509200,3.88850927734375,-3.374067783355713,-0.41461873054504395,-0.5825207233428955
1732873143254519000,3.89851904296875,-2.842914581298828,-0.44172757863998413,-1.8884170055389404
1732873143264529000,3.90852880859375,-2.2792935371398926,-0.5460308790206909,-2.938406467437744
1732873143274508300,3.91850830078125,-2.0543150901794434,-0.5360870957374573,-3.678727149963379
1732873143284518000,3.928517822265625,-1.7059659957885742,-0.5335997343063354,-3.98596453666687
1732873143294527500,3.938527587890625,-1.4020404815673828,-0.6471957564353943,-3.9836766719818115
1732873143304507000,3.9485068359375,-1.0737285614013672,-0.7695376873016357,-3.755361795425415
1732873143314516500,3.9585166015625,-0.7249660491943359,-0.6706676483154297,-3.5381662845611572
1732873143324526300,3.9685263671875,-1.0881567001342773,-0.2458789348602295,-3.297450065612793
1732873143334505700,3.978505615234375,0.9926061630249023,-1.3278025388717651,-2.117117166519165
1732873143344515300,3.988515380859375,-0.02782726287841797,-0.43768179416656494,-2.8398351669311523
1732873143354525200,3.998525146484375,0.03693389892578125,0.2413390874862671,-1.3559750318527222
1732873143364504600,4.008504638671875,-0.2463369369506836,0.0383683443069458,-0.037008389830589294
1732873143374514200,4.01851416015625,-0.11395549774169922,0.03515028953552246,0.32951948046684265
1732873143384524000,4.02852392578125,0.2767210006713867,0.20238876342773438,-0.0199173241853714
1732873143394503200,4.038503173828125,0.6624479293823242,-0.03693830966949463,-0.03148205578327179
1732873143404513000,4.048512939453125,0.7233676910400391,-0.21282553672790527,-0.22344139218330383
1732873143414522600,4.058522705078125,0.62750244140625,-0.35692906379699707,-0.3700697720050812
1732873143424502000,4.068501953125,0.4275522232055664,-0.5748897194862366,-0.21794216334819794
1732873143434511600,4.07851171875,0.14983463287353516,-0.6842787265777588,-0.049567677080631256
1732873143444521500,4.088521484375,-0.10035133361816406,-0.848864734172821,0.28444188833236694
1732873143454500900,4.0985009765625,-0.3836803436279297,-0.8663336634635925,0.6304189562797546
1732873143464510500,4.108510498046875,-0.5614490509033203,-0.8193870186805725,0.835464358329773
1732873143474520300,4.118520263671875,-0.7940101623535156,-0.7992638945579529,0.7264883518218994
1732873143484530200,4.1285302734375,-0.9447822570800781,-0.7442038655281067,0.533113956451416
1732873143494509300,4.13850927734375,-1.2529306411743164,-0.46905720233917236,0.18099185824394226
1732873143504519200,4.148519287109375,-1.6634330749511719,-0.2755866050720215,-0.027666151523590088
1732873143514528800,4.15852880859375,-2.006649971008301,-0.16978895664215088,-0.320541650056839
1732873143524508200,4.168508056640625,-1.9945940971374512,-0.25613999366760254,-0.47936928272247314
1732873143534517800,4.178517822265625,-1.4242134094238281,-0.4523036479949951,-0.5748857259750366
1732873143544527600,4.188527587890625,-0.01594066619873047,-0.7666195034980774,-0.6351553797721863
1732873143554507000,4.198507080078125,1.2631683349609375,-0.9070630073547363,-0.8635613918304443
1732873143564516600,4.2085166015625,2.205911636352539,-0.8646932244300842,-1.372546672821045
1732873143574526500,4.2185263671875,2.7274045944213867,-0.5199759006500244,-1.6343826055526733
1732873143584505900,4.228505859375,2.4335527420043945,0.25519895553588867,-1.7053112983703613
1732873143594515500,4.238515380859375,1.9674015045166016,0.7569079399108887,-1.8234738111495972
1732873143604525000,4.248525146484375,0.5904388427734375,0.5752458572387695,-1.1863512992858887
1732873143614504400,4.25850439453125,-0.8148307800292969,-0.04382920265197754,-0.8977693915367126
1732873143624514000,4.26851416015625,-0.6130514144897461,-0.8659608960151672,-0.9730632305145264
1732873143634524000,4.27852392578125,0.9351062774658203,-1.3539824485778809,-2.1635844707489014
1732873143644503300,4.28850341796875,2.788651466369629,-1.4070022106170654,-3.9871506690979004
1732873143654513000,4.298512939453125,3.027956962585449,-0.9692714810371399,-4.6046929359436035
1732873143664522800,4.308522705078125,1.5410690307617188,-0.44570422172546387,-4.139012336730957
1732873143674502100,4.318502197265625,-0.6791267395019531,-0.05505096912384033,-3.1468799114227295
1732873143684511700,4.32851171875,-2.128706932067871,0.1904538869857788,-2.1932549476623535
1732873143694521600,4.338521484375,-2.5973615646362305,0.26726651191711426,-1.3511314392089844
1732873143704500700,4.348500732421875,-2.1326327323913574,0.17120492458343506,-1.4018349647521973
1732873143714510300,4.35851025390625,-0.778386116027832,0.04750359058380127,-1.9899885654449463
1732873143724520200,4.368520263671875,0.5465288162231445,-0.13315296173095703,-2.2267353534698486
1732873143734530000,4.378530029296875,1.6041889190673828,-0.08214461803436279,-2.164487838745117
1732873143744509400,4.388509521484375,1.9514427185058594,-0.03737080097198486,-1.9601584672927856
1732873143754519000,4.39851904296875,1.7138175964355469,-0.032552123069763184,-1.9269227981567383
1732873143764529000,4.40852880859375,1.7316083908081055,0.15465450286865234,-1.383685827255249
1732873143774508000,4.418508056640625,1.4780750274658203,0.3576270341873169,-0.689866840839386
1732873143784518000,4.428517822265625,0.39795589447021484,0.43086540699005127,-1.388755440711975
1732873143794527700,4.43852783203125,-0.5320272445678711,0.3981363773345947,-1.6874130964279175
1732873143804507000,4.4485068359375,-1.0708236694335938,0.3881620168685913,-1.5461829900741577
1732873143814516500,4.4585166015625,-1.092660903930664,0.3914980888366699,-1.4825479984283447
1732873143824526300,4.4685263671875,-1.1489505767822266,0.27566397190093994,-1.4895280599594116
1732873143834505500,4.47850537109375,-1.3920745849609375,0.28723812103271484,-1.5973033905029297
1732873143844515300,4.488515380859375,-1.596846580505371,0.3142695426940918,-1.6124454736709595
1732873143854525200,4.498525146484375,-1.7704505920410156,0.32133591175079346,-1.6644920110702515
1732873143864504600,4.508504638671875,-1.953752040863037,0.2904536724090576,-1.5939912796020508
1732873143874514200,4.51851416015625,-1.9218740463256836,0.29460954666137695,-1.49247407913208
1732873143884524000,4.52852392578125,-1.6634721755981445,0.23719727993011475,-1.4664661884307861
1732873143894503200,4.538503173828125,-1.24542236328125,0.06084549427032471,-1.439091444015503
1732873143904513000,4.548512939453125,-0.8329000473022461,0.028329014778137207,-1.5448179244995117
1732873143914522600,4.558522705078125,-0.35855865478515625,-0.04256272315979004,-1.4582078456878662
1732873143924502000,4.568501953125,-0.039961814880371094,-0.11595606803894043,-1.2356165647506714
1732873143934511600,4.57851171875,0.1997203826904297,-0.1716243028640747,-1.2632851600646973
1732873143944521500,4.588521484375,0.36542224884033203,-0.1890467405319214,-1.3546491861343384
1732873143954500900,4.5985009765625,0.42810821533203125,-0.26541805267333984,-1.2233827114105225
1732873143964510500,4.608510498046875,0.4735593795776367,-0.061631202697753906,-0.535041868686676
1732873143974520300,4.618520263671875,0.6155109405517578,0.1628514528274536,0.2691097855567932
1732873143984530200,4.6285302734375,0.49576854705810547,0.3625587224960327,0.49355587363243103
1732873143994509300,4.63850927734375,0.553685188293457,0.43796849250793457,0.5005568265914917
1732873144004519200,4.648519287109375,0.34635448455810547,0.37254273891448975,0.505632758140564
1732873144014529000,4.658529052734375,0.21373748779296875,0.3086482286453247,0.5348690748214722
1732873144024508000,4.6685078125,0.05288219451904297,0.2248286008834839,0.5902953743934631
1732873144034517800,4.678517822265625,-0.04029273986816406,0.11479449272155762,0.744397759437561
1732873144044527600,4.688527587890625,0.024866104125976562,0.011688470840454102,0.9071281552314758
1732873144054507000,4.698507080078125,0.03298759460449219,0.01879405975341797,0.8979640603065491
1732873144064516600,4.7085166015625,-0.24089908599853516,0.17214584350585938,1.0312893390655518
1732873144074526500,4.7185263671875,-0.6339492797851562,0.21321392059326172,1.2425858974456787
1732873144084505600,4.728505615234375,-1.0987024307250977,0.2889418601989746,1.3492462635040283
1732873144094515500,4.738515380859375,-1.1657524108886719,0.22530877590179443,1.0466346740722656
1732873144104525300,4.748525390625,-1.0116138458251953,0.0878685712814331,0.8045082092285156
1732873144114504400,4.75850439453125,-0.39978790283203125,-0.06734216213226318,0.7057647705078125
1732873144124514000,4.76851416015625,0.051349639892578125,-0.3331441879272461,-0.09019756317138672
1732873144134524000,4.77852392578125,0.8618850708007812,-0.36049091815948486,0.8335328698158264
1732873144144503300,4.78850341796875,1.395216941833496,-0.3644578456878662,1.5491286516189575
1732873144154513000,4.798512939453125,1.800663948059082,-0.2528907060623169,2.2273166179656982
1732873144164522800,4.808522705078125,2.303524971008301,-0.22296142578125,2.6101789474487305
1732873144174502100,4.818502197265625,2.83673095703125,-0.3503906726837158,3.3274145126342773
1732873144184511700,4.82851171875,2.708608627319336,-0.925093412399292,2.9877796173095703
1732873144194521600,4.838521484375,2.7723312377929688,-1.739198088645935,2.523756265640259
1732873144204500700,4.848500732421875,3.56180477142334,-2.2623562812805176,1.5812530517578125
1732873144214510300,4.85851025390625,4.478857040405273,-2.5210585594177246,-0.369448721408844
1732873144224520200,4.868520263671875,5.005166053771973,-2.743891477584839,-1.9091541767120361
1732873144234530000,4.878530029296875,4.086933135986328,-2.596586227416992,-2.4507875442504883
1732873144244509200,4.88850927734375,1.5728378295898438,-2.170966386795044,-2.293309211730957
1732873144254519000,4.89851904296875,-0.93975830078125,-1.7462866306304932,-1.7318404912948608
1732873144264529000,4.90852880859375,-3.355240821838379,-1.134246587753296,-1.242369294166565
1732873144274508300,4.91850830078125,-4.766335487365723,-0.5640302896499634,-0.9058812856674194
1732873144284518000,4.928517822265625,-5.604691028594971,-0.16025567054748535,-0.4763316512107849
1732873144294527500,4.938527587890625,-5.6212286949157715,0.02205634117126465,-0.173577219247818
1732873144304507000,4.9485068359375,-4.8584065437316895,0.024775266647338867,-0.1692650467157364
1732873144314516500,4.9585166015625,-3.438737392425537,-0.2594926357269287,-0.5060111880302429
1732873144324526300,4.9685263671875,-2.062941074371338,-0.6650649309158325,-0.785420298576355
1732873144334505700,4.978505615234375,-0.4675445556640625,-1.1187982559204102,-0.8600913286209106
1732873144344515300,4.988515380859375,0.8178024291992188,-1.4994559288024902,-0.9509504437446594
1732873144354525200,4.998525146484375,1.7754287719726562,-1.7807862758636475,-0.9043749570846558
1732873144364504600,5.008504638671875,2.186626434326172,-1.8398908376693726,-0.789726734161377
1732873144374514200,5.01851416015625,2.3848915100097656,-1.6840260028839111,-0.6023836135864258
1732873144384524000,5.02852392578125,2.0767602920532227,-1.3873621225357056,-0.4800730347633362
1732873144394503200,5.038503173828125,1.173309326171875,-0.9818234443664551,-0.3263900876045227
1732873144404513000,5.048512939453125,0.27248477935791016,-0.6226773262023926,-0.1753236949443817
1732873144414522600,5.058522705078125,-0.5643730163574219,-0.3613007068634033,-0.04459039121866226
1732873144424502000,5.068501953125,-0.9429388046264648,-0.16907382011413574,0.014119282364845276
1732873144434511600,5.07851171875,-1.103480339050293,-0.19204771518707275,-0.24997073411941528
1732873144444521500,5.088521484375,-0.7504196166992188,-0.21477866172790527,-0.26605111360549927
1732873144454500900,5.0985009765625,-0.5485563278198242,-0.19933545589447021,-0.5860602855682373
1732873144464510500,5.108510498046875,-0.3588838577270508,-0.37213587760925293,-0.7445383071899414
1732873144474520300,5.118520263671875,-0.11185932159423828,-0.5810344219207764,-0.6467452049255371
1732873144484530200,5.1285302734375,0.16870975494384766,-0.7851487994194031,-0.664649486541748
1732873144494509600,5.138509521484375,0.5045967102050781,-0.7361904382705688,-0.8146651983261108
1732873144504519200,5.148519287109375,0.7641878128051758,-1.0402026176452637,-0.31397542357444763
1732873144514528800,5.15852880859375,0.7900209426879883,-1.2074429988861084,-0.12029823660850525
1732873144524508200,5.168508056640625,0.1776123046875,-1.510983943939209,-0.6625938415527344
1732873144534517800,5.178517822265625,0.30330657958984375,-1.437705397605896,0.2545270025730133
1732873144544527600,5.188527587890625,0.2823781967163086,-1.5430586338043213,0.8589086532592773
1732873144554507000,5.198507080078125,-0.021024703979492188,-1.332763910293579,0.4767826199531555
1732873144564516600,5.2085166015625,-0.3988037109375,-1.3158190250396729,0.26441434025764465
1732873144574526500,5.2185263671875,-0.9033393859863281,-1.1396090984344482,0.5033596158027649
1732873144584505900,5.228505859375,-1.1161470413208008,-0.9311807155609131,0.5388397574424744
1732873144594515500,5.238515380859375,-0.899073600769043,-0.7849985361099243,0.4534341096878052
1732873144604525000,5.248525146484375,-0.6907186508178711,-0.7419015169143677,0.23593145608901978
1732873144614504400,5.25850439453125,-0.3812112808227539,-0.591295599937439,0.021116584539413452
1732873144624514000,5.26851416015625,-0.06560516357421875,-0.6921068429946899,-0.3121878206729889
1732873144634524000,5.27852392578125,0.2297353744506836,-0.6885689496994019,-0.07060900330543518
1732873144644503300,5.28850341796875,0.45204639434814453,-0.7243506908416748,0.896041214466095
1732873144654513000,5.298512939453125,0.5594482421875,-0.8108507990837097,1.6847180128097534
1732873144664522800,5.308522705078125,0.9433202743530273,-0.7618608474731445,1.6625685691833496
1732873144674502100,5.318502197265625,1.223942756652832,-0.712925910949707,0.7257214784622192
1732873144684511700,5.32851171875,1.4704742431640625,-0.5106692314147949,0.17579825222492218
1732873144694521600,5.338521484375,1.5516576766967773,-0.5714031457901001,0.03334514796733856
1732873144704500700,5.348500732421875,1.8994197845458984,-0.977426290512085,-0.07545286417007446
1732873144714510300,5.35851025390625,2.1689348220825195,-1.3553138971328735,-0.44524437189102173
1732873144724520200,5.368520263671875,2.7790346145629883,-1.6234148740768433,-1.1107078790664673
1732873144734530000,5.378530029296875,2.8176517486572266,-1.5003879070281982,-1.516097068786621
1732873144744509400,5.388509521484375,1.6945390701293945,-0.8837152719497681,-1.3438245058059692
1732873144754519000,5.39851904296875,-0.2420806884765625,0.0015943050384521484,-1.258177399635315
1732873144764529000,5.40852880859375,-1.5527429580688477,0.6158328056335449,-1.2082290649414062
1732873144774508000,5.418508056640625,-2.367213249206543,1.1360201835632324,-1.409975528717041
1732873144784518000,5.428517822265625,-2.4973926544189453,1.5376604795455933,-1.6763899326324463
1732873144794527700,5.43852783203125,-2.908468246459961,1.5927132368087769,-3.1412553787231445
1732873144804507000,5.4485068359375,-2.8060245513916016,1.9262412786483765,-2.599714517593384
1732873144814516500,5.4585166015625,-1.920628547668457,1.7520424127578735,-1.6086525917053223
1732873144824526300,5.4685263671875,-0.5024862289428711,1.4318798780441284,-0.941592276096344
1732873144834505500,5.47850537109375,1.396291732788086,0.9755208492279053,-0.5121926069259644
1732873144844515300,5.488515380859375,2.8714723587036133,0.5878620147705078,-0.36445924639701843
1732873144854525200,5.498525146484375,3.7036733627319336,0.20022356510162354,-0.4820033609867096
1732873144864504600,5.508504638671875,3.537543296813965,-0.09005892276763916,-1.1600407361984253
1732873144874514200,5.51851416015625,2.921649932861328,-0.25309181213378906,-1.483829140663147
1732873144884524000,5.52852392578125,2.0763654708862305,-0.278523325920105,-1.8432999849319458
1732873144894503200,5.538503173828125,1.2266454696655273,-0.15362560749053955,-1.9382320642471313
1732873144904513000,5.548512939453125,-0.25257110595703125,-0.11567461490631104,-1.7777460813522339
1732873144914522600,5.558522705078125,-1.2591819763183594,-0.055735111236572266,-1.439774513244629
1732873144924502000,5.568501953125,-2.1880693435668945,0.20542657375335693,-1.1681212186813354
1732873144934511600,5.57851171875,-2.987344264984131,0.3496509790420532,-0.9261533617973328
1732873144944521500,5.588521484375,-3.5835628509521484,0.5655484199523926,-0.6059433221817017
1732873144954500900,5.5985009765625,-3.9559578895568848,0.7876259088516235,-0.269389271736145
1732873144964510500,5.608510498046875,-4.062071323394775,0.9829810857772827,-0.13415639102458954
1732873144974520300,5.618520263671875,-3.816074848175049,1.019015908241272,-0.16589047014713287
1732873144984530200,5.6285302734375,-3.3416337966918945,0.9807296991348267,-0.28493037819862366
1732873144994509300,5.63850927734375,-2.5031752586364746,0.7831026315689087,-0.47266077995300293
1732873145004519200,5.648519287109375,-1.4773263931274414,0.49285411834716797,-0.6462185382843018
1732873145014529000,5.658529052734375,-0.33294105529785156,0.26988697052001953,-0.6632122993469238
1732873145024508000,5.6685078125,0.48545169830322266,0.13596761226654053,-0.46933484077453613
1732873145034517800,5.678517822265625,1.0815954208374023,0.15117168426513672,-0.380916953086853
1732873145044527600,5.688527587890625,1.2405805587768555,0.21126902103424072,-0.449403315782547
1732873145054507000,5.698507080078125,1.1524734497070312,0.36798298358917236,-0.6153103113174438
1732873145064516600,5.7085166015625,0.9208583831787109,0.5330545902252197,-0.5630549192428589
1732873145074526500,5.7185263671875,0.21943283081054688,0.7492169141769409,-0.3769935369491577
1732873145084505600,5.728505615234375,-0.6096630096435547,0.9366844892501831,0.016712427139282227
1732873145094515500,5.738515380859375,-1.1826648712158203,1.0263313055038452,0.44189608097076416
1732873145104525300,5.748525390625,-1.3848295211791992,1.0505027770996094,0.7521356344223022
1732873145114504400,5.75850439453125,-1.1851768493652344,0.9594192504882812,0.8496343493461609
1732873145124514000,5.76851416015625,-0.9225950241088867,0.7123740911483765,0.8575520515441895
1732873145134524000,5.77852392578125,-0.5211858749389648,0.4688377380371094,0.8656402826309204
1732873145144503300,5.78850341796875,0.08945941925048828,0.24771690368652344,0.9226185083389282
1732873145154513000,5.798512939453125,0.5696754455566406,0.11916184425354004,1.1036527156829834
1732873145164522800,5.808522705078125,0.4411630630493164,0.11391127109527588,1.0203992128372192
1732873145174502100,5.818502197265625,0.24295330047607422,0.07001519203186035,1.111402988433838
1732873145184511700,5.82851171875,-0.029773712158203125,0.05285370349884033,1.3160167932510376
1732873145194521600,5.838521484375,-0.11877155303955078,-0.10762012004852295,1.7554996013641357
1732873145204500700,5.848500732421875,0.13033390045166016,-0.3530559539794922,2.16715931892395
1732873145214510300,5.85851025390625,0.6455421447753906,-0.7937853932380676,2.484555721282959
1732873145224520200,5.868520263671875,1.4174299240112305,-1.1005431413650513,2.6565871238708496
1732873145234530000,5.878530029296875,2.367748260498047,-1.6442240476608276,2.6038804054260254
1732873145244509200,5.88850927734375,3.4621658325195312,-1.9701111316680908,2.5113518238067627
1732873145254519000,5.89851904296875,4.759670257568359,-1.7568116188049316,1.8606457710266113
1732873145264529000,5.90852880859375,5.366276741027832,-1.4628512859344482,1.0689148902893066
1732873145274508300,5.91850830078125,4.832780838012695,-1.0538105964660645,0.21695062518119812
1732873145284518000,5.928517822265625,3.1369457244873047,-0.7008508443832397,-0.3961736857891083
1732873145294527500,5.938527587890625,0.46049976348876953,-0.5191339254379272,-0.6426866054534912
1732873145304507000,5.9485068359375,-1.515181541442871,-0.44844722747802734,-0.6946275234222412
1732873145314516500,5.9585166015625,-2.658066749572754,-0.1608598232269287,-1.1962621212005615
1732873145324526300,5.9685263671875,-3.158935070037842,-0.11604917049407959,-1.7483515739440918
1732873145334505700,5.978505615234375,-2.9253664016723633,-0.16666221618652344,-2.0114188194274902
1732873145344515300,5.988515380859375,-1.7262368202209473,-0.41566646099090576,-2.224332571029663
1732873145354525200,5.998525146484375,-0.17705059051513672,-1.0415475368499756,-2.3683996200561523
1732873145364504600,6.008504638671875,1.6408863067626953,-1.6416573524475098,-2.5968234539031982
1732873145374514200,6.01851416015625,3.061281204223633,-1.9495818614959717,-2.9661340713500977
1732873145384524000,6.02852392578125,3.405917167663574,-1.9365572929382324,-2.8866639137268066
1732873145394503200,6.038503173828125,2.4917917251586914,-1.3473916053771973,-2.073946714401245
1732873145404513000,6.048512939453125,0.9130096435546875,-0.7080889344215393,-1.0254924297332764
1732873145414522600,6.058522705078125,-0.39516162872314453,-0.26482850313186646,-0.3453509211540222
1732873145424502000,6.068501953125,-1.0775108337402344,0.04162585735321045,-0.04908677935600281
1732873145434511600,6.07851171875,-1.3652677536010742,0.2398759126663208,0.03250113129615784
1732873145444521500,6.088521484375,-1.189469337463379,0.32354581356048584,0.10795015096664429
1732873145454500900,6.0985009765625,-0.8356237411499023,0.35303664207458496,0.1275860071182251
1732873145464510500,6.108510498046875,-0.604191780090332,0.2850571870803833,0.24621443450450897
1732873145474520300,6.118520263671875,-0.6574544906616211,0.14940989017486572,0.4772142767906189
1732873145484530200,6.1285302734375,-0.8920402526855469,0.06085813045501709,0.5875734090805054
1732873145494509600,6.138509521484375,-1.1860456466674805,-0.031046271324157715,0.6098269820213318
1732873145504519200,6.148519287109375,-1.4926719665527344,-0.11165010929107666,0.3532405495643616
1732873145514528800,6.15852880859375,-1.604731559753418,-0.2945060729980469,-0.11277275532484055
1732873145524508200,6.168508056640625,-1.4869194030761719,-0.41497862339019775,-0.4977218508720398
1732873145534517800,6.178517822265625,-1.2638816833496094,-0.484295129776001,-0.6796683669090271
1732873145544527600,6.188527587890625,-0.9000244140625,-0.5605337023735046,-0.6414978504180908
1732873145554507000,6.198507080078125,-0.6738300323486328,-0.6367899179458618,-0.5079300403594971
1732873145564516600,6.2085166015625,-0.6668891906738281,-0.6827588677406311,-0.3048638105392456
1732873145574526500,6.2185263671875,-0.7089166641235352,-0.6112725734710693,-0.11014774441719055
1732873145584505900,6.228505859375,-0.3921346664428711,-0.6121248602867126,0.096973717212677
1732873145594515500,6.238515380859375,0.08703136444091797,-0.6963770389556885,0.18690672516822815
1732873145604525000,6.248525146484375,0.4723320007324219,-0.786572277545929,0.3219764828681946
1732873145614504400,6.25850439453125,0.6024885177612305,-0.7246398329734802,0.2008088231086731
1732873145624514000,6.26851416015625,0.6471977233886719,-0.6685621738433838,0.0031485259532928467
1732873145634524000,6.27852392578125,0.7051382064819336,-0.46437013149261475,-0.08841650187969208
1732873145644503300,6.28850341796875,0.7729978561401367,-0.3259603977203369,0.08604779094457626
1732873145654513000,6.298512939453125,0.3105745315551758,-0.1752490997314453,0.37656670808792114
1732873145664522800,6.308522705078125,-0.16927719116210938,0.03522801399230957,0.6645573377609253
1732873145674502100,6.318502197265625,-0.693507194519043,0.08447849750518799,0.9594960808753967
1732873145684511700,6.32851171875,-0.8371562957763672,0.1105770468711853,1.070613980293274
1732873145694521600,6.338521484375,-0.6699991226196289,0.16944611072540283,1.0368921756744385
1732873145704500700,6.348500732421875,-0.39571380615234375,0.10684138536453247,0.9494650959968567
1732873145714510300,6.35851025390625,0.011048316955566406,-0.048714399337768555,0.6018487215042114
1732873145724520200,6.368520263671875,0.44959354400634766,-0.11402326822280884,0.5581437945365906
1732873145734530000,6.378530029296875,0.7898902893066406,-0.17116236686706543,0.6511358618736267
1732873145744509400,6.388509521484375,0.8261756896972656,-0.19206053018569946,0.6427454948425293
1732873145754519000,6.39851904296875,0.7332925796508789,-0.09643703699111938,0.5720123648643494
1732873145764529000,6.40852880859375,0.49204444885253906,-0.09884822368621826,0.502579927444458
1732873145774508000,6.418508056640625,0.4775209426879883,-0.12114793062210083,0.15235742926597595
1732873145784518000,6.428517822265625,0.7158889770507812,0.02072155475616455,0.012279033660888672
1732873145794527700,6.43852783203125,0.9965286254882812,0.25215691328048706,-0.0999017059803009
1732873145804507000,6.4485068359375,1.3320589065551758,0.6149789094924927,-0.09784644842147827
1732873145814516500,6.4585166015625,1.361745834350586,0.9472746849060059,0.00561290979385376
1732873145824526300,6.4685263671875,0.9760341644287109,1.1004189252853394,0.051079392433166504
1732873145834505500,6.47850537109375,0.7443838119506836,1.0458940267562866,-0.1474406123161316
1732873145844515300,6.488515380859375,0.7190351486206055,0.666591465473175,-0.6580665111541748
1732873145854525200,6.498525146484375,0.9095373153686523,0.11193680763244629,-1.5518479347229004
1732873145864504600,6.508504638671875,1.0669422149658203,-0.03904533386230469,-2.5163302421569824
1732873145874514200,6.51851416015625,0.7914819717407227,0.17395830154418945,-3.216594934463501
1732873145884524000,6.52852392578125,-0.03645133972167969,0.49408185482025146,-3.4998035430908203
1732873145894503200,6.538503173828125,-1.260894775390625,1.0052268505096436,-3.5524730682373047
1732873145904513000,6.548512939453125,-2.625504970550537,1.4343541860580444,-3.587383270263672
1732873145914522600,6.558522705078125,-4.173367023468018,1.9153587818145752,-3.4606549739837646
1732873145924502000,6.568501953125,-5.048128128051758,2.367724657058716,-3.072479248046875
1732873145934511600,6.57851171875,-5.215137004852295,2.753786563873291,-2.265389919281006
1732873145944521500,6.588521484375,-4.641758441925049,2.9277713298797607,-1.617938756942749
1732873145954500900,6.5985009765625,-3.353689670562744,2.7604832649230957,-0.8957714438438416
1732873145964510500,6.608510498046875,-1.4344244003295898,2.3151793479919434,-0.39498674869537354
1732873145974520300,6.618520263671875,0.25756072998046875,1.7714698314666748,-0.34649771451950073
1732873145984530200,6.6285302734375,2.4183034896850586,0.9612150192260742,-0.7534908652305603
1732873145994509300,6.63850927734375,4.3066301345825195,0.19797730445861816,-1.5737097263336182
1732873146004519200,6.648519287109375,6.182153701782227,-0.42169833183288574,-2.577420711517334
1732873146014529000,6.658529052734375,6.81997013092041,-0.6355017423629761,-3.1804113388061523
1732873146024508000,6.6685078125,5.709230422973633,-0.5997273921966553,-3.23744535446167
1732873146034517800,6.678517822265625,3.4649229049682617,-0.24719956517219543,-2.774794816970825
1732873146044527600,6.688527587890625,0.8341913223266602,0.26140427589416504,-1.888751745223999
1732873146054507000,6.698507080078125,-1.1773748397827148,0.8009397983551025,-1.1730420589447021
1732873146064516600,6.7085166015625,-2.8597183227539062,1.4145622253417969,-0.732665479183197
1732873146074526500,6.7185263671875,-3.9689536094665527,1.8613500595092773,-0.4629063606262207
1732873146084505600,6.728505615234375,-4.499053478240967,2.0498766899108887,-0.32967451214790344
1732873146094515500,6.738515380859375,-4.653916358947754,2.1164326667785645,-0.25159868597984314
1732873146104525300,6.748525390625,-4.146828651428223,1.9487223625183105,-0.25454336404800415
1732873146114504400,6.75850439453125,-3.2964272499084473,1.6331632137298584,-0.3703152537345886
1732873146124514000,6.76851416015625,-2.4400992393493652,1.2793978452682495,-0.5059335827827454
1732873146134524000,6.77852392578125,-1.4697761535644531,0.9312472939491272,-0.6987836360931396
1732873146144503300,6.78850341796875,-0.6292839050292969,0.7205874919891357,-0.9114165306091309
1732873146154513000,6.798512939453125,0.18223857879638672,0.5668217539787292,-1.1540322303771973
1732873146164522800,6.808522705078125,0.6707115173339844,0.516879141330719,-1.0535345077514648
1732873146174502100,6.818502197265625,1.2123260498046875,0.5808045268058777,-1.0017991065979004
1732873146184511700,6.82851171875,1.2112979888916016,0.7349886894226074,-1.0624407529830933
1732873146194521600,6.838521484375,0.806584358215332,0.9423744082450867,-1.0123672485351562
1732873146204500700,6.848500732421875,0.2496786117553711,1.1441214084625244,-0.7777957320213318
1732873146214510300,6.85851025390625,-0.21511554718017578,1.3119761943817139,-0.38293135166168213
1732873146224520200,6.868520263671875,-0.39894771575927734,1.2899508476257324,0.17608022689819336
1732873146234530000,6.878530029296875,-0.2780933380126953,1.2809107303619385,0.4483370780944824
1732873146244509200,6.88850927734375,0.1304950714111328,1.1664562225341797,0.6801673173904419
1732873146254519000,6.89851904296875,0.4749116897583008,1.0230190753936768,0.7791461944580078
1732873146264529000,6.90852880859375,0.7718544006347656,0.9591041207313538,0.7067763805389404
1732873146274508300,6.91850830078125,0.9541873931884766,0.8790141940116882,0.5973950028419495
1732873146284518000,6.928517822265625,0.899688720703125,0.9886869788169861,0.3451564311981201
1732873146294527500,6.938527587890625,0.46238231658935547,1.0917813777923584,0.10952901840209961
1732873146304507000,6.9485068359375,0.07474803924560547,1.1790013313293457,-0.051026999950408936
1732873146314516500,6.9585166015625,-0.22315406799316406,0.8294857740402222,0.08471965789794922
1732873146324526300,6.9685263671875,0.05782890319824219,0.5755988359451294,0.1648789644241333
1732873146334505700,6.978505615234375,0.8810405731201172,-0.29039502143859863,0.3934651017189026
1732873146344515300,6.988515380859375,2.3931350708007812,-1.4235986471176147,0.621500551700592
1732873146354525200,6.998525146484375,5.081612586975098,-2.7602946758270264,-0.11790812015533447
1732873146364504600,7.008504638671875,7.323146820068359,-3.3954405784606934,-1.9327147006988525
1732873146374514200,7.01851416015625,8.325201988220215,-3.3126983642578125,-4.089575290679932
1732873146384524000,7.02852392578125,6.686261177062988,-2.892178535461426,-4.878629684448242
1732873146394503200,7.038503173828125,2.807098388671875,-2.2823433876037598,-4.313005447387695
1732873146404513000,7.048512939453125,-1.1391010284423828,-1.3787072896957397,-2.909304618835449
1732873146414523000,7.05852294921875,-4.153049468994141,-0.41112053394317627,-2.052309989929199
1732873146424502000,7.068501953125,-6.390812873840332,0.3757697343826294,-0.9560969471931458
1732873146434511600,7.07851171875,-6.869258880615234,0.7808483839035034,-0.04561901092529297
1732873146444521500,7.088521484375,-6.168664455413818,0.7025793790817261,0.360368013381958
1732873146454500900,7.0985009765625,-4.394400119781494,0.2930651903152466,0.20740652084350586
1732873146464510500,7.108510498046875,-1.8502521514892578,-0.2877453565597534,-0.22946107387542725
1732873146474520300,7.118520263671875,0.030099868774414062,-0.9837301969528198,-0.7811082005500793
1732873146484530200,7.1285302734375,1.8408746719360352,-1.575692057609558,-1.3936767578125
1732873146494509600,7.138509521484375,3.0521793365478516,-1.904621958732605,-1.707086205482483
1732873146504519200,7.148519287109375,3.562129020690918,-1.9946073293685913,-1.8942382335662842
1732873146514528800,7.15852880859375,3.2198963165283203,-1.8591394424438477,-1.9646672010421753
1732873146524508200,7.168508056640625,2.2649927139282227,-1.5719746351242065,-1.8131359815597534
1732873146534517800,7.178517822265625,0.8646774291992188,-1.1769018173217773,-1.6480977535247803
1732873146544527600,7.188527587890625,-0.20419692993164062,-0.8772045373916626,-1.3693289756774902
1732873146554507000,7.198507080078125,-1.0162925720214844,-0.44675326347351074,-1.1456331014633179
1732873146564516600,7.2085166015625,-1.564681053161621,-0.26887214183807373,-0.9726127982139587
1732873146574526500,7.2185263671875,-2.1222987174987793,-0.21098697185516357,-0.7638591527938843
1732873146584505900,7.228505859375,-2.370983123779297,-0.2654573917388916,-0.6151107549667358
1732873146594515500,7.238515380859375,-2.3495054244995117,-0.4871203899383545,-0.6083164811134338
1732873146604525000,7.248525146484375,-2.015589714050293,-0.6309771537780762,-0.6376358866691589
1732873146614504400,7.25850439453125,-1.5246458053588867,-0.7740576267242432,-0.8197157979011536
1732873146624514000,7.26851416015625,-1.0680465698242188,-0.9308908581733704,-1.0013480186462402
1732873146634524000,7.27852392578125,-0.7148675918579102,-1.0088974237442017,-1.0755529403686523
1732873146644503300,7.28850341796875,-0.4527463912963867,-1.0056298971176147,-0.8653512001037598
1732873146654513000,7.298512939453125,-0.3915224075317383,-1.0613385438919067,-0.6516801714897156
1732873146664522800,7.308522705078125,-0.3372964859008789,-1.1174910068511963,-0.4817650020122528
1732873146674502100,7.318502197265625,-0.23581218719482422,-1.096558928489685,-0.1759720742702484
1732873146684511700,7.32851171875,-0.10877323150634766,-1.036698579788208,-0.004583001136779785
1732873146694521600,7.338521484375,0.0823984146118164,-0.8959616422653198,0.0427761971950531
1732873146704500700,7.348500732421875,0.24394702911376953,-0.6437749862670898,0.07474067807197571
1732873146714510300,7.35851025390625,0.21230602264404297,-0.37191668152809143,-0.044543564319610596
1732873146724520200,7.368520263671875,0.16531944274902344,-0.09107893705368042,-0.22158223390579224
1732873146734530000,7.378530029296875,0.09193038940429688,0.10859423875808716,-0.40602099895477295
1732873146744509400,7.388509521484375,0.13279247283935547,0.05594277381896973,-0.4772649109363556
1732873146754519000,7.39851904296875,0.3792276382446289,-0.04198342561721802,-0.6438939571380615
1732873146764529000,7.40852880859375,0.5203695297241211,-0.09633201360702515,-1.0165826082229614
1732873146774508000,7.418508056640625,0.6564483642578125,-0.1462785005569458,-1.1688405275344849
1732873146784518000,7.428517822265625,0.6369667053222656,0.14353764057159424,-1.198279619216919
1732873146794527700,7.43852783203125,0.4645223617553711,0.6479624509811401,-0.9483689069747925
1732873146804507000,7.4485068359375,-0.1456441879272461,1.1327133178710938,-0.5023725032806396
1732873146814516500,7.4585166015625,-0.9323272705078125,1.4778497219085693,-0.11602155864238739
1732873146824526300,7.4685263671875,-0.9309492111206055,1.483218789100647,0.49628156423568726
1732873146834505500,7.47850537109375,-0.0066394805908203125,0.9950683116912842,0.5241941213607788
1732873146844515300,7.488515380859375,1.907191276550293,0.07445132732391357,-0.38934046030044556
1732873146854525200,7.498525146484375,3.7989273071289062,-0.9457074403762817,-1.4867007732391357
1732873146864504600,7.508504638671875,4.989684104919434,-1.2255793809890747,-2.3542251586914062
1732873146874514200,7.51851416015625,4.730777740478516,-0.915056049823761,-2.4780569076538086
1732873146884524000,7.52852392578125,2.8595590591430664,-0.2518965005874634,-2.183258533477783
1732873146894503200,7.538503173828125,0.6620512008666992,0.5245004892349243,-1.7197896242141724
1732873146904513000,7.548512939453125,-1.8240604400634766,1.516298532485962,-1.2595913410186768
1732873146914523000,7.55852294921875,-3.6603026390075684,2.353208065032959,-1.134879469871521
1732873146924502000,7.568501953125,-4.914132595062256,3.1140143871307373,-1.303200364112854
1732873146934511600,7.57851171875,-5.528745651245117,3.716134548187256,-1.7783914804458618
1732873146944521500,7.588521484375,-5.684529781341553,4.105908393859863,-2.2802271842956543
1732873146954500900,7.5985009765625,-5.114078044891357,4.090753555297852,-2.5291643142700195
1732873146964510500,7.608510498046875,-3.6583123207092285,3.7487874031066895,-2.6168036460876465
1732873146974520300,7.618520263671875,-1.5982170104980469,3.086869716644287,-2.377551555633545
1732873146984530200,7.6285302734375,0.25091075897216797,2.422929286956787,-1.944900393486023
1732873146994509300,7.63850927734375,2.373642921447754,1.6484476327896118,-1.526979684829712
1732873147004519200,7.648519287109375,3.9469356536865234,1.0157450437545776,-1.2467315196990967
1732873147014529000,7.658529052734375,4.9422197341918945,0.38223662972450256,-1.4480772018432617
1732873147024508000,7.6685078125,5.244263648986816,0.09164190292358398,-1.7167619466781616
1732873147034517800,7.678517822265625,4.847626686096191,0.03882673382759094,-1.9756217002868652
1732873147044527600,7.688527587890625,3.681912422180176,0.1939832717180252,-2.1089859008789062
1732873147054507000,7.698507080078125,1.9506778717041016,0.4738732576370239,-1.801763653755188
1732873147064516600,7.7085166015625,0.32701778411865234,0.8846555948257446,-1.2246110439300537
1732873147074526500,7.7185263671875,-1.4065179824829102,1.414718747138977,-0.6931657195091248
1732873147084505600,7.728505615234375,-2.8690085411071777,1.9280508756637573,-0.381913959980011
1732873147094515500,7.738515380859375,-3.897606372833252,2.255634069442749,-0.09472872316837311
1732873147104525300,7.748525390625,-4.786949634552002,2.5183753967285156,0.13599514961242676
1732873147114504400,7.75850439453125,-5.14488410949707,2.714353322982788,0.063418909907341
1732873147124514000,7.76851416015625,-5.036252975463867,2.760540723800659,-0.19924035668373108
1732873147134524000,7.77852392578125,-4.628836154937744,2.6770153045654297,-0.5086425542831421
1732873147144503300,7.78850341796875,-3.8317246437072754,2.394918918609619,-0.7141292691230774
1732873147154513000,7.798512939453125,-2.795689582824707,2.069390296936035,-0.8757063150405884
1732873147164522800,7.808522705078125,-1.3433914184570312,1.8127989768981934,-1.1058828830718994
1732873147174502100,7.818502197265625,0.00820159912109375,1.6312979459762573,-1.321419596672058
1732873147184511700,7.82851171875,1.345499038696289,1.5144157409667969,-1.5103840827941895
1732873147194521600,7.838521484375,2.103684425354004,1.3191640377044678,-1.512041687965393
1732873147204500700,7.848500732421875,2.522191047668457,1.234826922416687,-1.4890968799591064
1732873147214510300,7.85851025390625,2.6392269134521484,1.2868112325668335,-1.34115469455719
1732873147224520200,7.868520263671875,2.198545455932617,1.3884621858596802,-1.0443143844604492
1732873147234530000,7.878530029296875,1.4131097793579102,1.5311847925186157,-0.6144153475761414
1732873147244509200,7.88850927734375,0.7857236862182617,1.7246416807174683,-0.13411760330200195
1732873147254519000,7.89851904296875,0.24702835083007812,1.8387744426727295,0.1715615689754486
1732873147264529000,7.90852880859375,-0.009039878845214844,1.8494476079940796,0.3003953695297241
1732873147274508300,7.91850830078125,-0.09732246398925781,1.7085704803466797,0.3290397524833679
1732873147284518000,7.928517822265625,-0.06337451934814453,1.5384857654571533,0.3111005127429962
1732873147294527500,7.938527587890625,0.06884193420410156,1.6219193935394287,0.548021137714386
1732873147304507000,7.9485068359375,0.2131214141845703,1.5613596439361572,0.23210874199867249
1732873147314516500,7.9585166015625,-0.0034809112548828125,1.1479310989379883,-0.12735211849212646
1732873147324526300,7.9685263671875,-0.1597270965576172,1.2860620021820068,-0.020266469568014145
1732873147334505700,7.978505615234375,0.12121009826660156,1.2230801582336426,0.9066227674484253
1732873147344515300,7.988515380859375,0.7454071044921875,0.6972328424453735,2.4616177082061768
1732873147354525200,7.998525146484375,1.7997655868530273,-0.16786032915115356,3.8154022693634033
1732873147364504600,8.008504638671875,3.3853683471679688,-1.1203341484069824,3.7011590003967285
1732873147374514200,8.01851416015625,4.729702949523926,-1.7421619892120361,2.7928545475006104
1732873147384524000,8.02852392578125,5.675658226013184,-2.1377151012420654,0.8142284154891968
1732873147394503200,8.038503173828126,5.440583229064941,-2.0390689373016357,-1.459947943687439
1732873147404513000,8.048512939453126,3.633877754211426,-1.8390867710113525,-3.4713473320007324
1732873147414523000,8.05852294921875,0.7413005828857422,-1.167633295059204,-4.347257614135742
1732873147424502000,8.068501953125,-2.2115912437438965,-0.5124692916870117,-4.359740257263184
1732873147434511600,8.07851171875,-5.166564464569092,0.4278181195259094,-4.2030253410339355
1732873147444521500,8.088521484375,-7.04014778137207,1.2086944580078125,-4.159371376037598
1732873147454500900,8.0985009765625,-7.825413227081299,1.6786092519760132,-3.517256259918213
1732873147464510500,8.108510498046876,-7.001282691955566,1.6129003763198853,-2.5968384742736816
1732873147474520300,8.118520263671876,-4.8043646812438965,1.043400526046753,-2.55403208732605
1732873147484530200,8.1285302734375,-2.4484119415283203,0.6911317110061646,-2.4130403995513916
1732873147494509600,8.138509521484375,0.46051597595214844,0.30001598596572876,-1.3382014036178589
1732873147504519200,8.148519287109375,2.3499135971069336,-0.06469035148620605,-1.7981449365615845
1732873147514528800,8.15852880859375,3.7313432693481445,-0.4562930762767792,-2.1197762489318848
1732873147524508200,8.168508056640626,4.327842712402344,-0.7260098457336426,-1.9756934642791748
1732873147534517800,8.178517822265626,4.263769149780273,-0.7623588442802429,-1.7869319915771484
1732873147544527600,8.188527587890626,3.3375654220581055,-0.659808874130249,-1.8023409843444824
1732873147554507000,8.198507080078125,2.102201461791992,-0.5608088970184326,-1.9230597019195557
1732873147564516600,8.2085166015625,0.8628768920898438,-0.48040109872817993,-2.187859535217285
1732873147574526500,8.2185263671875,0.11964988708496094,-0.43283945322036743,-2.223989486694336
1732873147584505900,8.228505859375,-0.2737894058227539,-0.3113214671611786,-1.8432832956314087
1732873147594515500,8.238515380859376,-0.3295631408691406,-0.24734583497047424,-1.3132604360580444
1732873147604525000,8.248525146484376,-0.043117523193359375,-0.2189914584159851,-0.3652724027633667
1732873147614504400,8.25850439453125,0.2316274642944336,-0.26151156425476074,0.37743812799453735
1732873147624514000,8.26851416015625,-0.0603790283203125,-0.24776318669319153,0.8912443518638611
1732873147634524000,8.27852392578125,-0.6531867980957031,-0.20777809619903564,1.122220516204834
1732873147644503300,8.28850341796875,-1.0613231658935547,-0.20906120538711548,1.1955852508544922
1732873147654513000,8.298512939453126,-1.342153549194336,-0.2221396565437317,1.220389485359192
1732873147664522800,8.308522705078126,-1.3189773559570312,-0.1919979453086853,1.1876919269561768
1732873147674502100,8.318502197265625,-0.9361248016357422,-0.14061260223388672,1.3810011148452759
1732873147684511700,8.32851171875,-0.41170501708984375,-0.47362959384918213,1.7415428161621094
1732873147694521600,8.338521484375,-0.2335824966430664,-0.6722529530525208,1.662859320640564
1732873147704500700,8.348500732421876,-0.20889854431152344,-0.8635997772216797,1.5148742198944092
1732873147714510300,8.35851025390625,-0.18646240234375,-1.0381274223327637,1.3167141675949097
1732873147724520200,8.368520263671876,0.029949188232421875,-1.1811484098434448,1.136289358139038
1732873147734530000,8.378530029296876,0.3061819076538086,-1.2551240921020508,1.0030584335327148
1732873147744509400,8.388509521484375,0.34095287322998047,-1.4061825275421143,1.0425032377243042
1732873147754519000,8.39851904296875,0.5847558975219727,-1.2415331602096558,1.0405423641204834
1732873147764529000,8.40852880859375,0.6328706741333008,-0.9865525364875793,1.0497528314590454
1732873147774508000,8.418508056640626,0.4183788299560547,-0.9390497803688049,1.2151821851730347
1732873147784518000,8.428517822265626,0.0822916030883789,-0.924863874912262,1.1399625539779663
1732873147794527700,8.43852783203125,-0.43791866302490234,-0.9315464496612549,0.7224621772766113
1732873147804507000,8.4485068359375,-1.1402835845947266,-0.9246302247047424,0.025639206171035767
1732873147814516500,8.4585166015625,-1.3571319580078125,-0.9193637371063232,-0.36713579297065735
1732873147824526300,8.4685263671875,-1.679656982421875,-0.713860034942627,-1.0731360912322998
1732873147834505500,8.47850537109375,-1.4428482055664062,-0.39506012201309204,-1.3854384422302246
1732873147844515300,8.488515380859376,-0.674168586730957,-0.002307295799255371,-1.4348796606063843
1732873147854525200,8.498525146484376,0.0197601318359375,0.4935058355331421,-1.2008482217788696
1732873147864504600,8.508504638671875,0.2491893768310547,0.8921279907226562,-1.066665530204773
1732873147874514200,8.51851416015625,0.2508068084716797,1.0829870700836182,-0.7220844030380249
1732873147884524000,8.52852392578125,-0.07323074340820312,1.1672122478485107,-0.6293474435806274
1732873147894503200,8.538503173828126,-0.4952249526977539,1.0543862581253052,-0.8311830759048462
1732873147904513000,8.548512939453126,-1.0273723602294922,0.7305012941360474,-1.3024249076843262
1732873147914523000,8.55852294921875,-1.4833478927612305,0.3457765579223633,-2.00604510307312
1732873147924502000,8.568501953125,-1.234116554260254,0.35654330253601074,-2.1733484268188477
1732873147934511600,8.57851171875,-0.9760751724243164,0.15458786487579346,-2.6680655479431152
1732873147944521500,8.588521484375,-0.7038717269897461,0.06133890151977539,-3.0003914833068848
1732873147954500900,8.5985009765625,-0.7282114028930664,0.16797947883605957,-3.2946841716766357
1732873147964510500,8.608510498046876,-0.7017374038696289,0.1245279312133789,-3.1571621894836426
1732873147974520300,8.618520263671876,-0.6676740646362305,0.1703336238861084,-2.782395601272583
1732873147984530200,8.6285302734375,-0.7579383850097656,0.3900085687637329,-2.1761558055877686
1732873147994509300,8.63850927734375,-0.8315286636352539,0.5655145049095154,-1.7027323246002197
1732873148004519200,8.648519287109375,-0.9171361923217773,0.8092705607414246,-1.2245731353759766
1732873148014529000,8.658529052734375,-0.9669675827026367,1.1157350540161133,-1.241837501525879
1732873148024508000,8.6685078125,-0.8900794982910156,1.062092900276184,-1.2775624990463257
1732873148034517800,8.678517822265626,-0.40154552459716797,1.0848119258880615,-1.2890665531158447
1732873148044527600,8.688527587890626,0.22340106964111328,1.0036941766738892,-1.2270690202713013
1732873148054507000,8.698507080078125,0.5323495864868164,0.8590598106384277,-1.308550238609314
1732873148064516600,8.7085166015625,0.702672004699707,0.7573113441467285,-1.229515552520752
1732873148074526500,8.7185263671875,0.7696084976196289,0.644727349281311,-1.201795220375061
1732873148084505600,8.728505615234376,0.7051353454589844,0.4827454090118408,-1.3764816522598267
1732873148094515500,8.738515380859376,0.6006402969360352,0.4040508270263672,-1.3567789793014526
1732873148104525300,8.748525390625,0.29830169677734375,0.3198719024658203,-1.385051965713501
1732873148114504400,8.75850439453125,-0.18761157989501953,0.044875144958496094,-1.4503637552261353
1732873148124514000,8.76851416015625,-0.3953227996826172,-0.09244334697723389,-1.4034333229064941
1732873148134524000,8.77852392578125,-0.3757820129394531,-0.1666642427444458,-1.3027169704437256
1732873148144503300,8.78850341796875,-0.3573150634765625,-0.11259770393371582,-1.1025975942611694
1732873148154513000,8.798512939453126,-0.4639902114868164,-0.13839727640151978,-1.0986380577087402
1732873148164522800,8.808522705078126,-0.5471925735473633,-0.061016857624053955,-1.1999317407608032
1732873148174502100,8.818502197265625,-0.6692113876342773,0.1732848882675171,-1.397057294845581
1732873148184511700,8.82851171875,-0.4518575668334961,0.3560025691986084,-1.3406325578689575
1732873148194521600,8.838521484375,0.07128047943115234,0.26987576484680176,-0.8634942770004272
1732873148204500700,8.848500732421876,1.9369878768920898,-0.08661633729934692,0.6552998423576355
1732873148214510300,8.85851025390625,2.0363197326660156,0.05430611968040466,0.015010371804237366
1732873148224520200,8.868520263671876,1.8471546173095703,0.04775354266166687,-0.516531765460968
1732873148234530000,8.878530029296876,1.5896186828613281,-0.07722398638725281,-0.6730013489723206
1732873148244509400,8.888509521484375,1.2562675476074219,-0.3030843734741211,-1.0097967386245728
1732873148254519000,8.89851904296875,1.2298650741577148,-0.5079934597015381,-1.6175748109817505
1732873148264529000,8.90852880859375,1.471785545349121,-0.9140950441360474,-2.1689929962158203
1732873148274508300,8.91850830078125,1.8334569931030273,-1.134369969367981,-2.504242420196533
1732873148284518000,8.928517822265626,2.192808151245117,-1.1920747756958008,-2.5539307594299316
1732873148294527500,8.938527587890626,2.202983856201172,-1.2219074964523315,-2.3918192386627197
1732873148304507000,8.9485068359375,2.072384834289551,-1.1889853477478027,-1.8547669649124146
1732873148314516500,8.9585166015625,1.7101364135742188,-0.964685320854187,-1.2497508525848389
1732873148324526300,8.9685263671875,1.1737947463989258,-0.7454347014427185,-0.8657249808311462
1732873148334505700,8.978505615234376,0.41317176818847656,-0.43944424390792847,-0.4680052399635315
1732873148344515300,8.988515380859376,-0.23894786834716797,-0.11327129602432251,-0.1459321528673172
1732873148354525200,8.998525146484376,-0.9502058029174805,0.0585823655128479,0.433951199054718
1732873148364504600,9.008504638671875,-1.44085693359375,0.15612298250198364,0.8088362216949463
1732873148374514200,9.01851416015625,-2.149380683898926,0.2059977650642395,1.0126374959945679
1732873148384524000,9.02852392578125,-2.602168083190918,0.06495463848114014,1.2560964822769165
1732873148394503200,9.038503173828126,-2.5916123390197754,-0.23728781938552856,1.2331560850143433
1732873148404513000,9.048512939453126,-2.194692611694336,-0.4416002035140991,0.6798503398895264
1732873148414523000,9.05852294921875,-1.763444423675537,-0.48914867639541626,0.009049421176314354
1732873148424502000,9.068501953125,-1.4077892303466797,-0.516018271446228,-0.5616856217384338
1732873148434511600,9.07851171875,-1.0801820755004883,-0.4786279499530792,-0.5413639545440674
1732873148444521500,9.088521484375,-0.8848581314086914,-0.39512941241264343,-0.3195575177669525
1732873148454500900,9.0985009765625,-0.8908061981201172,-0.21165263652801514,-0.1359526515007019
1732873148464510500,9.108510498046876,-0.7482624053955078,0.21402990818023682,-0.2129148244857788
1732873148474520300,9.118520263671876,-0.7302303314208984,0.38976627588272095,0.19707933068275452
1732873148484530200,9.1285302734375,-0.9084339141845703,0.8520053625106812,0.7478556036949158
1732873148494509300,9.13850927734375,-0.7155618667602539,1.110640048980713,0.7163913249969482
1732873148504519200,9.148519287109375,-0.19950389862060547,1.1143875122070312,0.3768868148326874
1732873148514529000,9.158529052734375,0.4073648452758789,1.1636170148849487,0.1583137810230255
1732873148524508000,9.1685078125,0.9642581939697266,1.2871235609054565,0.03740159422159195
1732873148534517800,9.178517822265626,1.535689353942871,1.2801882028579712,-0.00194484181702137
1732873148544527600,9.188527587890626,1.9593467712402344,1.3562266826629639,-0.35169821977615356
1732873148554507000,9.198507080078125,2.3383445739746094,1.3131201267242432,-0.7949122190475464
1732873148564516600,9.2085166015625,2.7467193603515625,1.3296465873718262,-0.938227117061615
1732873148574526500,9.2185263671875,2.8994827270507812,1.4103745222091675,-0.959336519241333
1732873148584505600,9.228505615234376,2.820420265197754,1.5567104816436768,-0.8551360368728638
1732873148594515500,9.238515380859376,2.4159374237060547,1.7186881303787231,-0.7127711772918701
1732873148604525300,9.248525390625,1.769704818725586,1.7746700048446655,-0.6168344616889954
1732873148614504400,9.25850439453125,0.8888368606567383,1.7437505722045898,-0.44216305017471313
1732873148624514000,9.26851416015625,0.2473773956298828,1.7552168369293213,-0.5493056774139404
1732873148634524000,9.27852392578125,-0.08525371551513672,1.6654738187789917,-0.6508364677429199
1732873148644503300,9.28850341796875,-0.08990669250488281,1.3769946098327637,-0.47574901580810547
1732873148654513000,9.298512939453126,0.17835330963134766,1.1223952770233154,-0.1099083200097084
1732873148664522800,9.308522705078126,0.3533048629760742,0.8179173469543457,0.13548630475997925
1732873148674502100,9.318502197265625,0.0423583984375,0.637778639793396,0.20766028761863708
1732873148684511700,9.32851171875,-0.5845127105712891,0.603365421295166,0.6920498013496399
1732873148694521600,9.338521484375,-1.1969327926635742,0.48243448138237,0.8262584209442139
1732873148704500700,9.348500732421876,-1.7639331817626953,0.42747730016708374,0.8291118144989014
1732873148714510300,9.35851025390625,-2.3501625061035156,0.3495100140571594,0.3449980616569519
1732873148724520200,9.368520263671876,-2.6109061241149902,0.3307821750640869,0.560153603553772
1732873148734530000,9.378530029296876,-2.7068166732788086,0.41799211502075195,0.7179216146469116
1732873148744509400,9.388509521484375,-2.494169235229492,0.5825165510177612,1.1194496154785156
1732873148754519000,9.39851904296875,-1.8483777046203613,0.5122936964035034,1.7153079509735107
1732873148764529000,9.40852880859375,-0.9368324279785156,0.31402572989463806,1.9555765390396118
1732873148774508300,9.41850830078125,0.06599140167236328,0.26944395899772644,1.6785545349121094
1732873148784518000,9.428517822265626,0.9711637496948242,0.5454745292663574,1.5967864990234375
1732873148794527500,9.438527587890626,1.3907432556152344,0.459688663482666,1.2575565576553345
1732873148804507000,9.4485068359375,1.1015348434448242,-0.058653295040130615,0.5789695382118225
1732873148814516500,9.4585166015625,0.6254348754882812,-0.15072107315063477,-0.13495826721191406
1732873148824526300,9.4685263671875,0.5371179580688477,-0.2923036515712738,-0.6495260000228882
1732873148834505700,9.478505615234376,0.40085792541503906,-0.7156192660331726,-1.4784764051437378
1732873148844515300,9.488515380859376,0.5207576751708984,-1.0035505294799805,-2.314922332763672
1732873148854525200,9.498525146484376,1.2632312774658203,-1.0349764823913574,-2.2410826683044434
1732873148864504600,9.508504638671875,2.1160173416137695,-1.0114730596542358,-1.5148564577102661
1732873148874514200,9.51851416015625,2.415618896484375,-0.7643777132034302,-0.9239439368247986
1732873148884524000,9.52852392578125,2.058988571166992,-0.5717343091964722,-0.25594836473464966
1732873148894503400,9.53850341796875,1.1945056915283203,-0.3661259710788727,-0.17797833681106567
1732873148904513000,9.548512939453126,-0.019666671752929688,-0.2869669795036316,-0.4827311635017395
1732873148914523000,9.55852294921875,-1.085226058959961,-0.12780985236167908,-1.003504753112793
1732873148924502000,9.568501953125,-1.817577838897705,-0.18648339807987213,-1.3482794761657715
1732873148934511600,9.57851171875,-2.3604207038879395,-0.6241021752357483,-1.132749319076538
1732873148944521500,9.588521484375,-2.2950077056884766,-0.6787887215614319,-1.009295105934143
1732873148954500900,9.5985009765625,-1.2505064010620117,-0.17552487552165985,-0.6210525035858154
1732873148964510500,9.608510498046876,-0.35224151611328125,0.3045938014984131,-0.1989338994026184
1732873148974520300,9.618520263671876,-0.1794891357421875,0.5960435271263123,-0.14497148990631104
1732873148984530200,9.6285302734375,-0.5644388198852539,0.9018071889877319,-0.10899481177330017
1732873148994509300,9.63850927734375,-1.4877080917358398,1.139561653137207,-0.1074097752571106
1732873149004519200,9.648519287109375,-2.0946717262268066,1.459425687789917,-0.05278843641281128
1732873149014529000,9.658529052734375,-2.1123690605163574,1.9539730548858643,-0.028243452310562134
1732873149024508000,9.6685078125,-2.1540474891662598,1.9316627979278564,-0.3127572536468506
1732873149034517800,9.678517822265626,-1.6240320205688477,1.928499460220337,-0.3390914797782898
1732873149044527600,9.688527587890626,-0.8890113830566406,1.6305980682373047,-0.7816979289054871
1732873149054507000,9.698507080078125,0.8890857696533203,1.3342788219451904,-0.5658502578735352
1732873149064516600,9.7085166015625,2.573489189147949,0.6548261642456055,-0.11679458618164062
1732873149074526500,9.7185263671875,3.7983570098876953,0.20419612526893616,-0.048088908195495605
1732873149084505600,9.728505615234376,4.92325496673584,-0.06663757562637329,-0.25624555349349976
1732873149094515500,9.738515380859376,5.81899356842041,-0.08467471599578857,-0.45122626423835754
1732873149104525300,9.748525390625,6.099648475646973,0.0905027836561203,-0.5894994735717773
1732873149114504400,9.75850439453125,5.139833450317383,0.3291722536087036,-0.41922253370285034
1732873149124514000,9.76851416015625,3.061408042907715,0.6030863523483276,-0.2045283019542694
1732873149134524000,9.77852392578125,1.0881175994873047,0.8586089015007019,-0.18074023723602295
1732873149144503300,9.78850341796875,-0.31734657287597656,1.219812035560608,-0.2621303200721741
1732873149154513000,9.798512939453126,-1.444411277770996,1.0499036312103271,-0.4585956633090973
1732873149164522800,9.808522705078126,-2.216716766357422,0.9222005009651184,-0.7866529822349548
1732873149174502100,9.818502197265625,-2.488654136657715,0.8483294248580933,-0.9387069344520569
1732873149184511700,9.82851171875,-2.535332679748535,0.6508616805076599,-0.960065484046936
1732873149194521600,9.838521484375,-2.543246269226074,0.47323358058929443,-1.1052651405334473
1732873149204500700,9.848500732421876,-2.5320005416870117,0.3768835663795471,-1.1961098909378052
1732873149214510300,9.85851025390625,-2.508823871612549,0.24480822682380676,-1.2299219369888306
1732873149224520200,9.868520263671876,-2.375504493713379,0.18580633401870728,-1.3145569562911987
1732873149234530000,9.878530029296876,-1.9981088638305664,0.14309364557266235,-1.3523727655410767
1732873149244509400,9.888509521484375,-1.501805305480957,0.06157881021499634,-1.391090750694275
1732873149254519000,9.89851904296875,-0.9774532318115234,-0.21446257829666138,-1.3999375104904175
1732873149264529000,9.90852880859375,-0.5470809936523438,-0.4734855890274048,-1.4322597980499268
1732873149274508300,9.91850830078125,0.08638286590576172,-0.7245473265647888,-1.6090656518936157
1732873149284518000,9.928517822265626,0.8538064956665039,-0.9315289258956909,-1.8418562412261963
1732873149294527500,9.938527587890626,1.4371070861816406,-0.9955233335494995,-2.0330288410186768
1732873149304507000,9.9485068359375,1.6857233047485352,-1.0453999042510986,-2.0748770236968994
1732873149314516500,9.9585166015625,1.514068603515625,-0.975045382976532,-1.9959203004837036
1732873149324526300,9.9685263671875,1.2545909881591797,-0.7935920357704163,-1.804339051246643
1732873149334505700,9.978505615234376,1.043670654296875,-0.59462571144104,-1.618780493736267
1732873149344515300,9.988515380859376,0.572300910949707,-0.4541618227958679,-1.412274956703186
1732873149354525200,9.998525146484376,0.14452743530273438,-0.4217531681060791,-1.148382306098938
1732873149364504600,10.008504638671875,-0.40015602111816406,-0.4135156273841858,-0.9041107296943665
1732873149374514200,10.01851416015625,-0.9157514572143555,-0.46153074502944946,-0.7132777571678162
1732873149384524000,10.02852392578125,-1.1223154067993164,-0.5804002285003662,-0.4751497805118561
1732873149394503400,10.03850341796875,-1.2858619689941406,-0.5021129250526428,-0.402164101600647
1732873149404513000,10.048512939453126,-1.488046646118164,-0.4638516902923584,-0.34266889095306396
1732873149414523000,10.05852294921875,-1.5255193710327148,-0.21962517499923706,0.07801249623298645
1732873149424502000,10.068501953125,-1.7166566848754883,-0.12992393970489502,0.4088656008243561
1732873149434511600,10.07851171875,-1.8398160934448242,0.005362749099731445,0.4734828472137451
1732873149444521500,10.088521484375,-1.7512140274047852,-0.06445127725601196,0.3565206527709961
1732873149454500900,10.0985009765625,-1.3744525909423828,-0.23651617765426636,0.21981240808963776
1732873149464510500,10.108510498046876,-0.76287841796875,-0.23615241050720215,0.2631698250770569
1732873149474520300,10.118520263671876,0.05366325378417969,-0.24972593784332275,0.5781149864196777
1732873149484530200,10.1285302734375,0.9490909576416016,-0.24125796556472778,1.0053715705871582
1732873149494509300,10.13850927734375,1.7300643920898438,-0.0069609880447387695,1.310425043106079
1732873149504519200,10.148519287109375,2.188741683959961,0.30539554357528687,1.540327787399292
1732873149514529000,10.158529052734375,2.200704574584961,0.6741749048233032,1.7071640491485596
1732873149524508000,10.1685078125,1.6820611953735352,1.1913695335388184,1.6348024606704712
1732873149534517800,10.178517822265626,0.8223476409912109,1.7197352647781372,1.5819061994552612
1732873149544527600,10.188527587890626,-0.4556884765625,2.0120322704315186,1.7119669914245605
1732873149554507000,10.198507080078125,-1.3670663833618164,2.3863792419433594,1.5718103647232056
1732873149564516600,10.2085166015625,-1.9864163398742676,2.628793239593506,1.3722622394561768
1732873149574526500,10.2185263671875,-1.9240727424621582,2.414735794067383,1.4285506010055542
1732873149584505600,10.228505615234376,-1.132369041442871,1.9711397886276245,1.7062351703643799
1732873149594515500,10.238515380859376,0.21602439880371094,1.7106597423553467,1.9689971208572388
1732873149604525300,10.248525390625,1.549489974975586,1.194684624671936,2.02052903175354
1732873149614504400,10.25850439453125,3.3279857635498047,1.0403854846954346,2.1062395572662354
1732873149624514000,10.26851416015625,4.496578216552734,0.9438903331756592,1.7938934564590454
1732873149634524000,10.27852392578125,4.7702836990356445,0.9453749656677246,1.4749888181686401
1732873149644503300,10.28850341796875,3.8018798828125,0.8967328071594238,1.414219856262207
1732873149654513000,10.298512939453126,1.9480667114257812,0.9695961475372314,1.3706367015838623
1732873149664522800,10.308522705078126,0.33914661407470703,1.0288231372833252,1.3325977325439453
1732873149674502100,10.318502197265625,-1.0462722778320312,1.0025131702423096,1.3181294202804565
1732873149684511700,10.32851171875,-1.7845516204833984,0.924488365650177,1.2945774793624878
1732873149694521600,10.338521484375,-2.4410839080810547,0.8958286046981812,0.8808668851852417
1732873149704500700,10.348500732421876,-2.7837929725646973,0.8391543626785278,0.6182670593261719
1732873149714510300,10.35851025390625,-2.7650461196899414,0.7645702958106995,0.6780753135681152
1732873149724520200,10.368520263671876,-2.4665093421936035,0.7986361980438232,0.8325826525688171
1732873149734530000,10.378530029296876,-2.213764190673828,0.9260035753250122,0.7998598217964172
1732873149744509400,10.388509521484375,-2.090468406677246,0.9877044558525085,0.9144511222839355
1732873149754519000,10.39851904296875,-2.063053607940674,0.9838848114013672,1.0049430131912231
1732873149764529000,10.40852880859375,-2.0452632904052734,0.9886912107467651,1.009508728981018
1732873149774508300,10.41850830078125,-1.9461655616760254,0.9026456475257874,1.0843675136566162
1732873149784518000,10.428517822265626,-1.526444435119629,0.8714200854301453,1.0577119588851929
1732873149794527500,10.438527587890626,-1.2314767837524414,0.8409379720687866,0.9272861480712891
1732873149804507000,10.4485068359375,-0.7740697860717773,0.6884955763816833,0.8593144416809082
1732873149814516500,10.4585166015625,-0.42236900329589844,0.5520983934402466,0.7402341961860657
1732873149824526300,10.4685263671875,0.13246726989746094,0.3113445043563843,0.6213711500167847
1732873149834505700,10.478505615234376,0.7467803955078125,0.16310155391693115,0.4520268142223358
1732873149844515300,10.488515380859376,1.0067367553710938,0.3883495330810547,-0.11406353116035461
1732873149854525200,10.498525146484376,1.3120231628417969,-0.0467187762260437,-0.008624032139778137
1732873149864504600,10.508504638671875,1.3046464920043945,-0.018934130668640137,-0.22226007282733917
1732873149874514200,10.51851416015625,0.8339109420776367,0.30933094024658203,-0.6374066472053528
1732873149884524000,10.52852392578125,-0.38283348083496094,0.2871083617210388,-0.8703897595405579
1732873149894503400,10.53850341796875,-1.9285392761230469,0.2700708508491516,-0.9281466007232666
1732873149904513000,10.548512939453126,-3.0834388732910156,0.15810024738311768,-1.1374729871749878
1732873149914523000,10.55852294921875,-3.671980381011963,-0.18630146980285645,-1.590818166732788
1732873149924502000,10.568501953125,-3.216607093811035,-0.5340925455093384,-1.8086615800857544
1732873149934511600,10.57851171875,-1.308751106262207,-0.6695694923400879,-1.4815157651901245
1732873149944521500,10.588521484375,0.8642377853393555,-0.7911887168884277,-0.9813404083251953
1732873149954500900,10.5985009765625,2.7961645126342773,-0.5589096546173096,-0.32736366987228394
1732873149964510500,10.608510498046876,3.7371349334716797,-0.12820494174957275,0.11275182664394379
1732873149974520300,10.618520263671876,3.603390693664551,0.40053921937942505,0.6234889626502991
1732873149984530200,10.6285302734375,2.253485679626465,0.640906035900116,0.9370791912078857
1732873149994509300,10.63850927734375,0.7835149765014648,0.8084644675254822,0.9588010311126709
1732873150004519200,10.648519287109375,-0.49608421325683594,1.1463241577148438,0.5720338821411133
1732873150014529000,10.658529052734375,-1.1409940719604492,1.20377779006958,0.11988110095262527
1732873150024508000,10.6685078125,-1.276601791381836,1.016474962234497,-0.17892390489578247
1732873150034517800,10.678517822265626,-0.8364391326904297,0.8239962458610535,-0.415874183177948
1732873150044527600,10.688527587890626,0.1509857177734375,0.5617204308509827,-0.6577048897743225
1732873150054507000,10.698507080078125,1.1837778091430664,0.221052885055542,-0.7133142352104187
1732873150064516600,10.7085166015625,2.6421728134155273,0.3238477110862732,-0.2852235436439514
1732873150074526500,10.7185263671875,4.186911582946777,0.3963460326194763,0.05459323525428772
1732873150084505600,10.728505615234376,5.057244300842285,0.488999605178833,0.2794184684753418
1732873150094515500,10.738515380859376,5.124300003051758,0.5846210718154907,0.48995068669319153
1732873150104525300,10.748525390625,4.247006416320801,0.6656839847564697,0.6321612596511841
1732873150114504400,10.75850439453125,2.6146297454833984,0.7434839010238647,0.6739535331726074
1732873150124514000,10.76851416015625,0.9414358139038086,0.8233474493026733,0.37344247102737427
1732873150134524000,10.77852392578125,-0.8426532745361328,0.846458911895752,-0.16813060641288757
1732873150144503300,10.78850341796875,-1.9263811111450195,0.8882665634155273,-0.666332483291626
1732873150154513000,10.798512939453126,-2.698239803314209,0.8710869550704956,-0.9715259671211243
1732873150164522800,10.808522705078126,-3.0153112411499023,0.7974963784217834,-0.9863290786743164
1732873150174502100,10.818502197265625,-3.038588523864746,0.5845004916191101,-0.9680777788162231
1732873150184511700,10.82851171875,-2.4404702186584473,0.19500648975372314,-0.6551336646080017
1732873150194521600,10.838521484375,-1.3783512115478516,-0.16455256938934326,-0.3819270730018616
1732873150204500700,10.848500732421876,-0.08565711975097656,-0.41629642248153687,-0.3822636008262634
1732873150214510300,10.85851025390625,0.7731761932373047,-0.6814641356468201,-0.44822657108306885
1732873150224520200,10.868520263671876,1.1536054611206055,-0.9265837073326111,-0.5701040029525757
1732873150234530000,10.878530029296876,1.0539112091064453,-1.0653389692306519,-0.5977113246917725
1732873150244509400,10.888509521484375,0.45737266540527344,-0.9829592704772949,-0.8915226459503174
1732873150254519000,10.89851904296875,-0.45598411560058594,-0.8558499813079834,-1.1308146715164185
1732873150264529000,10.90852880859375,-1.3505859375,-0.6861107349395752,-1.306926965713501
1732873150274508300,10.91850830078125,-1.7777485847473145,-0.5499297976493835,-1.5077763795852661
1732873150284518000,10.928517822265626,-1.7387080192565918,-0.4104243516921997,-1.528961181640625
1732873150294527500,10.938527587890626,-1.3801584243774414,-0.36144840717315674,-1.4124324321746826
1732873150304507000,10.9485068359375,-1.025343894958496,-0.35611510276794434,-1.2274138927459717
1732873150314516500,10.9585166015625,-0.7169637680053711,-0.2423781156539917,-1.1148673295974731
1732873150324526300,10.9685263671875,-0.8686256408691406,-0.32183176279067993,-1.2606847286224365
1732873150334505700,10.978505615234376,-1.108809471130371,-0.37269508838653564,-1.0822805166244507
1732873150344515300,10.988515380859376,-1.3250846862792969,-0.33684712648391724,-0.9973481297492981
1732873150354525200,10.998525146484376,-1.5271949768066406,-0.4094862937927246,-0.9827376008033752
1732873150364504600,11.008504638671875,-1.4832735061645508,-0.5017810463905334,-0.9419329166412354
1732873150374514200,11.01851416015625,-1.3539676666259766,-0.5593681335449219,-1.014311671257019
1732873150384524000,11.02852392578125,-1.3212833404541016,-0.5125001072883606,-1.1293915510177612
1732873150394503400,11.03850341796875,-1.3850507736206055,-0.4581158757209778,-1.2409260272979736
1732873150404513000,11.048512939453126,-1.3657312393188477,-0.4124484062194824,-1.360949158668518
1732873150414523000,11.05852294921875,-1.1374807357788086,-0.3931666612625122,-1.3812997341156006
1732873150424502000,11.068501953125,-0.6926212310791016,-0.30510640144348145,-1.0756083726882935
1732873150434511600,11.07851171875,-0.23674964904785156,-0.28615379333496094,-0.6786041855812073
1732873150444521500,11.088521484375,0.31432151794433594,-0.27614206075668335,-0.31450918316841125
1732873150454500900,11.0985009765625,0.8556184768676758,-0.29410386085510254,0.0595097690820694
1732873150464510500,11.108510498046876,1.7417984008789062,-0.17697745561599731,0.6555084586143494
1732873150474520300,11.118520263671876,2.4608192443847656,-0.07589322328567505,0.7674022912979126
1732873150484530200,11.1285302734375,2.946202278137207,0.37136250734329224,1.1829367876052856
1732873150494509300,11.13850927734375,2.6556396484375,0.6718209981918335,1.405526876449585
1732873150504519200,11.148519287109375,1.6724939346313477,0.894398033618927,1.326913595199585
1732873150514529000,11.158529052734375,0.3387298583984375,1.1166808605194092,0.7909154891967773
1732873150524508000,11.1685078125,-0.5945463180541992,1.1985266208648682,0.4883480668067932
1732873150534517800,11.178517822265626,-1.099496841430664,1.0392972230911255,0.6142756342887878
1732873150544527600,11.188527587890626,-0.7579030990600586,0.7644743919372559,0.8767088651657104
1732873150554507000,11.198507080078125,0.4564847946166992,0.3599269390106201,1.102052092552185
1732873150564516600,11.2085166015625,1.9011497497558594,0.20592963695526123,1.0369594097137451
1732873150574526500,11.2185263671875,3.3075056076049805,-0.01592838764190674,1.0128145217895508
1732873150584505600,11.228505615234376,3.9390335083007812,0.09140342473983765,0.7634696960449219
1732873150594515500,11.238515380859376,3.8846960067749023,0.4349552094936371,0.5105442404747009
1732873150604525300,11.248525390625,3.0368614196777344,0.7204951047897339,0.4332123398780823
1732873150614504400,11.25850439453125,1.5535812377929688,1.108597993850708,0.5738255977630615
1732873150624514000,11.26851416015625,0.1027517318725586,1.4959464073181152,0.5430281162261963
1732873150634524000,11.27852392578125,-0.7864847183227539,1.771249771118164,0.45301708579063416
1732873150644503300,11.28850341796875,-1.158121109008789,2.11191463470459,0.5245238542556763
1732873150654513000,11.298512939453126,-1.5536127090454102,2.037850856781006,0.22622889280319214
1732873150664522800,11.308522705078126,-1.8048582077026367,1.8828020095825195,0.047871679067611694
1732873150674502100,11.318502197265625,-1.9147825241088867,1.5924761295318604,0.1220533549785614
1732873150684511700,11.32851171875,-1.5850048065185547,1.3432321548461914,0.164251446723938
1732873150694521600,11.338521484375,-1.2825565338134766,1.095172643661499,-0.06615129113197327
1732873150704500700,11.348500732421876,-1.2226839065551758,0.7899883985519409,-0.4148370325565338
1732873150714510300,11.35851025390625,-1.4359149932861328,0.6048710346221924,-0.458208292722702
1732873150724520200,11.368520263671876,-1.5891551971435547,0.4105069041252136,-0.358048677444458
1732873150734530000,11.378530029296876,-1.5556659698486328,0.23938655853271484,-0.3654913902282715
1732873150744509400,11.388509521484375,-1.316584587097168,0.11088645458221436,-0.3703351616859436
1732873150754519000,11.39851904296875,-0.8625020980834961,-0.07647979259490967,-0.17434585094451904
1732873150764529000,11.40852880859375,-0.3562955856323242,-0.17185544967651367,0.1471269130706787
1732873150774508300,11.41850830078125,0.09070110321044922,-0.2846042513847351,0.40096303820610046
1732873150784518000,11.428517822265626,0.21288299560546875,-0.3240944743156433,0.533733606338501
1732873150794527500,11.438527587890626,0.11365699768066406,-0.22830575704574585,0.4945641756057739
1732873150804507000,11.4485068359375,-0.2224416732788086,-0.1343371868133545,0.5034652948379517
1732873150814516700,11.458516845703125,-0.6993522644042969,-0.06241118907928467,0.47407397627830505
1732873150824526300,11.4685263671875,-0.9535951614379883,-0.00839245319366455,0.35819146037101746
1732873150834505700,11.478505615234376,-1.0886764526367188,-0.053075194358825684,0.2825251817703247
1732873150844515300,11.488515380859376,-1.049860954284668,-0.10821759700775146,0.17025506496429443
1732873150854525200,11.498525146484376,-0.9399013519287109,-0.11629891395568848,0.19596034288406372
1732873150864504600,11.508504638671875,-0.9769449234008789,-0.05953192710876465,0.2010604739189148
1732873150874514200,11.51851416015625,-1.1718387603759766,0.06998860836029053,0.22150498628616333
1732873150884524000,11.52852392578125,-1.4072809219360352,0.2435683012008667,0.3605794906616211
1732873150894503400,11.53850341796875,-1.6955537796020508,0.4417140483856201,0.27195754647254944
1732873150904513000,11.548512939453126,-2.144595146179199,0.5466552972793579,0.12191036343574524
1732873150914523000,11.55852294921875,-2.567920207977295,0.472182035446167,-0.014467775821685791
1732873150924502000,11.568501953125,-2.678680419921875,0.18390166759490967,-0.26633524894714355
1732873150934511600,11.57851171875,-2.344768524169922,-0.29893219470977783,-0.4446676969528198
1732873150944521500,11.588521484375,-1.247136116027832,-1.0539966821670532,-0.37833863496780396
1732873150954500900,11.5985009765625,0.5690765380859375,-1.5262384414672852,-0.33411547541618347
1732873150964510500,11.608510498046876,2.3268556594848633,-1.4361166954040527,-0.6099903583526611
1732873150974520300,11.618520263671876,3.517690658569336,-1.0958144664764404,-0.8823007345199585
1732873150984530200,11.6285302734375,3.2884721755981445,-0.48644396662712097,-1.1578660011291504
1732873150994509600,11.638509521484375,1.4747791290283203,0.32330167293548584,-1.4445033073425293
1732873151004519200,11.648519287109375,-0.552678108215332,0.8100967407226562,-1.4592585563659668
1732873151014529000,11.658529052734375,-2.566739082336426,1.4015765190124512,-1.6397182941436768
1732873151024508000,11.6685078125,-3.573082447052002,1.7933064699172974,-1.9501612186431885
1732873151034517800,11.678517822265626,-3.5877957344055176,1.465604305267334,-1.7594560384750366
1732873151044527600,11.688527587890626,-2.240830898284912,0.757707953453064,-1.4774481058120728
1732873151054507000,11.698507080078125,0.15909767150878906,-0.17107200622558594,-1.2208876609802246
1732873151064516600,11.7085166015625,3.244784355163574,-1.1143946647644043,-1.095753788948059
1732873151074526500,11.7185263671875,6.215653419494629,-1.5032899379730225,-1.250402569770813
1732873151084505600,11.728505615234376,8.343979835510254,-1.4973655939102173,-1.5309720039367676
1732873151094515500,11.738515380859376,9.33740234375,-0.8861795663833618,-1.6152095794677734
1732873151104525300,11.748525390625,7.892226219177246,-0.26679253578186035,-1.464902400970459
1732873151114504400,11.75850439453125,5.203357696533203,0.27384334802627563,-1.4543222188949585
1732873151124514000,11.76851416015625,2.058595657348633,0.6159781813621521,-1.03378427028656
1732873151134524000,11.77852392578125,-0.052542686462402344,1.094735860824585,-1.03357994556427
1732873151144503300,11.78850341796875,-1.4725008010864258,1.5877618789672852,-1.2879997491836548
1732873151154513000,11.798512939453126,-2.3242287635803223,1.3229455947875977,-1.368025302886963
1732873151164522800,11.808522705078126,-2.436128616333008,1.0124760866165161,-1.5007045269012451
1732873151174502100,11.818502197265625,-2.2277350425720215,0.7078377604484558,-1.7079493999481201
1732873151184511700,11.82851171875,-2.12850284576416,0.29743409156799316,-1.778688669204712
1732873151194521600,11.838521484375,-1.9101667404174805,-0.15917879343032837,-1.6793978214263916
1732873151204500700,11.848500732421876,-1.766395092010498,-0.4284943640232086,-1.7606000900268555
1732873151214510300,11.85851025390625,-1.5364570617675781,-0.662990152835846,-1.8100683689117432
1732873151224520200,11.868520263671876,-1.332834243774414,-0.8001919388771057,-1.7964463233947754
1732873151234530000,11.878530029296876,-1.205613136291504,-0.8952652215957642,-1.767906904220581
1732873151244509400,11.888509521484375,-1.0950088500976562,-0.9042335152626038,-1.7337822914123535
1732873151254519000,11.89851904296875,-1.1448335647583008,-0.8062912225723267,-1.7820141315460205
1732873151264529000,11.90852880859375,-1.2402734756469727,-0.7235661745071411,-1.9375618696212769
1732873151274508300,11.91850830078125,-1.197164535522461,-0.6597212553024292,-2.1709179878234863
1732873151284518000,11.928517822265626,-0.7444086074829102,-0.6470054388046265,-2.314924478530884
1732873151294527500,11.938527587890626,-0.16739749908447266,-0.6130756735801697,-2.4664499759674072
1732873151304507000,11.9485068359375,0.6310462951660156,-0.5214091539382935,-2.4200315475463867
1732873151314516700,11.958516845703125,1.226572036743164,-0.46261346340179443,-2.298654317855835
1732873151324526300,11.9685263671875,1.4560670852661133,-0.43724602460861206,-2.0940961837768555
1732873151334505700,11.978505615234376,1.2681427001953125,-0.3618828058242798,-1.9224023818969727
1732873151344515300,11.988515380859376,0.6383419036865234,-0.33836036920547485,-1.7051631212234497
1732873151354525200,11.998525146484376,-0.13907337188720703,-0.1048230528831482,-0.7856854200363159
1732873151364504600,12.008504638671875,-0.7765436172485352,-0.0017136931419372559,-0.7369926571846008
1732873151374514200,12.01851416015625,-0.9760541915893555,0.1209368109703064,-0.6582351326942444
1732873151384327200,12.0283271484375,-0.8889255523681641,0.25216448307037354,-0.46212002635002136
1732873151394306300,12.038306396484375,-0.637272834777832,0.3650316596031189,-0.12153290957212448
1732873151404316000,12.04831591796875,-0.4221525192260742,0.2889743447303772,0.17003263533115387
1732873151414325800,12.05832568359375,-0.20278549194335938,0.19552040100097656,0.4595397114753723
1732873151424305200,12.06830517578125,0.09753227233886719,0.09813433885574341,0.5255438685417175
1732873151434314800,12.078314697265625,0.5554542541503906,-0.122977614402771,0.6484476327896118
1732873151444324600,12.08832470703125,1.027613639831543,-0.11111831665039062,0.5905826091766357
1732873151454304000,12.098303955078125,1.2129316329956055,-0.007124185562133789,0.5858128070831299
1732873151464313600,12.108313720703125,0.9992170333862305,0.07852494716644287,0.7220641374588013
1732873151474323500,12.118323486328125,0.48729419708251953,0.3075945973396301,0.8879629373550415
1732873151484333000,12.1283330078125,-0.17758941650390625,0.5448393225669861,1.0011348724365234
1732873151494312200,12.138312255859375,-0.8731727600097656,0.7764221429824829,1.0238244533538818
1732873151504322000,12.148322021484375,-1.2645931243896484,0.998603880405426,1.079096794128418
1732873151514332000,12.158331787109375,-1.3593854904174805,1.241186261177063,1.0271077156066895
1732873151524311000,12.16831103515625,-1.3972158432006836,1.4709293842315674,1.0610777139663696
1732873151534321000,12.17832080078125,-1.4619407653808594,1.5427141189575195,1.0551117658615112
1732873151544330800,12.188330810546875,-1.3285942077636719,1.4455912113189697,0.9999850988388062
1732873151554310100,12.19831005859375,-0.8369302749633789,1.1336489915847778,0.9985834360122681
1732873151564319700,12.20831982421875,-0.041965484619140625,0.6784817576408386,0.8755262494087219
1732873151574329600,12.21832958984375,1.0152435302734375,0.22773540019989014,0.8134074807167053
1732873151584308500,12.22830859375,2.7494821548461914,-0.06167924404144287,0.4989834427833557
1732873151594318300,12.238318359375,4.3256940841674805,-0.06556999683380127,0.36670368909835815
1732873151604328200,12.248328125,5.122488975524902,0.19828379154205322,0.21624255180358887
1732873151614307600,12.2583076171875,4.26656436920166,0.6052687168121338,0.13122816383838654
1732873151624317200,12.268317138671875,2.433347702026367,1.0442062616348267,0.06878036260604858
1732873151634327000,12.2783271484375,0.23329639434814453,1.4442248344421387,0.25476205348968506
1732873151644306400,12.288306396484375,-1.1776800155639648,1.7736152410507202,0.5879886150360107
1732873151654316000,12.29831591796875,-2.09954833984375,2.0131101608276367,0.8340452909469604
1732873151664326000,12.308325927734375,-2.3947315216064453,1.7608413696289062,1.137522578239441
1732873151674305000,12.318304931640625,-2.0636377334594727,1.4235001802444458,1.315739393234253
1732873151684314600,12.328314697265625,-1.4288911819458008,1.0131659507751465,1.283260464668274
1732873151694324500,12.338324462890625,-0.7759428024291992,0.4712643623352051,1.229568600654602
1732873151704303900,12.348303955078125,-0.3610410690307617,0.11904299259185791,1.159264087677002
1732873151714313500,12.3583134765625,-0.025109291076660156,-0.24017715454101562,1.2269858121871948
1732873151724323300,12.3683232421875,-0.03096485137939453,-0.4381004869937897,1.165726900100708
1732873151734333200,12.378333251953125,-0.10568428039550781,-0.5815092325210571,1.0553410053253174
1732873151744312600,12.3883125,-0.2520017623901367,-0.6093874573707581,1.028231143951416
1732873151754322200,12.398322265625,-0.35262298583984375,-0.4015651345252991,0.8341067433357239
1732873151764331800,12.408331787109375,-0.3333311080932617,-0.24258500337600708,0.6250336766242981
1732873151774311200,12.418311279296875,-0.017940521240234375,-0.020704925060272217,0.1934581995010376
1732873151784320800,12.42832080078125,0.5178699493408203,-0.003866255283355713,-0.014930695295333862
1732873151794330600,12.43833056640625,0.9292535781860352,-0.0188332200050354,0.15646523237228394
1732873151804310000,12.44831005859375,1.1183032989501953,0.03703904151916504,0.31074321269989014
1732873151814319600,12.458319580078125,0.9991617202758789,0.08661884069442749,0.35003817081451416
1732873151824329500,12.46832958984375,0.7086496353149414,-0.07324379682540894,0.7081683874130249
1732873151834308900,12.478308837890625,0.3003358840942383,-0.16134440898895264,1.022603988647461
1732873151844318500,12.488318359375,-0.21780967712402344,-0.11975926160812378,1.225754976272583
1732873151854328300,12.498328369140625,-0.8647098541259766,-0.18880301713943481,1.2532227039337158
1732873151864307700,12.5083076171875,-1.4110183715820312,-0.17310070991516113,1.2401373386383057
1732873151874317300,12.5183173828125,-1.9382328987121582,0.14761722087860107,0.6553511619567871
1732873151884327200,12.5283271484375,-2.150297164916992,0.2949821949005127,0.21808761358261108
1732873151894306300,12.538306396484375,-2.284153461456299,0.2657134532928467,-0.11223059892654419
1732873151904316000,12.54831591796875,-2.2443032264709473,0.2074260711669922,-0.2675204575061798
1732873151914325800,12.55832568359375,-2.095491409301758,0.2539994716644287,-0.5655989050865173
1732873151924305200,12.56830517578125,-1.9094619750976562,0.22650790214538574,-0.8127406239509583
1732873151934314800,12.578314697265625,-1.552164077758789,0.08311295509338379,-1.0821162462234497
1732873151944324600,12.58832470703125,-1.00457763671875,-0.14995741844177246,-1.157188057899475
1732873151954304000,12.598303955078125,-0.15727901458740234,-0.30954521894454956,-1.0860528945922852
1732873151964313600,12.608313720703125,1.1247787475585938,-0.25662726163864136,-0.9214208126068115
1732873151974323500,12.618323486328125,2.42069149017334,-0.14624643325805664,-0.6996249556541443
1732873151984333000,12.6283330078125,3.6571884155273438,0.09768295288085938,-0.5781749486923218
1732873151994312200,12.638312255859375,4.023774147033691,0.41127943992614746,-0.7736263871192932
1732873152004322000,12.648322021484375,3.3205881118774414,0.8368227481842041,-1.0184392929077148
1732873152014332000,12.658331787109375,1.6272497177124023,1.2516423463821411,-1.4798791408538818
1732873152024311000,12.66831103515625,-1.0299434661865234,1.6539990901947021,-2.14264178276062
1732873152034321000,12.67832080078125,-3.370286464691162,1.9262505769729614,-2.787234306335449
1732873152044330800,12.688330810546875,-5.627276420593262,1.85476553440094,-3.5208966732025146
1732873152054310100,12.69831005859375,-6.175803184509277,0.9929454326629639,-3.18674373626709
1732873152064319700,12.70831982421875,-4.532763957977295,0.7538107633590698,-1.5588326454162598
1732873152074329600,12.71832958984375,-2.492215633392334,0.5736668109893799,-1.2744805812835693
1732873152084308500,12.72830859375,-0.8028097152709961,0.5553945302963257,-1.9445019960403442
1732873152094318300,12.738318359375,1.490992546081543,0.7060130834579468,-2.3617568016052246
1732873152104328200,12.748328125,3.066920280456543,0.9713706970214844,-2.3231751918792725
1732873152114307600,12.7583076171875,3.8487911224365234,1.2163394689559937,-2.080573081970215
1732873152124317200,12.768317138671875,3.4781885147094727,1.2430448532104492,-1.930901050567627
1732873152134327000,12.7783271484375,2.5053014755249023,1.2875970602035522,-2.218686580657959
1732873152144306400,12.788306396484375,1.4368724822998047,1.3664937019348145,-2.1740550994873047
1732873152154316000,12.79831591796875,0.1572551727294922,1.1893413066864014,-2.166767120361328
1732873152164326000,12.808325927734375,-0.9580841064453125,0.8414806127548218,-2.351423740386963
1732873152174305000,12.818304931640625,-1.5701017379760742,0.5328871607780457,-2.4453678131103516
1732873152184314600,12.828314697265625,-1.7878446578979492,0.4175267815589905,-2.3992698192596436
1732873152194324500,12.838324462890625,-1.7074518203735352,0.3144240379333496,-2.1453864574432373
1732873152204304000,12.848303955078125,-1.484971046447754,0.049791038036346436,-1.5943500995635986
1732873152214313500,12.8583134765625,-1.2867326736450195,-0.15660598874092102,-0.687417209148407
1732873152224323300,12.8683232421875,-1.2462310791015625,-0.008643507957458496,-0.03871434926986694
1732873152234333200,12.878333251953125,-1.3849515914916992,-0.40104833245277405,1.1058164834976196
1732873152244312600,12.8883125,-1.6281957626342773,0.21053975820541382,0.7513152360916138
1732873152254322200,12.898322265625,-1.8584895133972168,0.7200052738189697,-0.5700578689575195
1732873152264331800,12.908331787109375,-2.226961612701416,0.7168569564819336,-2.278455972671509
1732873152274311200,12.918311279296875,-2.2621912956237793,0.6369366645812988,-3.3112969398498535
1732873152284320800,12.92832080078125,-1.538741111755371,0.9317126870155334,-3.686457395553589
1732873152294330600,12.93833056640625,-0.4835071563720703,1.0162274837493896,-3.459397554397583
1732873152304310000,12.94831005859375,0.4414710998535156,0.858365535736084,-2.8409039974212646
1732873152314319600,12.958319580078125,1.2272663116455078,0.254120409488678,-1.8620415925979614
1732873152324329500,12.96832958984375,1.0566205978393555,-0.3495948910713196,-1.2326596975326538
1732873152334308900,12.978308837890625,0.15270233154296875,-0.6646993160247803,-0.9979256391525269
1732873152344318500,12.988318359375,-0.955449104309082,-0.5885293483734131,-1.1730694770812988
1732873152354328300,12.998328369140625,-2.1343164443969727,-0.44191867113113403,-1.6894818544387817
1732873152364307700,13.0083076171875,-2.8512754440307617,-0.36067408323287964,-1.9474263191223145
1732873152374317300,13.0183173828125,-3.0599493980407715,-0.2112271785736084,-1.9316717386245728
1732873152384327200,13.0283271484375,-2.383420944213867,0.11745047569274902,-1.4403995275497437
1732873152394306300,13.038306396484375,-1.5805730819702148,0.40743541717529297,-0.8281778693199158
1732873152404316000,13.04831591796875,-0.4378499984741211,0.5107542276382446,-0.706680178642273
1732873152414325800,13.05832568359375,0.22470855712890625,0.4054880142211914,-0.8941031694412231
1732873152424305200,13.06830517578125,0.6119804382324219,0.3158581852912903,-1.0283485651016235
1732873152434314800,13.078314697265625,0.85382080078125,0.19564568996429443,-0.7069973945617676
1732873152444324600,13.08832470703125,1.2928647994995117,0.5073649287223816,-0.1430921107530594
1732873152454304000,13.098303955078125,1.8718738555908203,1.2122371196746826,0.7140201330184937
1732873152464313600,13.108313720703125,1.6066741943359375,1.9122540950775146,1.8178229331970215
1732873152474323500,13.118323486328125,1.1156435012817383,2.356104612350464,1.6974411010742188
1732873152484333000,13.1283330078125,1.1471128463745117,2.371495246887207,1.4463337659835815
1732873152494312200,13.138312255859375,1.4851808547973633,1.989793300628662,1.4588690996170044
