time,seconds_elapsed,z,y,x
1732873140044693200,0.688693359375,-0.0403171069920063,0.0006108652451075613,0.05925392732024193
1732873140054650400,0.698650390625,-0.04337143152952194,0.00427605677396059,0.054367005825042725
1732873140064682200,0.70868212890625,-0.04948008432984352,-0.0024434609804302454,0.036651913076639175
1732873140074670000,0.718670166015625,-0.051312681287527084,-0.01038470957428217,0.019547687843441963
1732873140084671200,0.728671142578125,-0.0507018156349659,-0.016493361443281174,0.009162978269159794
1732873140094659300,0.738659423828125,-0.05253441259264946,-0.025656340643763542,0.006108652334660292
1732873140104690700,0.748690673828125,-0.05742133408784866,-0.04459316283464432,0.004886921960860491
1732873140114648300,0.7586484375,-0.06291911751031876,-0.06658431142568588,-0.0012217304902151227
1732873140124679700,0.7686796875,-0.06780604273080826,-0.08429940044879913,-0.006719517521560192
1732873140134667500,0.77866748046875,-0.07208210229873657,-0.08674286305904388,-0.010995574295520782
1732873140144668700,0.788668701171875,-0.06841690838336945,-0.0708603709936142,-0.006108652334660292
1732873140154656800,0.79865673828125,-0.0659734457731247,-0.054367005825042725,0.0024434609804302454
1732873140164688100,0.808688232421875,-0.05864306539297104,-0.04214970022439957,0.009773843921720982
1732873140174645800,0.818645751953125,-0.0555887371301651,-0.03787364438176155,0.015882495790719986
1732873140184677400,0.828677490234375,-0.05864306539297104,-0.04398229718208313,0.010995574295520782
1732873140194665200,0.838665283203125,-0.0659734457731247,-0.056810468435287476,-0.0006108652451075613
1732873140204666000,0.848666015625,-0.06414084881544113,-0.07330382615327835,-0.012828170321881771
1732873140214654200,0.858654296875,-0.05253441259264946,-0.07513642311096191,-0.00366519158706069
1732873140224685800,0.868685791015625,-0.036651913076639175,-0.05253441259264946,0.01710422709584236
1732873140234674000,0.878673828125,-0.022602014243602753,-0.03237585723400116,0.04092797264456749
1732873140244674800,0.8886748046875,-0.015882495790719986,-0.018936822190880775,0.05803219974040985
1732873140254662700,0.89866259765625,-0.01466076634824276,-0.015882495790719986,0.06169738993048668
1732873140264694500,0.908694580078125,-0.01771509274840355,-0.018936822190880775,0.05803219974040985
1732873140274652000,0.91865185546875,-0.021991148591041565,-0.02626720629632473,0.04092797264456749
1732873140284683300,0.928683349609375,-0.04459316283464432,-0.02076941914856434,0.00427605677396059
1732873140294671400,0.93867138671875,-0.05192354694008827,-0.022602014243602753,-0.01771509274840355
1732873140304672500,0.948672607421875,-0.059864792972803116,-0.03298672288656235,-0.036651913076639175
1732873140314660400,0.958660400390625,-0.06841690838336945,-0.042760565876960754,-0.05253441259264946
1732873140324692000,0.96869189453125,-0.07391469180583954,-0.04948008432984352,-0.060475658625364304
1732873140334649300,0.9786494140625,-0.07819075137376785,-0.056810468435287476,-0.06169738993048668
1732873140344680700,0.9886806640625,-0.08124507963657379,-0.05803219974040985,-0.05253441259264946
1732873140354668800,0.998668701171875,-0.08796459436416626,-0.05619960278272629,-0.021991148591041565
1732873140364670000,1.008669921875,-0.0910189226269722,-0.05742133408784866,0.0006108652451075613
1732873140374657800,1.01865771484375,-0.09896016865968704,-0.051312681287527084,0.02626720629632473
1732873140384689700,1.028689697265625,-0.10445795953273773,-0.04459316283464432,0.04886921867728233
1732873140394647000,1.03864697265625,-0.11178833991289139,-0.04459316283464432,0.06352998316287994
1732873140404678700,1.0486787109375,-0.11545353382825851,-0.05375614017248154,0.06902777403593063
1732873140414666500,1.05866650390625,-0.11911872029304504,-0.059864792972803116,0.06352998316287994
1732873140424667600,1.068667724609375,-0.13072516024112701,-0.06658431142568588,0.04581489413976669
1732873140434655500,1.078655517578125,-0.14355333149433136,-0.08368854224681854,0.007941247895359993
1732873140444687000,1.08868701171875,-0.15760323405265808,-0.09896016865968704,-0.02382374368607998
1732873140454644500,1.09864453125,-0.1722639948129654,-0.10384709388017654,-0.054367005825042725
1732873140464676000,1.108676025390625,-0.18875735998153687,-0.10262536257505417,-0.08124507963657379
1732873140474664200,1.118664306640625,-0.19975294172763824,-0.09468411654233932,-0.09773843735456467
1732873140484695600,1.128695556640625,-0.20891591906547546,-0.08124507963657379,-0.10201449692249298
1732873140494653200,1.138653076171875,-0.21441370248794556,-0.06475171446800232,-0.09285151958465576
1732873140504684800,1.148684814453125,-0.21624629199504852,-0.02871066704392433,-0.056810468435287476
1732873140514673000,1.1586728515625,-0.21563543379306793,0.0006108652451075613,-0.028099801391363144
1732873140524673800,1.168673828125,-0.2125810980796814,0.022602014243602753,-0.003054326167330146
1732873140534661600,1.17866162109375,-0.21319197118282318,0.036651913076639175,0.015271631069481373
1732873140544693500,1.188693603515625,-0.2076941877603531,0.056810468435287476,0.021991148591041565
1732873140554650600,1.198650634765625,-0.2064724564552307,0.07330382615327835,0.01710422709584236
1732873140564682200,1.20868212890625,-0.2076941877603531,0.0757472887635231,-0.0024434609804302454
1732873140574670300,1.21867041015625,-0.2064724564552307,0.06841690838336945,-0.0507018156349659
1732873140584671200,1.228671142578125,-0.21319197118282318,0.0507018156349659,-0.08857546001672745
1732873140594657500,1.238657470703125,-0.22296582162380219,0.031154127791523933,-0.1270599663257599
1732873140604690000,1.24868994140625,-0.22907446324825287,0.02076941914856434,-0.15271630883216858
1732873140614647300,1.258647216796875,-0.23457226157188416,0.010995574295520782,-0.15760323405265808
1732873140624679000,1.268678955078125,-0.2272418737411499,0.012828170321881771,-0.13866640627384186
1732873140634666800,1.278666748046875,-0.20341812074184418,0.036041051149368286,-0.10262536257505417
1732873140644668000,1.28866796875,-0.1765400618314743,0.05497787147760391,-0.05192354694008827
1732873140654655700,1.29865576171875,-0.1368338167667389,0.07819075137376785,0.004886921960860491
1732873140664687400,1.308687255859375,-0.11972958594560623,0.08796459436416626,0.024434609338641167
1732873140674644700,1.318644775390625,-0.10018189996480942,0.1062905490398407,0.029932396486401558
1732873140684676400,1.32867626953125,-0.08796459436416626,0.12461651116609573,0.025656340643763542
1732873140694665200,1.338665283203125,-0.08307767659425735,0.14049901068210602,0.018325956538319588
1732873140704666000,1.348666015625,-0.08185594528913498,0.1466076523065567,0.012217304669320583
1732873140714654200,1.358654296875,-0.08246681094169617,0.1417207419872284,0.012828170321881771
1732873140724685800,1.368685791015625,-0.08491026610136032,0.13072516024112701,0.015882495790719986
1732873140734674000,1.378673828125,-0.08368854224681854,0.12400564551353455,0.01038470957428217
1732873140744674600,1.388674560546875,-0.08185594528913498,0.12828169763088226,-0.003054326167330146
1732873140754662700,1.39866259765625,-0.07819075137376785,0.1459967941045761,-0.02076941914856434
1732873140764694300,1.4086943359375,-0.07391469180583954,0.16249015927314758,-0.03237585723400116
1732873140774652000,1.41865185546875,-0.06169738993048668,0.17959438264369965,-0.028099801391363144
1732873140784683500,1.42868359375,-0.0403171069920063,0.20036379992961884,0.0012217304902151227
1732873140794671400,1.43867138671875,-0.00427605677396059,0.2431243658065796,0.0757472887635231
1732873140804672300,1.44867236328125,0.019547687843441963,0.26511552929878235,0.12461651116609573
1732873140814660400,1.458660400390625,0.03726277872920036,0.27550023794174194,0.16554448008537292
1732873140824692000,1.46869189453125,0.04764748737215996,0.2742784917354584,0.18631389737129211
1732873140834649300,1.4786494140625,0.04886921867728233,0.25106561183929443,0.182648703455925
1732873140844680700,1.4886806640625,0.04092797264456749,0.21074850857257843,0.15943582355976105
1732873140854668800,1.498668701171875,0.033597588539123535,0.17470745742321014,0.1313360333442688
1732873140864669700,1.508669677734375,0.033597588539123535,0.16432274878025055,0.1111774742603302
1732873140874657800,1.51865771484375,0.04764748737215996,0.1716531366109848,0.10812314599752426
1732873140884689400,1.528689453125,0.05864306539297104,0.1716531366109848,0.10018189996480942
1732873140894647000,1.53864697265625,0.06719517707824707,0.17592918872833252,0.0861319974064827
1732873140904678400,1.548678466796875,0.08002334833145142,0.18997909128665924,0.07147123664617538
1732873140914666500,1.55866650390625,0.08552113175392151,0.19364428520202637,0.054367005825042725
1732873140924667400,1.56866748046875,0.0910189226269722,0.19120082259178162,0.03420845419168472
1732873140934655200,1.5786552734375,0.1014036312699318,0.17470745742321014,0.022602014243602753
1732873140944686800,1.588686767578125,0.12400564551353455,0.16554448008537292,0.03237585723400116
1732873140954644500,1.59864453125,0.13988813757896423,0.14782938361167908,0.039706241339445114
1732873140964675800,1.60867578125,0.14416420459747314,0.11850785464048386,0.03848451003432274
1732873140974664000,1.618663818359375,0.12889257073402405,0.07819075137376785,0.018325956538319588
1732873140984695600,1.628695556640625,0.10323622822761536,0.02076941914856434,-0.012828170321881771
1732873140994653000,1.63865283203125,0.07757988572120667,-0.04337143152952194,-0.033597588539123535
1732873141004684800,1.648684814453125,0.06169738993048668,-0.10323622822761536,-0.029932396486401558
1732873141014672600,1.658672607421875,0.0708603709936142,-0.14782938361167908,0.02932153269648552
1732873141024673500,1.668673583984375,0.10201449692249298,-0.1508837193250656,0.08918632566928864
1732873141034661600,1.67866162109375,0.13927727937698364,-0.13439035415649414,0.1319468915462494
1732873141044693200,1.688693359375,0.16432274878025055,-0.11362093687057495,0.1270599663257599
1732873141054650400,1.698650390625,0.15577064454555511,-0.13927727937698364,0.054367005825042725
1732873141064682200,1.70868212890625,0.12278391420841217,-0.21991148591041565,-0.08368854224681854
1732873141074670000,1.718670166015625,0.06230825558304787,-0.3433062732219696,-0.25595253705978394
1732873141084671000,1.7286708984375,-0.024434609338641167,-0.4593706727027893,-0.42699480056762695
1732873141094659000,1.7386591796875,-0.16004669666290283,-0.5894849896430969,-0.5442809462547302
1732873141104690700,1.748690673828125,-0.20463985204696655,-0.627358615398407,-0.45631635189056396
1732873141114648300,1.7586484375,-0.22113321721553802,-0.626747727394104,-0.24190263450145721
1732873141124679700,1.7686796875,-0.21868975460529327,-0.5797111392021179,0.042760565876960754
1732873141134667800,1.778667724609375,-0.18387043476104736,-0.503963828086853,0.33719760179519653
1732873141144669000,1.7886689453125,-0.12522737681865692,-0.39584067463874817,0.5900958180427551
1732873141154656500,1.798656494140625,-0.06963863968849182,-0.2535090744495392,0.7446447610855103
1732873141164687600,1.8086875,-0.0354301854968071,-0.07635815441608429,0.7318165898323059
1732873141174645800,1.818645751953125,-0.056810468435287476,-0.003054326167330146,0.5644394755363464
1732873141184676000,1.828676025390625,-0.09712757170200348,0.0024434609804302454,0.2993239760398865
1732873141194665200,1.838665283203125,-0.152105450630188,-0.048258353024721146,-0.036651913076639175
1732873141204665000,1.8486650390625,-0.21868975460529327,-0.12828169763088226,-0.38667771220207214
1732873141214654200,1.858654296875,-0.28099802136421204,-0.20463985204696655,-0.6890559792518616
1732873141224684300,1.868684326171875,-0.3396410644054413,-0.2583959996700287,-0.8869763612747192
1732873141234673700,1.878673583984375,-0.3927863538265228,-0.251676470041275,-0.9065240025520325
1732873141244673500,1.888673583984375,-0.3903428912162781,-0.20952677726745605,-0.7293730974197388
1732873141254662700,1.89866259765625,-0.35246923565864563,-0.1264491081237793,-0.4306600093841553
1732873141264692700,1.908692626953125,-0.29077184200286865,0.028099801391363144,-0.0708603709936142
1732873141274652000,1.91865185546875,-0.2223549485206604,0.2028072625398636,0.2669481039047241
1732873141284681700,1.928681640625,-0.16065755486488342,0.3396410644054413,0.504574716091156
1732873141294671400,1.93867138671875,-0.12522737681865692,0.4153883755207062,0.608421802520752
1732873141304671000,1.9486708984375,-0.1062905490398407,0.4239404797554016,0.5913175344467163
1732873141314660400,1.958660400390625,-0.12339477986097336,0.3549126982688904,0.40133845806121826
1732873141324690700,1.968690673828125,-0.15027284622192383,0.28099802136421204,0.2076941877603531
1732873141334649000,1.978649169921875,-0.17959438264369965,0.18325957655906677,-0.009773843921720982
1732873141344679400,1.988679443359375,-0.21441370248794556,0.0861319974064827,-0.21380282938480377
1732873141354668800,1.998668701171875,-0.23640485107898712,0.024434609338641167,-0.3695734739303589
1732873141364668700,2.008668701171875,-0.23090706765651703,-0.01038470957428217,-0.46547931432724
1732873141374657800,2.01865771484375,-0.20952677726745605,0.0006108652451075613,-0.48197266459465027
1732873141384689200,2.028689208984375,-0.14477506279945374,0.10995574295520782,-0.38117989897727966
1732873141394647000,2.03864697265625,-0.08918632566928864,0.2028072625398636,-0.2632829248905182
1732873141404678400,2.048678466796875,-0.03420845419168472,0.2816088795661926,-0.1466076523065567
1732873141414666500,2.05866650390625,0.014049900695681572,0.3225368559360504,-0.06536258012056351
1732873141424666000,2.068666015625,0.05192354694008827,0.3176499307155609,-0.021991148591041565
1732873141434655200,2.0786552734375,0.07330382615327835,0.27122417092323303,-0.005497787147760391
1732873141444686800,2.088686767578125,0.09040805697441101,0.20341812074184418,-0.01038470957428217
1732873141454644500,2.09864453125,0.1062905490398407,0.10873401165008545,-0.036651913076639175
1732873141464676000,2.108676025390625,0.11667526513338089,0.06841690838336945,-0.054367005825042725
1732873141474664000,2.118663818359375,0.11972958594560623,0.03481931984424591,-0.06352998316287994
1732873141484695800,2.12869580078125,0.12828169763088226,0.003054326167330146,-0.06108652427792549
1732873141494653200,2.138653076171875,0.1459967941045761,-0.001832595793530345,-0.04398229718208313
1732873141504713200,2.148713134765625,0.1612684279680252,0.04459316283464432,-0.016493361443281174
1732873141514672600,2.158672607421875,0.16737708449363708,0.08552113175392151,-0.012828170321881771
1732873141524673800,2.168673828125,0.16859880089759827,0.09285151958465576,-0.048258353024721146
1732873141534661600,2.17866162109375,0.12889257073402405,0.03726277872920036,-0.16065755486488342
1732873141544693200,2.188693359375,0.0861319974064827,-0.015882495790719986,-0.25595253705978394
1732873141554650600,2.198650634765625,0.0354301854968071,-0.06658431142568588,-0.34086281061172485
1732873141564682200,2.20868212890625,-0.012828170321881771,-0.11789698898792267,-0.3995058834552765
1732873141574670000,2.218670166015625,-0.04092797264456749,-0.16493362188339233,-0.4178318381309509
1732873141584671200,2.228671142578125,-0.048258353024721146,-0.1716531366109848,-0.375071257352829
1732873141594657500,2.238657470703125,-0.029932396486401558,-0.14782938361167908,-0.27000242471694946
1732873141604689700,2.248689697265625,0.039095375686883926,-0.10567969083786011,-0.021380282938480377
1732873141614647300,2.258647216796875,0.07635815441608429,-0.08124507963657379,0.15027284622192383
1732873141624678700,2.2686787109375,0.08552113175392151,-0.07208210229873657,0.2877175211906433
1732873141634666800,2.278666748046875,0.06963863968849182,-0.09162978827953339,0.3579670190811157
1732873141644668000,2.28866796875,0.03420845419168472,-0.11972958594560623,0.37079519033432007
1732873141654656000,2.298656005859375,-0.010995574295520782,-0.1514945775270462,0.33292156457901
1732873141664687400,2.308687255859375,-0.060475658625364304,-0.192422553896904,0.2583959996700287
1732873141674644700,2.318644775390625,-0.14049901068210602,-0.2535090744495392,0.13255776464939117
1732873141684676400,2.32867626953125,-0.18509216606616974,-0.2742784917354584,0.0861319974064827
1732873141694665200,2.338665283203125,-0.21624629199504852,-0.2816088795661926,0.07513642311096191
1732873141704666000,2.348666015625,-0.23518311977386475,-0.28466320037841797,0.09407325088977814
1732873141714654200,2.358654296875,-0.242513507604599,-0.29016098380088806,0.13011430203914642
1732873141724685800,2.368685791015625,-0.25595253705978394,-0.31581732630729675,0.16310101747512817
1732873141734673700,2.378673583984375,-0.2840523421764374,-0.3591887652873993,0.17470745742321014
1732873141744674800,2.3886748046875,-0.32620203495025635,-0.3933972120285034,0.16859880089759827
1732873141754662700,2.39866259765625,-0.39767327904701233,-0.4288274049758911,0.1062905490398407
1732873141764694300,2.4086943359375,-0.45204028487205505,-0.45631635189056396,0.0403171069920063
1732873141774651600,2.418651611328125,-0.5015203952789307,-0.49785518646240234,-0.03726277872920036
1732873141784683300,2.428683349609375,-0.5583308339118958,-0.5778785347938538,-0.1258382350206375
1732873141794671400,2.43867138671875,-0.6145304441452026,-0.656069278717041,-0.2028072625398636
1732873141804671500,2.44867138671875,-0.6603453159332275,-0.6682865619659424,-0.22663100063800812
1732873141814660400,2.458660400390625,-0.6701191663742065,-0.5607742667198181,-0.14844025671482086
1732873141824692200,2.468692138671875,-0.5491678714752197,-0.18448130786418915,0.17409659922122955
1732873141834649300,2.4786494140625,-0.42577308416366577,0.11362093687057495,0.44593164324760437
1732873141844680700,2.4886806640625,-0.3292563557624817,0.3591887652873993,0.6530149579048157
1732873141854668800,2.498668701171875,-0.2840523421764374,0.48197266459465027,0.7397578358650208
1732873141864669700,2.508669677734375,-0.30115658044815063,0.47219884395599365,0.6921103000640869
1732873141874657800,2.51865771484375,-0.3689626157283783,0.32681289315223694,0.5186246037483215
1732873141884689400,2.528689453125,-0.47830748558044434,0.07330382615327835,0.23945917189121246
1732873141894647000,2.53864697265625,-0.6725626587867737,-0.2981022298336029,-0.2767219543457031
1732873141904678400,2.548678466796875,-0.7764097452163696,-0.41172316670417786,-0.5668829679489136
1732873141914666500,2.55866650390625,-0.8106181621551514,-0.4141666293144226,-0.7238753437995911
1732873141924666000,2.568666015625,-0.7660250067710876,-0.3292563557624817,-0.7006624341011047
1732873141934655200,2.5786552734375,-0.645684540271759,-0.16554448008537292,-0.49846604466438293
1732873141944687000,2.58868701171875,-0.494189977645874,0.05192354694008827,-0.18325957655906677
1732873141954644500,2.59864453125,-0.35124751925468445,0.27000242471694946,0.15393804013729095
1732873141964676000,2.608676025390625,-0.2577851414680481,0.41111230850219727,0.40194934606552124
1732873141974664000,2.618663818359375,-0.20952677726745605,0.45142942667007446,0.48319441080093384
1732873141984695600,2.628695556640625,-0.22357667982578278,0.40194934606552124,0.384845107793808
1732873141994653000,2.63865283203125,-0.26511552929878235,0.313373863697052,0.24190263450145721
1732873142004684500,2.6486845703125,-0.29993483424186707,0.1869247704744339,0.10201449692249298
1732873142014672600,2.658672607421875,-0.30482175946235657,0.06475171446800232,0.014049900695681572
1732873142024673800,2.668673828125,-0.2773328125476837,-0.025656340643763542,0.009773843921720982
1732873142034661600,2.67866162109375,-0.2168571650981903,-0.07147123664617538,0.07880161702632904
1732873142044693200,2.688693359375,-0.11239920556545258,-0.027488935738801956,0.21868975460529327
1732873142054650400,2.698650390625,-0.05925392732024193,0.025045474991202354,0.2974913716316223
1732873142064682000,2.708681884765625,-0.015882495790719986,0.05925392732024193,0.35552358627319336
1732873142074670000,2.718670166015625,0.01466076634824276,0.06719517707824707,0.3805690407752991
1732873142084671000,2.7286708984375,0.030543262138962746,0.0354301854968071,0.37140607833862305
1732873142094659000,2.7386591796875,0.0403171069920063,-0.01771509274840355,0.34147366881370544
1732873142104690400,2.7486904296875,0.042760565876960754,-0.06902777403593063,0.29565876722335815
1732873142114648300,2.7586484375,0.028099801391363144,-0.12522737681865692,0.21441370248794556
1732873142124679700,2.7686796875,0.02687807008624077,-0.1472185254096985,0.16798794269561768
1732873142134667800,2.778667724609375,0.03237585723400116,-0.14355333149433136,0.14416420459747314
1732873142144668400,2.78866845703125,0.04214970022439957,-0.12522737681865692,0.14049901068210602
1732873142154656500,2.798656494140625,0.07269296050071716,-0.0555887371301651,0.14905111491680145
1732873142164688100,2.808688232421875,0.11667526513338089,0.05314527451992035,0.17592918872833252
1732873142174645800,2.818645751953125,0.1661553531885147,0.15882496535778046,0.1973094791173935
1732873142184677000,2.828677001953125,0.20463985204696655,0.2217440903186798,0.1918116807937622
1732873142194665200,2.838665283203125,0.24068090319633484,0.22846360504627228,0.11789698898792267
1732873142204666400,2.848666259765625,0.23640485107898712,0.16920967400074005,0.036651913076639175
1732873142214654200,2.858654296875,0.21013765037059784,0.05375614017248154,-0.039095375686883926
1732873142224685800,2.868685791015625,0.18936823308467865,-0.060475658625364304,-0.08735372871160507
1732873142234673700,2.878673583984375,0.20036379992961884,-0.1368338167667389,-0.08979719132184982
1732873142244673500,2.888673583984375,0.2535090744495392,-0.1618792861700058,-0.025045474991202354
1732873142254662700,2.89866259765625,0.33536502718925476,-0.10384709388017654,0.1014036312699318
1732873142264693500,2.908693603515625,0.48685958981513977,-0.018325956538319588,0.313373863697052
1732873142274652000,2.91865185546875,0.5827654600143433,0.021991148591041565,0.3799581825733185
1732873142284682200,2.92868212890625,0.6414085030555725,0.08429940044879913,0.32986724376678467
1732873142294671400,2.93867138671875,0.6591235995292664,0.014049900695681572,0.16432274878025055
1732873142304672000,2.948672119140625,0.6334672570228577,-0.21502456068992615,-0.11178833991289139
1732873142314660400,2.958660400390625,0.5381723046302795,-0.5002986192703247,-0.5302310585975647
1732873142324692000,2.96869189453125,0.37201693654060364,-0.7330383062362671,-1.0421360731124878
1732873142334649300,2.9786494140625,0.09651670604944229,-0.8955284357070923,-1.7104226350784302
1732873142344679700,2.9886796875,0,-0.8008443117141724,-1.880243182182312
1732873142354668800,2.998668701171875,0.022602014243602753,-0.578489363193512,-1.7037031650543213
1732873142364668700,3.008668701171875,0.15454891324043274,-0.31154128909111023,-1.187522053718567
1732873142374657800,3.01865771484375,0.33658674359321594,-0.04214970022439957,-0.4502076804637909
1732873142384689400,3.028689453125,0.4807509481906891,0.1466076523065567,0.304210901260376
1732873142394647000,3.03864697265625,0.5412266254425049,0.242513507604599,0.8851437568664551
1732873142404678400,3.048678466796875,0.5412266254425049,0.2834414839744568,1.188132882118225
1732873142414666500,3.05866650390625,0.44226643443107605,0.25045475363731384,1.2052371501922607
1732873142424667600,3.068667724609375,0.3494149148464203,0.18387043476104736,1.0616837739944458
1732873142434655500,3.078655517578125,0.29016098380088806,0.13255776464939117,0.8930850028991699
1732873142444686300,3.088686279296875,0.25534167885780334,0.12278391420841217,0.7458664774894714
1732873142454644500,3.09864453125,0.23945917189121246,0.1508837193250656,0.6157521605491638
1732873142464675300,3.10867529296875,0.24373523890972137,0.19425514340400696,0.48869219422340393
1732873142474664000,3.118663818359375,0.26572638750076294,0.2620611786842346,0.3536909818649292
1732873142484695000,3.128695068359375,0.294437050819397,0.3683517575263977,0.11667526513338089
1732873142494653000,3.13865283203125,0.28466320037841797,0.3481931984424591,-0.06658431142568588
1732873142504684500,3.1486845703125,0.25534167885780334,0.20586158335208893,-0.24984388053417206
1732873142514673000,3.1586728515625,0.21319197118282318,0.005497787147760391,-0.4098905920982361
1732873142524673800,3.168673828125,0.1722639948129654,-0.16493362188339233,-0.5259549617767334
1732873142534661600,3.17866162109375,0.13744467496871948,-0.2541199326515198,-0.5748242139816284
1732873142544693200,3.188693359375,0.11484266817569733,-0.26022860407829285,-0.5436700582504272
1732873142554650600,3.198650634765625,0.12522737681865692,-0.16004669666290283,-0.3628539443016052
1732873142564682200,3.20868212890625,0.15760323405265808,-0.07941248267889023,-0.182648703455925
1732873142574670000,3.218670166015625,0.19486601650714874,-0.01038470957428217,0.005497787147760391
1732873142584671200,3.228671142578125,0.21563543379306793,0.05314527451992035,0.1722639948129654
1732873142594657500,3.238657470703125,0.20952677726745605,0.09285151958465576,0.28466320037841797
1732873142604689200,3.248689208984375,0.1820378452539444,0.10567969083786011,0.33169981837272644
1732873142614647300,3.258647216796875,0.1459967941045761,0.1014036312699318,0.3170390725135803
1732873142624678100,3.26867822265625,0.09896016865968704,0.07819075137376785,0.25595253705978394
1732873142634666800,3.278666748046875,0.012828170321881771,0.018325956538319588,0.08429940044879913
1732873142644667400,3.28866748046875,-0.054367005825042725,-0.007941247895359993,-0.05375614017248154
1732873142654655700,3.29865576171875,-0.11545353382825851,-0.006108652334660292,-0.18448130786418915
1732873142664686300,3.308686279296875,-0.16920967400074005,0.016493361443281174,-0.2828305959701538
1732873142674644700,3.318644775390625,-0.1973094791173935,0.06475171446800232,-0.30970868468284607
1732873142684676400,3.32867626953125,-0.1918116807937622,0.12767083942890167,-0.2528982162475586
1732873142694665200,3.338665283203125,-0.17043140530586243,0.1875356286764145,-0.13805554807186127
1732873142704666000,3.348666015625,-0.15882496535778046,0.19486601650714874,0.02932153269648552
1732873142714654200,3.358654296875,-0.17104226350784302,0.14355333149433136,0.11178833991289139
1732873142724685800,3.368685791015625,-0.1814269721508026,0.07696902006864548,0.18325957655906677
1732873142734673700,3.378673583984375,-0.18387043476104736,0.012828170321881771,0.25961771607398987
1732873142744674600,3.388674560546875,-0.17959438264369965,-0.02321287989616394,0.342695415019989
1732873142754662700,3.39866259765625,-0.16065755486488342,-0.018936822190880775,0.4153883755207062
1732873142764693500,3.408693603515625,-0.13377949595451355,0.012828170321881771,0.45875978469848633
1732873142774652000,3.41865185546875,-0.11789698898792267,0.08796459436416626,0.45692721009254456
1732873142784682800,3.428682861328125,-0.1313360333442688,0.11484266817569733,0.3903428912162781
1732873142794671400,3.43867138671875,-0.1667662113904953,0.11301007121801376,0.28038713335990906
1732873142804671500,3.44867138671875,-0.22663100063800812,0.08552113175392151,0.14233160018920898
1732873142814660400,3.458660400390625,-0.30054569244384766,0.0403171069920063,-0.00733038317412138
1732873142824692000,3.46869189453125,-0.37262779474258423,-0.004886921960860491,-0.13927727937698364
1732873142834649300,3.4786494140625,-0.43127086758613586,-0.05253441259264946,-0.22357667982578278
1732873142844681000,3.488680908203125,-0.475253164768219,-0.0806342139840126,-0.2474004179239273
1732873142854668800,3.498668701171875,-0.5308418869972229,-0.08918632566928864,-0.2174680233001709
1732873142864670200,3.508670166015625,-0.5540547966957092,-0.06902777403593063,-0.17898350954055786
1732873142874657800,3.51865771484375,-0.5736024379730225,-0.04459316283464432,-0.1264491081237793
1732873142884689400,3.528689453125,-0.5833762884140015,-0.021991148591041565,-0.05619960278272629
1732873142894646800,3.538646728515625,-0.5864306092262268,0.015271631069481373,0.02382374368607998
1732873142904678400,3.548678466796875,-0.5845980644226074,0.06169738993048668,0.10018189996480942
1732873142914666500,3.55866650390625,-0.5723807215690613,0.11362093687057495,0.1722639948129654
1732873142924667600,3.568667724609375,-0.5589417219161987,0.18020524084568024,0.26083946228027344
1732873142934655200,3.5786552734375,-0.5491678714752197,0.19975294172763824,0.294437050819397
1732873142944686300,3.588686279296875,-0.5204572081565857,0.19975294172763824,0.3078760802745819
1732873142954644500,3.59864453125,-0.4807509481906891,0.22357667982578278,0.30970868468284607
1732873142964675600,3.608675537109375,-0.4355469346046448,0.2620611786842346,0.29993483424186707
1732873142974664000,3.618663818359375,-0.384845107793808,0.24862214922904968,0.26572638750076294
1732873142984695000,3.628695068359375,-0.34758231043815613,0.15454891324043274,0.21013765037059784
1732873142994653000,3.63865283203125,-0.3139847218990326,-0.07147123664617538,0.1319468915462494
1732873143004684500,3.6486845703125,-0.294437050819397,-0.2278527319431305,0.10812314599752426
1732873143014672600,3.658672607421875,-0.25045475363731384,-0.36163222789764404,0.13072516024112701
1732873143024673500,3.668673583984375,-0.17837265133857727,-0.4495968222618103,0.18936823308467865
1732873143034661400,3.678661376953125,-0.0910189226269722,-0.47219884395599365,0.2577851414680481
1732873143044693000,3.68869287109375,0.018325956538319588,-0.3481931984424591,0.3066543638706207
1732873143054650400,3.698650390625,0.14233160018920898,-0.08918632566928864,0.3219259977340698
1732873143064680700,3.7086806640625,0.3646865487098694,0.10751228034496307,0.2736676335334778
1732873143074670000,3.718670166015625,0.7586946487426758,0.3188716471195221,0.03237585723400116
1732873143084671200,3.728671142578125,0.7715228199958801,0.5290092825889587,-0.10323622822761536
1732873143094659000,3.7386591796875,0.608421802520752,0.607200026512146,-0.22602014243602753
1732873143104690700,3.748690673828125,0.3689626157283783,0.5564982295036316,-0.33536502718925476
1732873143114648300,3.7586484375,0.14905111491680145,0.3903428912162781,-0.4917465150356293
1732873143124679700,3.7686796875,0.004886921960860491,0.14355333149433136,-0.7079927921295166
1732873143134667500,3.77866748046875,-0.0659734457731247,-0.152105450630188,-0.931569516658783
1732873143144667100,3.788667236328125,-0.08979719132184982,-0.6261368989944458,-1.1282681226730347
1732873143154656500,3.798656494140625,-0.10995574295520782,-0.8833111524581909,-1.0781772136688232
1732873143164688000,3.80868798828125,-0.12767083942890167,-1.0757336616516113,-0.9431759119033813
1732873143174645500,3.8186455078125,-0.13072516024112701,-1.1563678979873657,-0.675616979598999
1732873143184676600,3.828676513671875,-0.13377949595451355,-1.103833556175232,-0.30482175946235657
1732873143194665200,3.838665283203125,-0.1569923609495163,-0.940732479095459,0.10751228034496307
1732873143204664800,3.848664794921875,-0.2119702398777008,-0.7000515460968018,0.5100724697113037
1732873143214654500,3.858654541015625,-0.4245513379573822,-0.2669481039047241,0.979216992855072
1732873143224684500,3.8686845703125,-0.5516113042831421,-0.08735372871160507,1.0977247953414917
1732873143234673700,3.878673583984375,-0.6426302194595337,-0.03848451003432274,1.0403034687042236
1732873143244674600,3.888674560546875,-0.7250970602035522,-0.028099801391363144,0.902247965335846
1732873143254662700,3.89866259765625,-0.8032878041267395,0.00366519158706069,0.759305477142334
1732873143264693200,3.908693359375,-0.8326093554496765,-0.021991148591041565,0.6157521605491638
1732873143274651600,3.918651611328125,-0.8161159753799438,-0.02626720629632473,0.5015203952789307
1732873143284682200,3.92868212890625,-0.7751879692077637,0.08002334833145142,0.4147774875164032
1732873143294671400,3.93867138671875,-0.7330383062362671,0.2669481039047241,0.313373863697052
1732873143304671200,3.948671142578125,-0.7354817390441895,0.3176499307155609,0.23396138846874237
1732873143314660400,3.958660400390625,-0.7550294399261475,0.3237585723400116,0.16249015927314758
1732873143324690700,3.968690673828125,-0.7635815739631653,0.2724458873271942,0.09407325088977814
1732873143334649300,3.9786494140625,-0.7483099102973938,0.25595253705978394,0.03176499158143997
1732873143344680000,3.988679931640625,-0.6927211880683899,0.2272418737411499,0.06414084881544113
1732873143354668800,3.998668701171875,-0.5601634383201599,0.07819075137376785,-0.02076941914856434
1732873143364669700,4.008669677734375,-0.50335294008255,-0.056810468435287476,-0.10384709388017654
1732873143374657800,4.01865771484375,-0.48685958981513977,-0.12889257073402405,-0.13316862285137177
1732873143384689700,4.028689697265625,-0.4489859640598297,-0.13927727937698364,-0.11239920556545258
1732873143394647000,4.03864697265625,-0.3738495409488678,-0.08735372871160507,-0.04642575979232788
1732873143404678700,4.0486787109375,-0.30604347586631775,-0.04153883829712868,0.048258353024721146
1732873143414666500,4.05866650390625,-0.24007004499435425,0.02626720629632473,0.14844025671482086
1732873143424667600,4.068667724609375,-0.17837265133857727,0.08918632566928864,0.24617868661880493
1732873143434655500,4.078655517578125,-0.11789698898792267,0.039706241339445114,0.3335324227809906
1732873143444686800,4.088686767578125,-0.09529497474431992,-0.06414084881544113,0.3536909818649292
1732873143454644500,4.09864453125,-0.08918632566928864,-0.1661553531885147,0.35735616087913513
1732873143464676000,4.108676025390625,-0.08735372871160507,-0.2571742534637451,0.3549126982688904
1732873143474664200,4.118664306640625,-0.08735372871160507,-0.33475416898727417,0.3591887652873993
1732873143484695600,4.128695556640625,-0.07819075137376785,-0.36590829491615295,0.37201693654060364
1732873143494653200,4.138653076171875,-0.05619960278272629,-0.3445279896259308,0.3878994286060333
1732873143504711000,4.1487109375,-0.021380282938480377,-0.2431243658065796,0.38667771220207214
1732873143514672600,4.158672607421875,0.025656340643763542,-0.013439035043120384,0.32009339332580566
1732873143524673000,4.168673095703125,0.039706241339445114,0.12400564551353455,0.2168571650981903
1732873143534661600,4.17866162109375,0.051312681287527084,0.21868975460529327,0.07696902006864548
1732873143544693200,4.188693359375,0.05803219974040985,0.21319197118282318,-0.06230825558304787
1732873143554650600,4.198650634765625,0.05864306539297104,0.11056660860776901,-0.1466076523065567
1732873143564682200,4.20868212890625,0.07757988572120667,-0.029932396486401558,-0.152105450630188
1732873143574670000,4.218670166015625,0.13316862285137177,-0.1264491081237793,-0.09712757170200348
1732873143584671500,4.22867138671875,0.24068090319633484,-0.09040805697441101,0.06475171446800232
1732873143594657500,4.238657470703125,0.304210901260376,-0.054367005825042725,0.14538592100143433
1732873143604689400,4.248689453125,0.3396410644054413,-0.1111774742603302,0.16310101747512817
1732873143614647300,4.258647216796875,0.29016098380088806,-0.24434609711170197,0.03481931984424591
1732873143624678700,4.2686787109375,0.1814269721508026,-0.3799581825733185,-0.2272418737411499
1732873143634666800,4.278666748046875,0.03298672288656235,-0.46670106053352356,-0.4715879559516907
1732873143644666600,4.28866650390625,-0.04703662544488907,-0.41172316670417786,-0.5216789245605469
1732873143654655700,4.29865576171875,0.05497787147760391,-0.03848451003432274,-0.14355333149433136
1732873143664686000,4.30868603515625,0.1661553531885147,0.17348572611808777,0.16920967400074005
1732873143674644700,4.318644775390625,0.23151792585849762,0.23335053026676178,0.31154128909111023
1732873143684675000,4.328675048828125,0.22479841113090515,0.16798794269561768,0.24617868661880493
1732873143694665200,4.338665283203125,0.13866640627384186,0.05803219974040985,0.051312681287527084
1732873143704665900,4.348665771484375,0.006719517521560192,-0.025045474991202354,-0.18631389737129211
1732873143714654200,4.358654296875,-0.10445795953273773,-0.07330382615327835,-0.3927863538265228
1732873143724684300,4.368684326171875,-0.15393804013729095,-0.10812314599752426,-0.5094616413116455
1732873143734674000,4.378673828125,-0.14233160018920898,-0.1716531366109848,-0.4960225820541382
1732873143744674600,4.388674560546875,-0.10690141469240189,-0.22663100063800812,-0.4031710624694824
1732873143754662700,4.39866259765625,-0.05803219974040985,-0.29504790902137756,-0.3072652220726013
1732873143764694000,4.408694091796875,0.012828170321881771,-0.36590829491615295,-0.21991148591041565
1732873143774651600,4.418651611328125,0.05619960278272629,-0.3677408695220947,-0.09224065393209457
1732873143784683300,4.428683349609375,0.0555887371301651,-0.3170390725135803,0.039095375686883926
1732873143794671400,4.43867138671875,0.08552113175392151,-0.24678955972194672,0.1270599663257599
1732873143804672000,4.448672119140625,0.10873401165008545,-0.0806342139840126,0.16371189057826996
1732873143814660400,4.458660400390625,0.09224065393209457,0.02626720629632473,0.15515977144241333
1732873143824691200,4.468691162109375,0.06169738993048668,0.0806342139840126,0.1508837193250656
1732873143834649000,4.478649169921875,0.0354301854968071,0.08002334833145142,0.14294247329235077
1732873143844680200,4.48868017578125,0.024434609338641167,0.051312681287527084,0.13011430203914642
1732873143854668800,4.498668701171875,0.02687807008624077,0.016493361443281174,0.10873401165008545
1732873143864669200,4.508669189453125,0.03787364438176155,-0.02871066704392433,0.07513642311096191
1732873143874657800,4.51865771484375,0.056810468435287476,-0.08002334833145142,-0.003054326167330146
1732873143884689000,4.52868896484375,0.06108652427792549,-0.08979719132184982,-0.059864792972803116
1732873143894647000,4.53864697265625,0.06291911751031876,-0.08002334833145142,-0.11178833991289139
1732873143904678400,4.548678466796875,0.05925392732024193,-0.06291911751031876,-0.13805554807186127
1732873143914666500,4.55866650390625,0.05803219974040985,-0.04092797264456749,-0.1411098688840866
1732873143924667400,4.56866748046875,0.051312681287527084,-0.02871066704392433,-0.12828169763088226
1732873143934655500,4.578655517578125,0.02932153269648552,-0.02015855349600315,-0.10384709388017654
1732873143944686800,4.588686767578125,0.015271631069481373,-0.01466076634824276,-0.06902777403593063
1732873143954644500,4.59864453125,0.03298672288656235,0.02015855349600315,0.003054326167330146
1732873143964676000,4.608676025390625,0.0861319974064827,0.018325956538319588,0.05009094998240471
1732873143974664000,4.618663818359375,0.10873401165008545,0.03787364438176155,0.10751228034496307
1732873143984695600,4.628695556640625,0.10812314599752426,0.05253441259264946,0.16371189057826996
1732873143994653200,4.638653076171875,0.10812314599752426,0.036651913076639175,0.20830504596233368
1732873144004683800,4.648683837890625,0.1160643994808197,-0.00427605677396059,0.2626720666885376
1732873144014672600,4.658672607421875,0.12828169763088226,-0.04642575979232788,0.3194825351238251
1732873144024673500,4.668673583984375,0.1514945775270462,-0.1007927656173706,0.39095374941825867
1732873144034661600,4.67866162109375,0.16554448008537292,-0.1215621829032898,0.42149701714515686
1732873144044693000,4.68869287109375,0.1716531366109848,-0.1319468915462494,0.44715335965156555
1732873144054650400,4.698650390625,0.1814269721508026,-0.1319468915462494,0.47342056035995483
1732873144064681200,4.70868115234375,0.19364428520202637,-0.13255776464939117,0.4905247986316681
1732873144074670000,4.718670166015625,0.19486601650714874,-0.1270599663257599,0.47830748558044434
1732873144084670700,4.728670654296875,0.16982053220272064,-0.13072516024112701,0.42088615894317627
1732873144094659000,4.7386591796875,0.1007927656173706,-0.1368338167667389,0.24923302233219147
1732873144104690200,4.748690185546875,0.04642575979232788,-0.152105450630188,0.10812314599752426
1732873144114648300,4.7586484375,-0.009773843921720982,-0.1722639948129654,-0.031154127791523933
1732873144124679700,4.7686796875,-0.04886921867728233,-0.22052235901355743,-0.14477506279945374
1732873144134667500,4.77866748046875,-0.03481931984424591,-0.31642818450927734,-0.23945917189121246
1732873144144668700,4.788668701171875,-0.05803219974040985,-0.3854559659957886,-0.294437050819397
1732873144154656500,4.798656494140625,-0.1160643994808197,-0.4795292317867279,-0.34086281061172485
1732873144164686800,4.808686767578125,-0.1918116807937622,-0.59803706407547,-0.394618958234787
1732873144174645800,4.818645751953125,-0.3341432809829712,-0.7855727076530457,-0.45142942667007446
1732873144184676000,4.828676025390625,-0.4550946056842804,-0.8967501521110535,-0.4746423065662384
1732873144194665200,4.838665283203125,-0.5528330206871033,-0.9590584635734558,-0.5180137157440186
1732873144204666000,4.848666015625,-0.6493497490882874,-0.9230173826217651,-0.5338962078094482
1732873144214654200,4.858654296875,-0.7086036801338196,-0.7648032903671265,-0.4404338300228119
1732873144224685800,4.868685791015625,-0.6542366743087769,-0.53328537940979,-0.15943582355976105
1732873144234673700,4.878673583984375,-0.5326744914054871,-0.294437050819397,0.28099802136421204
1732873144244675000,4.888675048828125,-0.3695734739303589,-0.0555887371301651,0.8888089060783386
1732873144254662700,4.89866259765625,-0.3286454975605011,0.02076941914856434,1.0848966836929321
1732873144264694000,4.908694091796875,-0.35124751925468445,0.06536258012056351,1.0934487581253052
1732873144274652000,4.91865185546875,-0.40256020426750183,0.0757472887635231,0.940732479095459
1732873144284682800,4.928682861328125,-0.46181413531303406,0.06108652427792549,0.6737843751907349
1732873144294671400,4.93867138671875,-0.5259549617767334,0.0555887371301651,0.35246923565864563
1732873144304672000,4.948672119140625,-0.5876523852348328,0.0555887371301651,0.024434609338641167
1732873144314660400,4.958660400390625,-0.6224716901779175,0.09834930300712585,-0.38240164518356323
1732873144324692000,4.96869189453125,-0.6004805564880371,0.1417207419872284,-0.5491678714752197
1732873144334649000,4.978649169921875,-0.5601634383201599,0.16065755486488342,-0.6383541822433472
1732873144344680700,4.9886806640625,-0.5094616413116455,0.18081611394882202,-0.6426302194595337
1732873144354668800,4.998668701171875,-0.4544837474822998,0.20525072515010834,-0.5638286471366882
1732873144364670000,5.008669921875,-0.4086688458919525,0.22357667982578278,-0.43188172578811646
1732873144374657800,5.01865771484375,-0.3689626157283783,0.23396138846874237,-0.27977627515792847
1732873144384689400,5.028689453125,-0.34147366881370544,0.2528982162475586,-0.1111774742603302
1732873144394647000,5.03864697265625,-0.31031954288482666,0.28955012559890747,0.11911872029304504
1732873144404678700,5.0486787109375,-0.2840523421764374,0.3280346393585205,0.21380282938480377
1732873144414666500,5.05866650390625,-0.26083946228027344,0.35613444447517395,0.2620611786842346
1732873144424667400,5.06866748046875,-0.24678955972194672,0.33719760179519653,0.25961771607398987
1732873144434655500,5.078655517578125,-0.23457226157188416,0.29138273000717163,0.23090706765651703
1732873144444687000,5.08868701171875,-0.19975294172763824,0.24556782841682434,0.19853121042251587
1732873144454644500,5.09864453125,-0.1618792861700058,0.1869247704744339,0.1875356286764145
1732873144464675800,5.10867578125,-0.06658431142568588,0.12461651116609573,0.18814650177955627
1732873144474664000,5.118663818359375,0.00733038317412138,0.12522737681865692,0.19425514340400696
1732873144484695600,5.128695556640625,0.07513642311096191,0.14844025671482086,0.20891591906547546
1732873144494653200,5.138653076171875,0.1612684279680252,0.18387043476104736,0.23518311977386475
1732873144504684500,5.1486845703125,0.2541199326515198,0.20341812074184418,0.27977627515792847
1732873144514673000,5.1586728515625,0.32559117674827576,0.22968533635139465,0.3378084897994995
1732873144524673800,5.168673828125,0.394618958234787,0.21868975460529327,0.3830125033855438
1732873144534661600,5.17866162109375,0.5369505286216736,0.14966198801994324,0.37690386176109314
1732873144544693200,5.188693359375,0.5338962078094482,0.13316862285137177,0.3891211748123169
1732873144554650600,5.198650634765625,0.5082398653030396,0.1062905490398407,0.38667771220207214
1732873144564682200,5.20868212890625,0.5241223573684692,0.07757988572120667,0.3732386529445648
1732873144574670000,5.218670166015625,0.5613851547241211,0.03848451003432274,0.33719760179519653
1732873144584671500,5.22867138671875,0.5876523852348328,0.007941247895359993,0.27000242471694946
1732873144594657500,5.238657470703125,0.6053674817085266,-0.018325956538319588,0.1875356286764145
1732873144604690200,5.248690185546875,0.6133087277412415,-0.045204028487205505,0.12217304855585098
1732873144614647000,5.25864697265625,0.59803706407547,-0.0507018156349659,0.03787364438176155
1732873144624678700,5.2686787109375,0.5858197808265686,-0.0507018156349659,-0.018325956538319588
1732873144634666800,5.278666748046875,0.5962044596672058,-0.06841690838336945,-0.07391469180583954
1732873144644668000,5.28866796875,0.5864306092262268,-0.11545353382825851,-0.12400564551353455
1732873144654655700,5.29865576171875,0.5229006409645081,-0.19425514340400696,-0.18509216606616974
1732873144664687400,5.308687255859375,0.41233405470848083,-0.2669481039047241,-0.26511552929878235
1732873144674644700,5.318644775390625,0.30604347586631775,-0.29138273000717163,-0.33108896017074585
1732873144684676400,5.32867626953125,0.27488934993743896,-0.2791654169559479,-0.3689626157283783
1732873144694665200,5.338665283203125,0.2779437005519867,-0.24007004499435425,-0.35185837745666504
1732873144704666000,5.348666015625,0.2828305959701538,-0.1973094791173935,-0.3341432809829712
1732873144714654200,5.358654296875,0.26633724570274353,-0.18936823308467865,-0.3084869384765625
1732873144724685600,5.368685546875,0.2431243658065796,-0.2021963894367218,-0.26572638750076294
1732873144734673700,5.378673583984375,0.2541199326515198,-0.21991148591041565,-0.1472185254096985
1732873144744675000,5.388675048828125,0.30115658044815063,-0.192422553896904,0.04581489413976669
1732873144754662700,5.39866259765625,0.33719760179519653,-0.13500121235847473,0.2742784917354584
1732873144764693800,5.40869384765625,0.3243694305419922,-0.08918632566928864,0.30543261766433716
1732873144774652000,5.41865185546875,0.28649580478668213,-0.02076941914856434,0.27122417092323303
1732873144784682200,5.42868212890625,0.24373523890972137,0.05803219974040985,0.21441370248794556
1732873144794671400,5.43867138671875,0.21624629199504852,0.10445795953273773,0.13316862285137177
1732873144804671200,5.448671142578125,0.2718350291252136,0.02076941914856434,-0.03420845419168472
1732873144814660400,5.458660400390625,0.30054569244384766,-0.02015855349600315,-0.2382374405860901
1732873144824691500,5.46869140625,0.2871066629886627,-0.029932396486401558,-0.43676865100860596
1732873144834649000,5.478649169921875,0.24190263450145721,-0.05497787147760391,-0.6053674817085266
1732873144844680700,5.4886806640625,0.23090706765651703,-0.07757988572120667,-0.5510004758834839
1732873144854668800,5.498668701171875,0.23335053026676178,-0.056810468435287476,-0.39645153284072876
1732873144864670000,5.508669921875,0.2681698501110077,-0.05375614017248154,-0.2021963894367218
1732873144874657800,5.51865771484375,0.3188716471195221,-0.02015855349600315,0.007941247895359993
1732873144884689400,5.528689453125,0.36651915311813354,0.07269296050071716,0.20952677726745605
1732873144894646800,5.538646728515625,0.4141666293144226,0.1722639948129654,0.39156460762023926
1732873144904677000,5.548677001953125,0.4715879559516907,0.2590068578720093,0.6047565937042236
1732873144914666200,5.558666259765625,0.48380526900291443,0.2480112910270691,0.6548475623130798
1732873144924666600,5.56866650390625,0.47769662737846375,0.19120082259178162,0.6499606370925903
1732873144934655200,5.5786552734375,0.46547931432724,0.11056660860776901,0.6029239892959595
1732873144944686300,5.588686279296875,0.4544837474822998,0.03298672288656235,0.5125159621238708
1732873144954644500,5.59864453125,0.4386012554168701,-0.019547687843441963,0.39645153284072876
1732873144964675300,5.60867529296875,0.4098905920982361,-0.04092797264456749,0.25961771607398987
1732873144974664000,5.618663818359375,0.3494149148464203,-0.013439035043120384,0.039095375686883926
1732873144984695000,5.628695068359375,0.31031954288482666,0.036651913076639175,-0.09529497474431992
1732873144994653000,5.63865283203125,0.2822197377681732,0.10384709388017654,-0.20341812074184418
1732873145004684300,5.648684326171875,0.2638937830924988,0.15821409225463867,-0.2785545587539673
1732873145014672600,5.658672607421875,0.2626720666885376,0.15943582355976105,-0.30970868468284607
1732873145024673500,5.668673583984375,0.27000242471694946,0.15821409225463867,-0.2919935882091522
1732873145034661600,5.67866162109375,0.2736676335334778,0.14477506279945374,-0.2370157092809677
1732873145044693200,5.688693359375,0.2791654169559479,0.11301007121801376,-0.15760323405265808
1732873145054650400,5.698650390625,0.3078760802745819,0.08552113175392151,-0.006719517521560192
1732873145064681500,5.708681396484375,0.3433062732219696,0.08796459436416626,0.1014036312699318
1732873145074670000,5.718670166015625,0.3738495409488678,0.09896016865968704,0.1966986060142517
1732873145084670700,5.728670654296875,0.39095374941825867,0.0959058403968811,0.24556782841682434
1732873145094659000,5.7386591796875,0.3842342495918274,0.0708603709936142,0.22968533635139465
1732873145104690200,5.748690185546875,0.3500257730484009,0.021991148591041565,0.16432274878025055
1732873145114648300,5.7586484375,0.30543261766433716,-0.039095375686883926,0.07391469180583954
1732873145124679200,5.76867919921875,0.2370157092809677,-0.11728613078594208,-0.05925392732024193
1732873145134667500,5.77866748046875,0.19975294172763824,-0.15515977144241333,-0.14477506279945374
1732873145144668000,5.78866796875,0.16798794269561768,-0.20097467303276062,-0.21319197118282318
1732873145154656500,5.798656494140625,0.1368338167667389,-0.25473082065582275,-0.24984388053417206
1732873145164688000,5.80868798828125,0.10323622822761536,-0.30482175946235657,-0.26633724570274353
1732873145174645500,5.8186455078125,0.07513642311096191,-0.31581732630729675,-0.2932153046131134
1732873145184677000,5.828677001953125,0.0555887371301651,-0.27550023794174194,-0.3378084897994995
1732873145194665200,5.838665283203125,0.006719517521560192,-0.2028072625398636,-0.46853363513946533
1732873145204664800,5.848664794921875,-0.054367005825042725,-0.21319197118282318,-0.6108652353286743
1732873145214654500,5.858654541015625,-0.14233160018920898,-0.31031954288482666,-0.7684684991836548
1732873145224684500,5.8686845703125,-0.2480112910270691,-0.48808133602142334,-0.9150761365890503
1732873145234673700,5.878673583984375,-0.3500257730484009,-0.6884451508522034,-0.9932668805122375
1732873145244673500,5.888673583984375,-0.44226643443107605,-0.8704829812049866,-0.9755517840385437
1732873145254662700,5.89866259765625,-0.5351179838180542,-0.9731083512306213,-0.826500654220581
1732873145264694300,5.9086943359375,-0.5754350423812866,-0.998153805732727,-0.5363397002220154
1732873145274651600,5.918651611328125,-0.5406157374382019,-0.8582656979560852,0.05925392732024193
1732873145284683300,5.928683349609375,-0.4758640229701996,-0.6731734871864319,0.4392121136188507
1732873145294671400,5.93867138671875,-0.4056145250797272,-0.44287729263305664,0.6743952035903931
1732873145304672300,5.94867236328125,-0.37262779474258423,-0.21563543379306793,0.7098253965377808
1732873145314660400,5.958660400390625,-0.3781255781650543,-0.02321287989616394,0.5974262356758118
1732873145324692000,5.96869189453125,-0.40194934606552124,0.11239920556545258,0.394008070230484
1732873145334649000,5.978649169921875,-0.4331034719944,0.21624629199504852,0.14966198801994324
1732873145344679700,5.9886796875,-0.4954117238521576,0.2889392673969269,-0.21624629199504852
1732873145354668800,5.998668701171875,-0.5393940210342407,0.28038713335990906,-0.3842342495918274
1732873145364668400,6.00866845703125,-0.5638286471366882,0.23335053026676178,-0.4331034719944
1732873145374657800,6.01865771484375,-0.5558874011039734,0.17348572611808777,-0.3341432809829712
1732873145384688400,6.0286884765625,-0.4966334402561188,0.11301007121801376,-0.09957103431224823
1732873145394647000,6.03864697265625,-0.4202753007411957,0.060475658625364304,0.1765400618314743
1732873145404678700,6.0486787109375,-0.3738495409488678,0.018936822190880775,0.37079519033432007
1732873145414666500,6.05866650390625,-0.37751471996307373,0.05864306539297104,0.4502076804637909
1732873145424667400,6.06866748046875,-0.4031710624694824,0.08674286305904388,0.4050036668777466
1732873145434655500,6.078655517578125,-0.4282165467739105,0.11789698898792267,0.3280346393585205
1732873145444686300,6.088686279296875,-0.4331034719944,0.15271630883216858,0.2565633952617645
1732873145454644500,6.09864453125,-0.42210787534713745,0.1814269721508026,0.21624629199504852
1732873145464676000,6.108676025390625,-0.39645153284072876,0.1966986060142517,0.21563543379306793
1732873145474664200,6.118664306640625,-0.36713001132011414,0.182648703455925,0.24129177629947662
1732873145484695600,6.128695556640625,-0.34697145223617554,0.13561208546161652,0.2730567753314972
1732873145494653200,6.138653076171875,-0.3384193480014801,0.01771509274840355,0.28527405858039856
1732873145504713000,6.148712890625,-0.34147366881370544,-0.05009094998240471,0.27122417092323303
1732873145514672600,6.158672607421875,-0.3341432809829712,-0.08246681094169617,0.24129177629947662
1732873145524673800,6.168673828125,-0.3090978264808655,-0.05619960278272629,0.21013765037059784
1732873145534661600,6.17866162109375,-0.2669481039047241,-0.0024434609804302454,0.18387043476104736
1732873145544693200,6.188693359375,-0.2125810980796814,0.05742133408784866,0.16249015927314758
1732873145554650600,6.198650634765625,-0.16310101747512817,0.09773843735456467,0.14782938361167908
1732873145564682200,6.20868212890625,-0.10323622822761536,0.13316862285137177,0.12767083942890167
1732873145574670000,6.218670166015625,-0.08185594528913498,0.15027284622192383,0.10018189996480942
1732873145584671200,6.228671142578125,-0.07330382615327835,0.13866640627384186,0.06108652427792549
1732873145594657500,6.238657470703125,-0.07208210229873657,0.08857546001672745,0.03481931984424591
1732873145604689700,6.248689697265625,-0.06414084881544113,0.0507018156349659,0.036651913076639175
1732873145614647300,6.258647216796875,-0.04642575979232788,0.03787364438176155,0.06536258012056351
1732873145624678700,6.2686787109375,-0.01038470957428217,0.04764748737215996,0.11178833991289139
1732873145634666800,6.278666748046875,0.06963863968849182,0.10690141469240189,0.2028072625398636
1732873145644668000,6.28866796875,0.11972958594560623,0.14049901068210602,0.2718350291252136
1732873145654655700,6.29865576171875,0.15821409225463867,0.1661553531885147,0.33597588539123535
1732873145664687400,6.308687255859375,0.17287486791610718,0.14905111491680145,0.35552358627319336
1732873145674644700,6.318644775390625,0.16249015927314758,0.09468411654233932,0.3237585723400116
1732873145684676400,6.32867626953125,0.13805554807186127,0.036651913076639175,0.2528982162475586
1732873145694665200,6.338665283203125,0.10751228034496307,-0.02076941914856434,0.1722639948129654
1732873145704666000,6.348666015625,0.07880161702632904,-0.06536258012056351,0.10201449692249298
1732873145714654200,6.358654296875,0.056810468435287476,-0.1007927656173706,0.03298672288656235
1732873145724685800,6.368685791015625,0.05803219974040985,-0.09346238523721695,0.02626720629632473
1732873145734674000,6.378673828125,0.06902777403593063,-0.05619960278272629,0.04948008432984352
1732873145744675000,6.388675048828125,0.08124507963657379,-0.01038470957428217,0.08246681094169617
1732873145754662700,6.39866259765625,0.09040805697441101,0.02687807008624077,0.1062905490398407
1732873145764694300,6.4086943359375,0.09773843735456467,0.042760565876960754,0.10995574295520782
1732873145774651600,6.418651611328125,0.09712757170200348,0.015271631069481373,0.07880161702632904
1732873145784683300,6.428683349609375,0.08246681094169617,-0.08735372871160507,-0.00427605677396059
1732873145794671400,6.43867138671875,0.05925392732024193,-0.15577064454555511,-0.06352998316287994
1732873145804672300,6.44867236328125,0.033597588539123535,-0.2119702398777008,-0.10751228034496307
1732873145814660400,6.458660400390625,0.005497787147760391,-0.26083946228027344,-0.12400564551353455
1732873145824691000,6.46869091796875,-0.0354301854968071,-0.3341432809829712,-0.13988813757896423
1732873145834649000,6.478649169921875,-0.08674286305904388,-0.42577308416366577,-0.17898350954055786
1732873145844680700,6.4886806640625,-0.14782938361167908,-0.5064072608947754,-0.22418753802776337
1732873145854668800,6.498668701171875,-0.21135938167572021,-0.5186246037483215,-0.21380282938480377
1732873145864670000,6.508669921875,-0.20525072515010834,-0.4349360466003418,-0.09162978827953339
1732873145874657800,6.51865771484375,-0.1508837193250656,-0.303600013256073,0.11545353382825851
1732873145884688100,6.528688232421875,-0.09162978827953339,-0.19303341209888458,0.34574973583221436
1732873145894647000,6.53864697265625,-0.05925392732024193,-0.1319468915462494,0.5302310585975647
1732873145904677000,6.548677001953125,-0.06230825558304787,-0.11911872029304504,0.6328563690185547
1732873145914666200,6.558666259765625,-0.07757988572120667,-0.1160643994808197,0.6334672570228577
1732873145924668400,6.56866845703125,-0.09346238523721695,-0.11850785464048386,0.5009095072746277
1732873145934655500,6.578655517578125,-0.13500121235847473,-0.09040805697441101,0.09285151958465576
1732873145944688600,6.588688720703125,-0.17043140530586243,-0.06414084881544113,-0.24129177629947662
1732873145954644200,6.598644287109375,-0.20036379992961884,-0.02871066704392433,-0.5644394755363464
1732873145964675300,6.60867529296875,-0.23396138846874237,-0.00427605677396059,-0.8301658630371094
1732873145974664000,6.618663818359375,-0.2730567753314972,-0.01160643994808197,-1.0005972385406494
1732873145984695600,6.628695556640625,-0.3121521472930908,-0.02687807008624077,-1.0879509449005127
1732873145994653200,6.638653076171875,-0.3433062732219696,-0.04153883829712868,-1.0476338863372803
1732873146004684500,6.6486845703125,-0.3176499307155609,-0.02871066704392433,-0.7073819637298584
1732873146014672600,6.658672607421875,-0.24434609711170197,0.0507018156349659,-0.2919935882091522
1732873146024673500,6.668673583984375,-0.152105450630188,0.15454891324043274,0.17531833052635193
1732873146034661600,6.67866162109375,-0.06719517707824707,0.22846360504627228,0.5711590051651001
1732873146044692700,6.688692626953125,-0.005497787147760391,0.27611109614372253,0.8203920125961304
1732873146054650400,6.698650390625,0.02321287989616394,0.30543261766433716,0.9285151958465576
1732873146064681500,6.708681396484375,0.01771509274840355,0.2968805134296417,0.9138544201850891
1732873146074670000,6.718670166015625,-0.01160643994808197,0.24678955972194672,0.740368664264679
1732873146084670500,6.72867041015625,-0.039706241339445114,0.19425514340400696,0.5644394755363464
1732873146094659000,6.7386591796875,-0.0757472887635231,0.1459967941045761,0.36224308609962463
1732873146104690200,6.748690185546875,-0.12278391420841217,0.08857546001672745,0.15577064454555511
1732873146114648000,6.75864794921875,-0.17409659922122955,0.028099801391363144,-0.02015855349600315
1732873146124679200,6.76867919921875,-0.22418753802776337,-0.02382374368607998,-0.15393804013729095
1732873146134667500,6.77866748046875,-0.2632829248905182,-0.05803219974040985,-0.24129177629947662
1732873146144668000,6.78866796875,-0.28955012559890747,-0.07269296050071716,-0.28588494658470154
1732873146154656500,6.798656494140625,-0.30054569244384766,-0.06536258012056351,-0.27122417092323303
1732873146164688400,6.8086884765625,-0.2889392673969269,-0.048258353024721146,-0.20952677726745605
1732873146174645500,6.8186455078125,-0.2791654169559479,-0.03726277872920036,-0.1258382350206375
1732873146184677400,6.828677490234375,-0.2669481039047241,-0.04948008432984352,-0.02382374368607998
1732873146194665200,6.838665283203125,-0.24984388053417206,-0.0757472887635231,0.0757472887635231
1732873146204665600,6.84866552734375,-0.24190263450145721,-0.14233160018920898,0.14966198801994324
1732873146214654200,6.858654296875,-0.2535090744495392,-0.21135938167572021,0.1814269721508026
1732873146224685600,6.868685546875,-0.31520646810531616,-0.342695415019989,0.13988813757896423
1732873146234674000,6.878673828125,-0.37262779474258423,-0.45692721009254456,0.08185594528913498
1732873146244674300,6.88867431640625,-0.4153883755207062,-0.5558874011039734,0.04337143152952194
1732873146254663000,6.898662841796875,-0.44776421785354614,-0.6133087277412415,0.027488935738801956
1732873146264693800,6.90869384765625,-0.4697553813457489,-0.6200281977653503,0.0354301854968071
1732873146274652000,6.91865185546875,-0.48197266459465027,-0.5919284224510193,0.06291911751031876
1732873146284682800,6.928682861328125,-0.49357911944389343,-0.5436700582504272,0.10445795953273773
1732873146294671400,6.93867138671875,-0.5180137157440186,-0.4434881806373596,0.11178833991289139
1732873146304672000,6.948672119140625,-0.5412266254425049,-0.36224308609962463,0.03481931984424591
1732873146314660400,6.958660400390625,-0.5681046843528748,-0.2773328125476837,-0.12278391420841217
1732873146324691200,6.968691162109375,-0.6126978397369385,-0.20463985204696655,-0.3439171314239502
1732873146334649000,6.978649169921875,-0.675616979598999,-0.2168571650981903,-0.5815436840057373
1732873146344681000,6.988680908203125,-0.759305477142334,-0.2981022298336029,-0.808174729347229
1732873146354668800,6.998668701171875,-0.8765916228294373,-0.45875978469848633,-0.9486737251281738
1732873146364670000,7.008669921875,-0.9663888216018677,-0.5809328556060791,-0.8570439219474792
1732873146374657800,7.01865771484375,-0.8875871896743774,-0.5619960427284241,-0.18814650177955627
1732873146384688600,7.028688720703125,-0.7018841505050659,-0.4489859640598297,0.46853363513946533
1732873146394647000,7.03864697265625,-0.5259549617767334,-0.3121521472930908,1.0201449394226074
1732873146404676900,7.0486767578125,-0.4404338300228119,-0.19120082259178162,1.302364706993103
1732873146414666500,7.05866650390625,-0.4343251883983612,-0.09896016865968704,1.2974777221679688
1732873146424667100,7.068667236328125,-0.4691445231437683,-0.02382374368607998,1.0574077367782593
1732873146434655500,7.078655517578125,-0.5351179838180542,0.04398229718208313,0.6511823534965515
1732873146444688000,7.08868798828125,-0.66584312915802,0.05864306539297104,-0.05192354694008827
1732873146454644500,7.09864453125,-0.7452555894851685,0.009162978269159794,-0.4709770977497101
1732873146464676000,7.108676025390625,-0.7959573864936829,-0.06902777403593063,-0.7422012686729431
1732873146474664000,7.118663818359375,-0.8185594081878662,-0.152105450630188,-0.8570439219474792
1732873146484695600,7.128695556640625,-0.8258898258209229,-0.2223549485206604,-0.8503243923187256
1732873146494653200,7.138653076171875,-0.8118399381637573,-0.24678955972194672,-0.7250970602035522
1732873146504684800,7.148684814453125,-0.7831292152404785,-0.19486601650714874,-0.4990769028663635
1732873146514673000,7.1586728515625,-0.7079927921295166,-0.022602014243602753,-0.0806342139840126
1732873146524673800,7.168673828125,-0.6530149579048157,0.10323622822761536,0.17348572611808777
1732873146534661600,7.17866162109375,-0.6059783101081848,0.21930062770843506,0.3500257730484009
1732873146544693500,7.188693603515625,-0.5681046843528748,0.294437050819397,0.43799036741256714
1732873146554650600,7.198650634765625,-0.5412266254425049,0.3194825351238251,0.45875978469848633
1732873146564682500,7.2086826171875,-0.5094616413116455,0.2919935882091522,0.4386012554168701
1732873146574670300,7.21867041015625,-0.4715879559516907,0.24617868661880493,0.394618958234787
1732873146584671500,7.22867138671875,-0.4440990388393402,0.18997909128665924,0.32070425152778625
1732873146594657500,7.238657470703125,-0.41722095012664795,0.11850785464048386,0.1869247704744339
1732873146604690200,7.248690185546875,-0.4050036668777466,0.09896016865968704,0.10567969083786011
1732873146614647300,7.258647216796875,-0.3952298164367676,0.1062905490398407,0.05192354694008827
1732873146624679000,7.268678955078125,-0.3732386529445648,0.12950342893600464,0.031154127791523933
1732873146634666800,7.278666748046875,-0.34758231043815613,0.15393804013729095,0.0354301854968071
1732873146644668000,7.28866796875,-0.3139847218990326,0.16982053220272064,0.054367005825042725
1732873146654655700,7.29865576171875,-0.28466320037841797,0.1618792861700058,0.06902777403593063
1732873146664687600,7.3086875,-0.2480112910270691,0.12828169763088226,0.07024950534105301
1732873146674644700,7.318644775390625,-0.21868975460529327,0.12095131725072861,0.07147123664617538
1732873146684676600,7.328676513671875,-0.19058994948863983,0.12461651116609573,0.08002334833145142
1732873146694665200,7.338665283203125,-0.15454891324043274,0.13500121235847473,0.0910189226269722
1732873146704666400,7.348666259765625,-0.11545353382825851,0.14782938361167908,0.11423180252313614
1732873146714654200,7.358654296875,-0.07941248267889023,0.16982053220272064,0.13927727937698364
1732873146724685800,7.368685791015625,-0.045204028487205505,0.17348572611808777,0.15271630883216858
1732873146734673700,7.378673583984375,-0.00733038317412138,0.15027284622192383,0.15271630883216858
1732873146744674600,7.388674560546875,0.00366519158706069,0.10323622822761536,0.12095131725072861
1732873146754662700,7.39866259765625,-0.0024434609804302454,0.05314527451992035,0.07391469180583954
1732873146764694000,7.408694091796875,-0.0012217304902151227,0.012217304669320583,0.03787364438176155
1732873146774651600,7.418651611328125,0.02015855349600315,-0.00427605677396059,0.02076941914856434
1732873146784683300,7.428683349609375,0.04948008432984352,0.009773843921720982,0.010995574295520782
1732873146794671400,7.43867138671875,0.08552113175392151,0.05742133408784866,-0.004886921960860491
1732873146804671700,7.448671630859375,0.11789698898792267,0.13255776464939117,-0.045204028487205505
1732873146814660400,7.458660400390625,0.12034045159816742,0.2571742534637451,-0.2174680233001709
1732873146824691500,7.46869140625,0.07941248267889023,0.26450464129447937,-0.4434881806373596
1732873146834649000,7.478649169921875,-0.014049900695681572,0.19120082259178162,-0.7061602473258972
1732873146844680700,7.4886806640625,-0.10873401165008545,0.06780604273080826,-0.9046914577484131
1732873146854668800,7.498668701171875,-0.15515977144241333,-0.10445795953273773,-0.9370672702789307
1732873146864670000,7.508669921875,-0.12950342893600464,-0.2583959996700287,-0.7550294399261475
1732873146874657800,7.51865771484375,-0.04642575979232788,-0.33292156457901,-0.39706242084503174
1732873146884688000,7.52868798828125,0.09712757170200348,-0.3170390725135803,0.22968533635139465
1732873146894647000,7.53864697265625,0.14905111491680145,-0.2278527319431305,0.5510004758834839
1732873146904677600,7.548677734375,0.15577064454555511,-0.1062905490398407,0.7348709106445312
1732873146914666500,7.55866650390625,0.12095131725072861,0.006108652334660292,0.7574729323387146
1732873146924668400,7.56866845703125,0.059864792972803116,0.09773843735456467,0.6414085030555725
1732873146934655500,7.578655517578125,-0.010995574295520782,0.16493362188339233,0.4147774875164032
1732873146944687900,7.58868798828125,-0.06108652427792549,0.20097467303276062,0.09957103431224823
1732873146954644200,7.598644287109375,-0.09346238523721695,0.21013765037059784,-0.45204028487205505
1732873146964676900,7.6086767578125,-0.07880161702632904,0.14905111491680145,-0.79840087890625
1732873146974664000,7.618663818359375,-0.04337143152952194,0.07269296050071716,-1.0506882667541504
1732873146984694300,7.6286943359375,-0.009773843921720982,-0.028099801391363144,-1.188132882118225
1732873146994653000,7.63865283203125,0.010995574295520782,-0.16310101747512817,-1.226617455482483
1732873147004684500,7.6486845703125,0.02321287989616394,-0.2638937830924988,-1.1362093687057495
1732873147014672600,7.658672607421875,0.03298672288656235,-0.2932153046131134,-0.9266825914382935
1732873147024673500,7.668673583984375,0.05375614017248154,-0.242513507604599,-0.6401867866516113
1732873147034661600,7.67866162109375,0.11056660860776901,-0.03848451003432274,-0.12461651116609573
1732873147044693000,7.68869287109375,0.1722639948129654,0.1313360333442688,0.21380282938480377
1732873147054650400,7.698650390625,0.25106561183929443,0.2730567753314972,0.4917465150356293
1732873147064682000,7.708681884765625,0.32009339332580566,0.3182607889175415,0.685390830039978
1732873147074670000,7.718670166015625,0.3689626157283783,0.2742784917354584,0.7837401032447815
1732873147084670700,7.728670654296875,0.39706242084503174,0.2028072625398636,0.7953465580940247
1732873147094659000,7.7386591796875,0.4105014503002167,0.11911872029304504,0.7483099102973938
1732873147104690200,7.748690185546875,0.40194934606552124,0.00733038317412138,0.5717698931694031
1732873147114648300,7.7586484375,0.3793473243713379,-0.04948008432984352,0.394008070230484
1732873147124681200,7.76868115234375,0.34574973583221436,-0.0861319974064827,0.2015855312347412
1732873147134667500,7.77866748046875,0.3182607889175415,-0.1014036312699318,0.006108652334660292
1732873147144668200,7.788668212890625,0.2926044464111328,-0.09407325088977814,-0.18509216606616974
1732873147154656500,7.798656494140625,0.2620611786842346,-0.08735372871160507,-0.35063666105270386
1732873147164687600,7.8086875,0.23518311977386475,-0.11056660860776901,-0.4789183437824249
1732873147174645500,7.8186455078125,0.2223549485206604,-0.15943582355976105,-0.5552765130996704
1732873147184677000,7.828677001953125,0.24434609711170197,-0.2028072625398636,-0.5088507533073425
1732873147194665200,7.838665283203125,0.29077184200286865,-0.2223549485206604,-0.39706242084503174
1732873147204666400,7.848666259765625,0.342695415019989,-0.21807889640331268,-0.24862214922904968
1732873147214654200,7.858654296875,0.3952298164367676,-0.2070833146572113,-0.08307767659425735
1732873147224685800,7.868685791015625,0.4398229718208313,-0.19792033731937408,0.08491026610136032
1732873147234673700,7.878673583984375,0.46364670991897583,-0.19792033731937408,0.21380282938480377
1732873147244675000,7.888675048828125,0.46547931432724,-0.19486601650714874,0.29077184200286865
1732873147254662700,7.89866259765625,0.42088615894317627,-0.21502456068992615,0.3219259977340698
1732873147264693800,7.90869384765625,0.3793473243713379,-0.23151792585849762,0.30482175946235657
1732873147274652000,7.91865185546875,0.3390302062034607,-0.24129177629947662,0.2773328125476837
1732873147284683300,7.928683349609375,0.30054569244384766,-0.24678955972194672,0.24923302233219147
1732873147294671400,7.93867138671875,0.2583959996700287,-0.24190263450145721,0.23029619455337524
1732873147304671700,7.948671630859375,0.18936823308467865,-0.21563543379306793,0.21930062770843506
1732873147314660400,7.958660400390625,0.14782938361167908,-0.24068090319633484,0.1973094791173935
1732873147324691000,7.96869091796875,0.15760323405265808,-0.3903428912162781,0.04948008432984352
1732873147334649300,7.9786494140625,0.16798794269561768,-0.5308418869972229,-0.11239920556545258
1732873147344679700,7.9886796875,0.1270599663257599,-0.6780604124069214,-0.2889392673969269
1732873147354668800,7.998668701171875,-0.012828170321881771,-0.817337691783905,-0.4508185386657715
1732873147364668700,8.008668701171874,-0.21991148591041565,-0.9437867999076843,-0.5558874011039734
1732873147374657800,8.01865771484375,-0.4092797040939331,-1.0293079614639282,-0.5528330206871033
1732873147384689400,8.028689453125,-0.5613851547241211,-0.9450085163116455,-0.37568211555480957
1732873147394647000,8.03864697265625,-0.5687155723571777,-0.44165557622909546,0.2736676335334778
1732873147404677400,8.048677490234375,-0.4178318381309509,-0.01160643994808197,0.817948579788208
1732873147414666500,8.05866650390625,-0.21868975460529327,0.33292156457901,1.244943380355835
1732873147424666000,8.068666015625,-0.03787364438176155,0.484416127204895,1.4477506875991821
1732873147434655500,8.078655517578126,0.07452555745840073,0.5155702829360962,1.395827054977417
1732873147444688000,8.08868798828125,0.14844025671482086,0.47342056035995483,1.0965031385421753
1732873147454644500,8.09864453125,0.20341812074184418,0.3927863538265228,0.6053674817085266
1732873147464679000,8.108678955078124,0.20036379992961884,0.3274237811565399,0.021991148591041565
1732873147474664000,8.118663818359375,0.10751228034496307,0.2681698501110077,-0.7623597979545593
1732873147484694300,8.1286943359375,0.09407325088977814,0.1667662113904953,-1.0958921909332275
1732873147494653200,8.138653076171876,0.06719517707824707,0.06414084881544113,-1.2272282838821411
1732873147504713000,8.148712890625,0.04214970022439957,-0.06780604273080826,-1.1838568449020386
1732873147514672600,8.158672607421876,0.09040805697441101,-0.17592918872833252,-1.0195341110229492
1732873147524673800,8.168673828125,0.1966986060142517,-0.2272418737411499,-0.7544185519218445
1732873147534661600,8.17866162109375,0.29504790902137756,-0.20586158335208893,-0.4343251883983612
1732873147544693200,8.188693359375,0.3988949954509735,-0.05375614017248154,0.021380282938480377
1732873147554651000,8.19865087890625,0.44287729263305664,0.06719517707824707,0.2376265823841095
1732873147564681000,8.208680908203124,0.494189977645874,0.1563815027475357,0.35185837745666504
1732873147574670000,8.218670166015626,0.5723807215690613,0.19058994948863983,0.38117989897727966
1732873147584671500,8.22867138671875,0.6627888083457947,0.15821409225463867,0.3579670190811157
1732873147594657500,8.238657470703124,0.7507534027099609,0.07452555745840073,0.3182607889175415
1732873147604690000,8.24868994140625,0.8338310718536377,-0.0012217304902151227,0.2974913716316223
1732873147614647300,8.258647216796875,0.9034696817398071,-0.08246681094169617,0.3628539443016052
1732873147624678700,8.2686787109375,0.9205739498138428,-0.08002334833145142,0.4605923891067505
1732873147634666800,8.278666748046875,0.9266825914382935,-0.05864306539297104,0.5296201705932617
1732873147644668000,8.28866796875,0.921184778213501,-0.03420845419168472,0.5461135506629944
1732873147654655700,8.29865576171875,0.8991936445236206,0.007941247895359993,0.5143485069274902
1732873147664687400,8.308687255859375,0.8808676600456238,0.07635815441608429,0.4508185386657715
1732873147674644700,8.318644775390625,0.8747590184211731,0.18325957655906677,0.38117989897727966
1732873147684675300,8.32867529296875,0.8680394887924194,0.2932153046131134,0.323147714138031
1732873147694665200,8.338665283203126,0.779464066028595,0.27977627515792847,0.2767219543457031
1732873147704664800,8.348664794921875,0.7171558141708374,0.21380282938480377,0.2571742534637451
1732873147714654200,8.358654296875,0.6701191663742065,0.1569923609495163,0.23884831368923187
1732873147724686000,8.36868603515625,0.6322455406188965,0.13255776464939117,0.23151792585849762
1732873147734673700,8.378673583984375,0.5815436840057373,0.11728613078594208,0.2773328125476837
1732873147744675000,8.388675048828125,0.53328537940979,0.10873401165008545,0.36102136969566345
1732873147754662700,8.39866259765625,0.5076290369033813,0.13927727937698364,0.4331034719944
1732873147764694500,8.408694580078125,0.523511528968811,0.19486601650714874,0.5174028873443604
1732873147774651600,8.418651611328125,0.5296201705932617,0.24007004499435425,0.5711590051651001
1732873147784683300,8.428683349609376,0.5057964324951172,0.2974913716316223,0.5962044596672058
1732873147794671400,8.43867138671875,0.4789183437824249,0.36713001132011414,0.5778785347938538
1732873147804672300,8.44867236328125,0.46547931432724,0.484416127204895,0.5192354321479797
1732873147814660600,8.45866064453125,0.4905247986316681,0.6646214127540588,0.4294382631778717
1732873147824692000,8.46869189453125,0.5400048494338989,0.8032878041267395,0.3188716471195221
1732873147834649300,8.4786494140625,0.6682865619659424,0.8967501521110535,0.11789698898792267
1732873147844681000,8.488680908203126,0.759305477142334,0.8332201838493347,0.014049900695681572
1732873147854668800,8.498668701171875,0.8216137290000916,0.6328563690185547,-0.048258353024721146
1732873147864669400,8.50866943359375,0.8460483551025391,0.37079519033432007,-0.07696902006864548
1732873147874657800,8.51865771484375,0.8338310718536377,0.13377949595451355,-0.07941248267889023
1732873147884689200,8.528689208984375,0.7727445363998413,-0.02932153269648552,-0.05864306539297104
1732873147894647000,8.53864697265625,0.6780604124069214,-0.1111774742603302,-0.05742133408784866
1732873147904678100,8.54867822265625,0.5540547966957092,-0.1313360333442688,-0.08979719132184982
1732873147914666500,8.55866650390625,0.3836233615875244,-0.05803219974040985,-0.18936823308467865
1732873147924666400,8.568666259765624,0.3072652220726013,0.001832595793530345,-0.26511552929878235
1732873147934655500,8.578655517578126,0.24678955972194672,0.06902777403593063,-0.30054569244384766
1732873147944685800,8.588685791015624,0.2272418737411499,0.11362093687057495,-0.2889392673969269
1732873147954644500,8.59864453125,0.2535090744495392,0.07880161702632904,-0.251676470041275
1732873147964674800,8.6086748046875,0.31581732630729675,-0.0024434609804302454,-0.21013765037059784
1732873147974664000,8.618663818359375,0.38240164518356323,-0.12767083942890167,-0.18020524084568024
1732873147984694800,8.62869482421875,0.44226643443107605,-0.24617868661880493,-0.17104226350784302
1732873147994653200,8.638653076171876,0.4502076804637909,-0.2070833146572113,-0.1869247704744339
1732873148004684300,8.648684326171875,0.42149701714515686,-0.12095131725072861,-0.21807889640331268
1732873148014672600,8.658672607421876,0.36713001132011414,-0.014049900695681572,-0.26083946228027344
1732873148024673000,8.668673095703125,0.3323107063770294,0.10018189996480942,-0.31642818450927734
1732873148034661600,8.67866162109375,0.3139847218990326,0.16982053220272064,-0.3732386529445648
1732873148044692500,8.6886923828125,0.2987131178379059,0.12339477986097336,-0.3995058834552765
1732873148054650600,8.698650634765626,0.2730567753314972,-0.04214970022439957,-0.3634648323059082
1732873148064682000,8.708681884765625,0.23945917189121246,-0.37201693654060364,-0.30543261766433716
1732873148074670000,8.718670166015626,0.2125810980796814,-0.5448917746543884,-0.22602014243602753
1732873148084671000,8.7286708984375,0.18936823308467865,-0.6298020482063293,-0.13500121235847473
1732873148094659000,8.7386591796875,0.17592918872833252,-0.6322455406188965,-0.04764748737215996
1732873148104690700,8.748690673828126,0.15943582355976105,-0.5821545720100403,0.021991148591041565
1732873148114648300,8.7586484375,0.14782938361167908,-0.4593706727027893,0.06230825558304787
1732873148124679700,8.7686796875,0.15393804013729095,-0.28466320037841797,0.03420845419168472
1732873148134667500,8.77866748046875,0.16249015927314758,-0.0555887371301651,-0.09896016865968704
1732873148144669000,8.7886689453125,0.15393804013729095,0.04764748737215996,-0.18387043476104736
1732873148154656800,8.79865673828125,0.12767083942890167,0.08429940044879913,-0.2565633952617645
1732873148164688100,8.808688232421876,0.10995574295520782,0.06658431142568588,-0.342695415019989
1732873148174645500,8.8186455078125,0.10873401165008545,0.018325956538319588,-0.4593706727027893
1732873148184677000,8.828677001953125,0.13805554807186127,-0.036041051149368286,-0.6004805564880371
1732873148194665200,8.838665283203126,0.18020524084568024,-0.06963863968849182,-0.720820963382721
1732873148204666000,8.848666015625,0.04092797264456749,-0.24434609711170197,-0.6878342628479004
1732873148214654200,8.858654296875,-0.12950342893600464,-0.413555771112442,-0.5015203952789307
1732873148224685800,8.868685791015626,-0.17470745742321014,-0.4703662395477295,-0.3176499307155609
1732873148234674000,8.878673828125,-0.13255776464939117,-0.4612032473087311,-0.17104226350784302
1732873148244675000,8.888675048828125,-0.060475658625364304,-0.3842342495918274,-0.06536258012056351
1732873148254662700,8.89866259765625,0.033597588539123535,-0.19425514340400696,0.009773843921720982
1732873148264692700,8.908692626953124,0.14233160018920898,-0.012217304669320583,0.06902777403593063
1732873148274651600,8.918651611328125,0.24007004499435425,0.12095131725072861,0.1215621829032898
1732873148284682200,8.92868212890625,0.35246923565864563,0.20891591906547546,0.2272418737411499
1732873148294671400,8.93867138671875,0.39217549562454224,0.17837265133857727,0.32009339332580566
1732873148304672500,8.948672607421875,0.39706242084503174,0.09162978827953339,0.4184426963329315
1732873148314660400,8.958660400390626,0.35613444447517395,-0.013439035043120384,0.5192354321479797
1732873148324692000,8.96869189453125,0.29138273000717163,-0.09468411654233932,0.6090326309204102
1732873148334649300,8.9786494140625,0.2278527319431305,-0.16065755486488342,0.6768386960029602
1732873148344681000,8.988680908203126,0.1820378452539444,-0.2174680233001709,0.7079927921295166
1732873148354668800,8.998668701171875,0.1313360333442688,-0.23579397797584534,0.6878342628479004
1732873148364670000,9.008669921875,0.07696902006864548,-0.1765400618314743,0.6359107494354248
1732873148374657800,9.01865771484375,0.010995574295520782,-0.045204028487205505,0.5564982295036316
1732873148384688000,9.028688232421874,-0.05925392732024193,0.11545353382825851,0.4245513379573822
1732873148394647000,9.03864697265625,-0.1667662113904953,0.2638937830924988,0.2474004179239273
1732873148404678700,9.0486787109375,-0.3023782968521118,0.32009339332580566,0.06291911751031876
1732873148414666500,9.05866650390625,-0.43188172578811646,0.23090706765651703,-0.09896016865968704
1732873148424667600,9.068667724609375,-0.5558874011039734,-0.07757988572120667,-0.29016098380088806
1732873148434655500,9.078655517578126,-0.5693264007568359,-0.24495697021484375,-0.37079519033432007
1732873148444687000,9.08868701171875,-0.5589417219161987,-0.3378084897994995,-0.4129449129104614
1732873148454644500,9.09864453125,-0.5363397002220154,-0.3805690407752991,-0.44593164324760437
1732873148464676400,9.10867626953125,-0.49724429845809937,-0.3390302062034607,-0.48258355259895325
1732873148474664200,9.118664306640625,-0.4337143301963806,-0.21563543379306793,-0.5015203952789307
1732873148484695300,9.1286953125,-0.38179078698158264,-0.04214970022439957,-0.5253441333770752
1732873148494653200,9.138653076171876,-0.384845107793808,0.09407325088977814,-0.5760459303855896
1732873148504684800,9.148684814453125,-0.4349360466003418,0.15821409225463867,-0.6872233748435974
1732873148514673000,9.1586728515625,-0.44287729263305664,0.11178833991289139,-0.7678576111793518
1732873148524673800,9.168673828125,-0.4251621961593628,0.054367005825042725,-0.8161159753799438
1732873148534661600,9.17866162109375,-0.3903428912162781,-0.006108652334660292,-0.8326093554496765
1732873148544693200,9.188693359375,-0.342695415019989,-0.02932153269648552,-0.797789990901947
1732873148554650600,9.198650634765626,-0.26083946228027344,0.006719517521560192,-0.7153232097625732
1732873148564682200,9.20868212890625,-0.15821409225463867,0.10690141469240189,-0.5833762884140015
1732873148574670300,9.21867041015625,-0.06230825558304787,0.2632829248905182,-0.3023782968521118
1732873148584671200,9.228671142578126,-0.04948008432984352,0.28588494658470154,-0.09529497474431992
1732873148594657500,9.238657470703124,-0.06963863968849182,0.2278527319431305,0.08246681094169617
1732873148604690000,9.24868994140625,-0.09346238523721695,0.1264491081237793,0.21135938167572021
1732873148614647300,9.258647216796875,-0.11301007121801376,0.036651913076639175,0.26939156651496887
1732873148624678100,9.26867822265625,-0.10934487730264664,-0.02871066704392433,0.24984388053417206
1732873148634666800,9.278666748046875,-0.06414084881544113,-0.039706241339445114,0.1771509200334549
1732873148644667600,9.288667724609375,0.054367005825042725,0.024434609338641167,0.04153883829712868
1732873148654656000,9.298656005859375,0.13011430203914642,0.08918632566928864,0.0012217304902151227
1732873148664687400,9.308687255859375,0.1814269721508026,0.12828169763088226,0.03726277872920036
1732873148674644700,9.318644775390625,0.21502456068992615,0.11301007121801376,0.11728613078594208
1732873148684676600,9.328676513671875,0.22540926933288574,0.06719517707824707,0.19364428520202637
1732873148694665200,9.338665283203126,0.19914206862449646,0.01466076634824276,0.23273965716362
1732873148704666000,9.348666015625,0.16249015927314758,-0.04398229718208313,0.22357667982578278
1732873148714654200,9.358654296875,0.1215621829032898,-0.09162978827953339,0.1820378452539444
1732873148724685800,9.368685791015626,0.08735372871160507,-0.13988813757896423,0.029932396486401558
1732873148734673700,9.378673583984375,0.06719517707824707,-0.14538592100143433,-0.12339477986097336
1732873148744674800,9.3886748046875,0.051312681287527084,-0.11728613078594208,-0.2926044464111328
1732873148754662700,9.39866259765625,0.03298672288656235,-0.05742133408784866,-0.45204028487205505
1732873148764693000,9.40869287109375,0.0012217304902151227,0.03787364438176155,-0.5516113042831421
1732873148774652000,9.41865185546875,-0.04459316283464432,0.14966198801994324,-0.5528330206871033
1732873148784683300,9.428683349609376,-0.07269296050071716,0.20830504596233368,-0.47219884395599365
1732873148794671400,9.43867138671875,-0.1466076523065567,0.11850785464048386,-0.23640485107898712
1732873148804672300,9.44867236328125,-0.17898350954055786,0.0757472887635231,-0.08979719132184982
1732873148814660400,9.458660400390626,-0.17104226350784302,0.05803219974040985,-0.024434609338641167
1732873148824692000,9.46869189453125,-0.15943582355976105,0.025656340643763542,-0.03237585723400116
1732873148834649300,9.4786494140625,-0.1264491081237793,-0.001832595793530345,-0.07147123664617538
1732873148844680000,9.488679931640625,-0.02932153269648552,0.001832595793530345,-0.12522737681865692
1732873148854668800,9.498668701171875,0.13255776464939117,0.01771509274840355,-0.16920967400074005
1732873148864670000,9.508669921875,0.3836233615875244,0.019547687843441963,-0.0959058403968811
1732873148874657800,9.51865771484375,0.5009095072746277,0.022602014243602753,0.06536258012056351
1732873148884689400,9.528689453125,0.5693264007568359,0.01160643994808197,0.2718350291252136
1732873148894647000,9.53864697265625,0.5815436840057373,-0.006719517521560192,0.4648684561252594
1732873148904678700,9.5486787109375,0.5736024379730225,-0.009162978269159794,0.5974262356758118
1732873148914666500,9.55866650390625,0.5577199459075928,0.00733038317412138,0.6487388610839844
1732873148924666000,9.568666015625,0.5448917746543884,0.01160643994808197,0.6059783101081848
1732873148934655500,9.578655517578126,0.5418374538421631,0.00366519158706069,0.4856378734111786
1732873148944687400,9.588687255859375,0.5357288122177124,0.033597588539123535,0.21380282938480377
1732873148954644500,9.59864453125,0.5436700582504272,0.07391469180583954,0.059864792972803116
1732873148964676000,9.608676025390626,0.5363397002220154,0.07880161702632904,0.005497787147760391
1732873148974664000,9.618663818359375,0.5161811113357544,0.0910189226269722,0.05497787147760391
1732873148984695800,9.62869580078125,0.5119050741195679,0.11484266817569733,0.1569923609495163
1732873148994653000,9.63865283203125,0.504574716091156,0.1368338167667389,0.2528982162475586
1732873149004684000,9.64868408203125,0.485027015209198,0.1716531366109848,0.27611109614372253
1732873149014672600,9.658672607421876,0.394618958234787,0.21807889640331268,0.15454891324043274
1732873149024673000,9.668673095703125,0.2968805134296417,0.1869247704744339,-0.013439035043120384
1732873149034661600,9.67866162109375,0.20891591906547546,0.11423180252313614,-0.252287358045578
1732873149044692500,9.6886923828125,0.14355333149433136,0.03848451003432274,-0.5082398653030396
1732873149054650400,9.698650390625,0.11911872029304504,-0.02626720629632473,-0.7312057018280029
1732873149064681700,9.708681640625,0.08918632566928864,-0.09773843735456467,-0.8600982427597046
1732873149074670000,9.718670166015626,0.039095375686883926,-0.13927727937698364,-0.8881980776786804
1732873149084671000,9.7286708984375,-0.02076941914856434,-0.1270599663257599,-0.7519751191139221
1732873149094659000,9.7386591796875,-0.022602014243602753,-0.11056660860776901,-0.5253441333770752
1732873149104690700,9.748690673828126,0.010995574295520782,-0.06536258012056351,-0.1716531366109848
1732873149114648300,9.7586484375,0.05314527451992035,-0.00366519158706069,0.24923302233219147
1732873149124679700,9.7686796875,0.07330382615327835,0.051312681287527084,0.6285803318023682
1732873149134667500,9.77866748046875,0.07513642311096191,0.07880161702632904,0.8723155856132507
1732873149144668400,9.78866845703125,0.0659734457731247,0.05375614017248154,0.9651671051979065
1732873149154656800,9.79865673828125,0.05192354694008827,-0.04214970022439957,0.9517280459403992
1732873149164688100,9.808688232421876,0.03481931984424591,-0.17531833052635193,0.8393288254737854
1732873149174645800,9.818645751953126,0.04214970022439957,-0.21013765037059784,0.7379252314567566
1732873149184676000,9.828676025390624,0.05742133408784866,-0.22418753802776337,0.6426302194595337
1732873149194665200,9.838665283203126,0.06169738993048668,-0.2119702398777008,0.5668829679489136
1732873149204665000,9.8486650390625,0.06475171446800232,-0.192422553896904,0.504574716091156
1732873149214654200,9.858654296875,0.06414084881544113,-0.16798794269561768,0.44593164324760437
1732873149224684500,9.8686845703125,0.0555887371301651,-0.15393804013729095,0.37629300355911255
1732873149234673700,9.878673583984375,0.02932153269648552,-0.18936823308467865,0.2370157092809677
1732873149244673500,9.888673583984374,0.004886921960860491,-0.252287358045578,0.1459967941045761
1732873149254662700,9.89866259765625,-0.01771509274840355,-0.3225368559360504,0.0708603709936142
1732873149264692700,9.908692626953124,-0.039706241339445114,-0.3799581825733185,0.01466076634824276
1732873149274652000,9.91865185546875,-0.056810468435287476,-0.3927863538265228,-0.019547687843441963
1732873149284681700,9.928681640625,-0.07024950534105301,-0.35735616087913513,-0.012217304669320583
1732873149294671400,9.93867138671875,-0.06963863968849182,-0.30054569244384766,0.039095375686883926
1732873149304670700,9.948670654296874,-0.04764748737215996,-0.19914206862449646,0.19120082259178162
1732873149314660000,9.95866015625,-0.036041051149368286,-0.14355333149433136,0.2968805134296417
1732873149324690400,9.9686904296875,-0.02382374368607998,-0.11178833991289139,0.3799581825733185
1732873149334649300,9.9786494140625,-0.015271631069481373,-0.11545353382825851,0.44226643443107605
1732873149344681000,9.988680908203126,-0.00427605677396059,-0.14782938361167908,0.4960225820541382
1732873149354668800,9.998668701171875,0.014049900695681572,-0.17043140530586243,0.5351179838180542
1732873149364669700,10.008669677734375,0.024434609338641167,-0.17776179313659668,0.5619960427284241
1732873149374657800,10.01865771484375,0.02382374368607998,-0.17531833052635193,0.5687155723571777
1732873149384689400,10.028689453125,-0.00733038317412138,-0.1411098688840866,0.5192354321479797
1732873149394647000,10.03864697265625,-0.04703662544488907,-0.1062905490398407,0.45204028487205505
1732873149404678400,10.048678466796876,-0.08307767659425735,-0.060475658625364304,0.3628539443016052
1732873149414666500,10.05866650390625,-0.12767083942890167,0.01710422709584236,0.26145032048225403
1732873149424667400,10.06866748046875,-0.17043140530586243,0.04398229718208313,0.13377949595451355
1732873149434655500,10.078655517578126,-0.21319197118282318,0.04459316283464432,-0.02015855349600315
1732873149444687000,10.08868701171875,-0.2321287989616394,0.036651913076639175,-0.1973094791173935
1732873149454644500,10.09864453125,-0.2125810980796814,0.02015855349600315,-0.4709770977497101
1732873149464676000,10.108676025390626,-0.16554448008537292,0.01038470957428217,-0.6200281977653503
1732873149474664000,10.118663818359375,-0.1062905490398407,0.013439035043120384,-0.7037167549133301
1732873149484695600,10.128695556640626,-0.054367005825042725,0.015882495790719986,-0.7104362845420837
1732873149494653200,10.138653076171876,-0.02321287989616394,0.00855211354792118,-0.6334672570228577
1732873149504713000,10.148712890625,-0.003054326167330146,0.0006108652451075613,-0.4954117238521576
1732873149514672600,10.158672607421876,0.009773843921720982,-0.01771509274840355,-0.31459560990333557
1732873149524673500,10.168673583984376,0.028099801391363144,-0.0403171069920063,-0.015882495790719986
1732873149534661600,10.17866162109375,0.04459316283464432,-0.05497787147760391,0.13439035415649414
1732873149544692500,10.1886923828125,0.04703662544488907,-0.051312681287527084,0.20036379992961884
1732873149554651000,10.19865087890625,0.02076941914856434,-0.02321287989616394,0.1563815027475357
1732873149564681500,10.208681396484375,0.00733038317412138,-0.003054326167330146,0.0012217304902151227
1732873149574670300,10.21867041015625,-0.001832595793530345,0.006719517521560192,-0.2168571650981903
1732873149584670700,10.228670654296875,-0.024434609338641167,0.0012217304902151227,-0.45265114307403564
1732873149594657500,10.238657470703124,-0.051312681287527084,-0.005497787147760391,-0.6548475623130798
1732873149604689700,10.248689697265625,-0.08857546001672745,-0.07330382615327835,-0.797789990901947
1732873149614647300,10.258647216796875,-0.10262536257505417,-0.10445795953273773,-0.7574729323387146
1732873149624678700,10.2686787109375,-0.10506882518529892,-0.17043140530586243,-0.5791002511978149
1732873149634666800,10.278666748046875,-0.06414084881544113,-0.22357667982578278,-0.2669481039047241
1732873149644667600,10.288667724609375,0.00427605677396059,-0.242513507604599,0.10323622822761536
1732873149654655700,10.29865576171875,0.06414084881544113,-0.20952677726745605,0.43615779280662537
1732873149664687000,10.30868701171875,0.1014036312699318,-0.16249015927314758,0.645684540271759
1732873149674644700,10.318644775390625,0.11056660860776901,-0.13255776464939117,0.7141014933586121
1732873149684676400,10.32867626953125,0.08368854224681854,-0.13072516024112701,0.6707300543785095
1732873149694665200,10.338665283203126,0.06291911751031876,-0.10384709388017654,0.5937610268592834
1732873149704665300,10.348665283203125,0.04886921867728233,-0.07757988572120667,0.484416127204895
1732873149714654200,10.358654296875,0.04092797264456749,-0.051312681287527084,0.3579670190811157
1732873149724685000,10.36868505859375,0.028099801391363144,-0.006108652334660292,0.25473082065582275
1732873149734673700,10.378673583984375,0.018936822190880775,0.031154127791523933,0.19303341209888458
1732873149744674000,10.388674072265625,0.056810468435287476,0.05619960278272629,0.1514945775270462
1732873149754662700,10.39866259765625,0.08979719132184982,0.06108652427792549,0.13561208546161652
1732873149764693500,10.408693603515625,0.12095131725072861,0.07147123664617538,0.10812314599752426
1732873149774652000,10.41865185546875,0.14538592100143433,0.08857546001672745,0.06108652427792549
1732873149784683300,10.428683349609376,0.1563815027475357,0.10445795953273773,0.00366519158706069
1732873149794671400,10.43867138671875,0.15454891324043274,0.08246681094169617,-0.04703662544488907
1732873149804672500,10.448672607421875,0.14905111491680145,0.04886921867728233,-0.08857546001672745
1732873149814660400,10.458660400390626,0.14782938361167908,0.006719517521560192,-0.12767083942890167
1732873149824692000,10.46869189453125,0.15515977144241333,-0.045204028487205505,-0.16249015927314758
1732873149834649300,10.4786494140625,0.17531833052635193,-0.07269296050071716,-0.1563815027475357
1732873149844681000,10.488680908203126,0.22907446324825287,-0.06780604273080826,-0.11972958594560623
1732873149854668800,10.498668701171875,0.3597996234893799,0.0012217304902151227,-0.05497787147760391
1732873149864670000,10.508669921875,0.4300491213798523,0.05925392732024193,0.05925392732024193
1732873149874657800,10.51865771484375,0.475253164768219,0.06841690838336945,0.21441370248794556
1732873149884689400,10.528689453125,0.5186246037483215,0.08368854224681854,0.3628539443016052
1732873149894647000,10.53864697265625,0.5424483418464661,0.15515977144241333,0.4056145250797272
1732873149904678700,10.5486787109375,0.5021312236785889,0.2272418737411499,0.2816088795661926
1732873149914666500,10.55866650390625,0.423329621553421,0.2541199326515198,0.04642575979232788
1732873149924666400,10.568666259765624,0.323147714138031,0.20891591906547546,-0.26511552929878235
1732873149934655200,10.5786552734375,0.2223549485206604,0.13011430203914642,-0.5791002511978149
1732873149944687000,10.58868701171875,0.14355333149433136,0.05253441259264946,-0.7910705208778381
1732873149954644500,10.59864453125,0.10934487730264664,0.015882495790719986,-0.8423831462860107
1732873149964675800,10.60867578125,0.09834930300712585,0.0012217304902151227,-0.5656611919403076
1732873149974664000,10.618663818359375,0.1270599663257599,0.018936822190880775,-0.2632829248905182
1732873149984695600,10.628695556640626,0.16065755486488342,0.02321287989616394,0.015882495790719986
1732873149994653000,10.63865283203125,0.17409659922122955,0.03420845419168472,0.18448130786418915
1732873150004684000,10.64868408203125,0.15332718193531036,0.025045474991202354,0.21074850857257843
1732873150014672600,10.658672607421876,0.10690141469240189,0.02321287989616394,0.11972958594560623
1732873150024672800,10.6686728515625,0.048258353024721146,0.039095375686883926,-0.04703662544488907
1732873150034661600,10.67866162109375,-0.02076941914856434,0.04764748737215996,-0.2474004179239273
1732873150044693000,10.68869287109375,-0.13377949595451355,-0.029932396486401558,-0.5345070958137512
1732873150054650400,10.698650390625,-0.1875356286764145,-0.08124507963657379,-0.66584312915802
1732873150064682000,10.708681884765625,-0.22052235901355743,-0.07880161702632904,-0.7171558141708374
1732873150074670000,10.718670166015626,-0.2382374405860901,-0.12828169763088226,-0.656680166721344
1732873150084671000,10.7286708984375,-0.24068090319633484,-0.17531833052635193,-0.4660901725292206
1732873150094659000,10.7386591796875,-0.21624629199504852,-0.21135938167572021,-0.1716531366109848
1732873150104690700,10.748690673828126,-0.18020524084568024,-0.2076941877603531,0.17837265133857727
1732873150114648000,10.75864794921875,-0.13866640627384186,-0.13316862285137177,0.6487388610839844
1732873150124679700,10.7686796875,-0.1417207419872284,-0.07696902006864548,0.856433093547821
1732873150134667500,10.77866748046875,-0.16371189057826996,-0.027488935738801956,0.9388998746871948
1732873150144668000,10.78866796875,-0.18936823308467865,0.009162978269159794,0.9053022861480713
1732873150154656800,10.79865673828125,-0.21135938167572021,0.013439035043120384,0.79840087890625
1732873150164687600,10.8086875,-0.2321287989616394,-0.018936822190880775,0.6548475623130798
1732873150174645500,10.8186455078125,-0.2718350291252136,-0.08552113175392151,0.4893030524253845
1732873150184677000,10.828677001953125,-0.3335324227809906,-0.22357667982578278,0.18875735998153687
1732873150194665200,10.838665283203126,-0.375071257352829,-0.2987131178379059,0.025045474991202354
1732873150204666400,10.848666259765626,-0.40133845806121826,-0.31093040108680725,-0.03420845419168472
1732873150214654200,10.858654296875,-0.4056145250797272,-0.29565876722335815,0.004886921960860491
1732873150224685800,10.868685791015626,-0.40133845806121826,-0.26083946228027344,0.1160643994808197
1732873150234673700,10.878673583984375,-0.3903428912162781,-0.1765400618314743,0.2687807083129883
1732873150244675000,10.888675048828125,-0.38667771220207214,-0.06902777403593063,0.4337143301963806
1732873150254662700,10.89866259765625,-0.394008070230484,0.005497787147760391,0.5626068711280823
1732873150264694300,10.9086943359375,-0.41599923372268677,-0.00733038317412138,0.5858197808265686
1732873150274651600,10.918651611328125,-0.4404338300228119,-0.059864792972803116,0.5070181488990784
1732873150284681700,10.928681640625,-0.4612032473087311,-0.1264491081237793,0.3891211748123169
1732873150294671400,10.93867138671875,-0.47708576917648315,-0.21013765037059784,0.27061331272125244
1732873150304672500,10.948672607421875,-0.4856378734111786,-0.27061331272125244,0.18936823308467865
1732873150314660000,10.95866015625,-0.48319441080093384,-0.2938261926174164,0.15577064454555511
1732873150324692000,10.96869189453125,-0.47830748558044434,-0.30115658044815063,0.15332718193531036
1732873150334649300,10.9786494140625,-0.4599815309047699,-0.242513507604599,0.14477506279945374
1732873150344681000,10.988680908203126,-0.45692721009254456,-0.1918116807937622,0.12339477986097336
1732873150354668800,10.998668701171875,-0.46181413531303406,-0.14538592100143433,0.07941248267889023
1732873150364670000,11.008669921875,-0.46853363513946533,-0.10384709388017654,0.01771509274840355
1732873150374657800,11.01865771484375,-0.4758640229701996,-0.051312681287527084,-0.04703662544488907
1732873150384689400,11.028689453125,-0.485027015209198,0.00855211354792118,-0.09896016865968704
1732873150394647000,11.03864697265625,-0.4954117238521576,0.04459316283464432,-0.15760323405265808
1732873150404678700,11.0486787109375,-0.5002986192703247,0.01038470957428217,-0.3023782968521118
1732873150414666500,11.05866650390625,-0.4862487316131592,-0.030543262138962746,-0.4196644127368927
1732873150424667600,11.068667724609375,-0.455705463886261,-0.048258353024721146,-0.5198463201522827
1732873150434655500,11.078655517578126,-0.42577308416366577,-0.056810468435287476,-0.5968153476715088
1732873150444687000,11.08868701171875,-0.394618958234787,-0.07391469180583954,-0.6542366743087769
1732873150454644500,11.09864453125,-0.35674530267715454,-0.12400564551353455,-0.6939429044723511
1732873150464676000,11.108676025390626,-0.3188716471195221,-0.1716531366109848,-0.6957755088806152
1732873150474664000,11.118663818359375,-0.2828305959701538,-0.22052235901355743,-0.6395758986473083
1732873150484695300,11.1286953125,-0.2125810980796814,-0.27611109614372253,-0.4092797040939331
1732873150494653200,11.138653076171876,-0.1814269721508026,-0.27000242471694946,-0.2028072625398636
1732873150504684800,11.148684814453125,-0.16798794269561768,-0.24373523890972137,-0.027488935738801956
1732873150514673000,11.1586728515625,-0.17409659922122955,-0.20830504596233368,0.06169738993048668
1732873150524673000,11.168673095703125,-0.18387043476104736,-0.18509216606616974,0.02932153269648552
1732873150534662000,11.178661865234375,-0.19608774781227112,-0.18570303916931152,-0.1111774742603302
1732873150544693200,11.188693359375,-0.22113321721553802,-0.18936823308467865,-0.31642818450927734
1732873150554650600,11.198650634765626,-0.25961771607398987,-0.18448130786418915,-0.5913175344467163
1732873150564682500,11.2086826171875,-0.2687807083129883,-0.18020524084568024,-0.6517932415008545
1732873150574670300,11.21867041015625,-0.2577851414680481,-0.18020524084568024,-0.5687155723571777
1732873150584671200,11.228671142578126,-0.2474004179239273,-0.1661553531885147,-0.3640756905078888
1732873150594657500,11.238657470703124,-0.2119702398777008,-0.15577064454555511,-0.08918632566928864
1732873150604690200,11.248690185546875,-0.1722639948129654,-0.15271630883216858,0.20830504596233368
1732873150614647300,11.258647216796875,-0.1411098688840866,-0.14233160018920898,0.46364670991897583
1732873150624678100,11.26867822265625,-0.1417207419872284,-0.16004669666290283,0.6505714654922485
1732873150634666800,11.278666748046875,-0.1563815027475357,-0.19975294172763824,0.645684540271759
1732873150644667000,11.2886669921875,-0.17104226350784302,-0.26145032048225403,0.5766568183898926
1732873150654656000,11.298656005859375,-0.18448130786418915,-0.33475416898727417,0.49296826124191284
1732873150664686600,11.3086865234375,-0.17837265133857727,-0.31520646810531616,0.4092797040939331
1732873150674645000,11.31864501953125,-0.1569923609495163,-0.23457226157188416,0.33169981837272644
1732873150684675800,11.32867578125,-0.13927727937698364,-0.11423180252313614,0.26450464129447937
1732873150694665200,11.338665283203126,-0.1362229436635971,-0.009773843921720982,0.23273965716362
1732873150704665300,11.348665283203125,-0.10567969083786011,0.04948008432984352,0.25045475363731384
1732873150714654200,11.358654296875,-0.06902777403593063,0.025045474991202354,0.2681698501110077
1732873150724685800,11.368685791015626,-0.04337143152952194,0.00366519158706069,0.26511552929878235
1732873150734673700,11.378673583984375,-0.025045474991202354,-0.016493361443281174,0.22968533635139465
1732873150744674800,11.3886748046875,-0.012828170321881771,-0.042760565876960754,0.17043140530586243
1732873150754662700,11.39866259765625,0.006108652334660292,-0.0555887371301651,0.10751228034496307
1732873150764694300,11.4086943359375,0.021380282938480377,-0.0659734457731247,0.05925392732024193
1732873150774651600,11.418651611328125,0.030543262138962746,-0.06719517707824707,0.0507018156349659
1732873150784683300,11.428683349609376,0.03298672288656235,-0.05375614017248154,0.08857546001672745
1732873150794671400,11.43867138671875,0.03787364438176155,-0.029932396486401558,0.13561208546161652
1732873150804672300,11.44867236328125,0.04886921867728233,0.004886921960860491,0.18509216606616974
1732873150814660000,11.45866015625,0.06414084881544113,0.04092797264456749,0.21624629199504852
1732873150824692000,11.46869189453125,0.07819075137376785,0.056810468435287476,0.2168571650981903
1732873150834649300,11.4786494140625,0.0910189226269722,0.06169738993048668,0.19792033731937408
1732873150844681000,11.488680908203126,0.11056660860776901,0.07147123664617538,0.16737708449363708
1732873150854668800,11.498668701171875,0.12522737681865692,0.07452555745840073,0.15882496535778046
1732873150864670000,11.508669921875,0.13255776464939117,0.08368854224681854,0.1722639948129654
1732873150874657800,11.51865771484375,0.13744467496871948,0.09407325088977814,0.18570303916931152
1732873150884688600,11.528688720703125,0.13988813757896423,0.10567969083786011,0.1814269721508026
1732873150894647000,11.53864697265625,0.1270599663257599,0.11362093687057495,0.15515977144241333
1732873150904678000,11.548677978515625,0.11362093687057495,0.10384709388017654,0.10262536257505417
1732873150914666500,11.55866650390625,0.07880161702632904,0.06902777403593063,0.009773843921720982
1732873150924666600,11.56866650390625,0.01038470957428217,-0.04642575979232788,-0.2583959996700287
1732873150934655500,11.578655517578126,-0.042760565876960754,-0.14782938361167908,-0.4905247986316681
1732873150944686800,11.588686767578125,-0.09468411654233932,-0.23335053026676178,-0.7147123217582703
1732873150954644200,11.598644287109375,-0.15332718193531036,-0.2583959996700287,-0.8680394887924194
1732873150964675800,11.60867578125,-0.19792033731937408,-0.22418753802776337,-0.8753699064254761
1732873150974664000,11.618663818359375,-0.2015855312347412,-0.13439035415649414,-0.6914994716644287
1732873150984695600,11.628695556640626,-0.17837265133857727,-0.02382374368607998,-0.36102136969566345
1732873150994653000,11.63865283203125,-0.13377949595451355,0.11789698898792267,0.15393804013729095
1732873151004684000,11.64868408203125,-0.12339477986097336,0.1368338167667389,0.3072652220726013
1732873151014672600,11.658672607421876,-0.15882496535778046,0.07757988572120667,0.24373523890972137
1732873151024672300,11.66867236328125,-0.1966986060142517,-0.04153883829712868,-0.016493361443281174
1732873151034661400,11.678661376953125,-0.22907446324825287,-0.21319197118282318,-0.41661009192466736
1732873151044692500,11.6886923828125,-0.2718350291252136,-0.40194934606552124,-0.8759807348251343
1732873151054650400,11.698650390625,-0.30115658044815063,-0.5247332453727722,-1.2767083644866943
1732873151064682000,11.708681884765625,-0.3439171314239502,-0.5412266254425049,-1.577254056930542
1732873151074670000,11.718670166015626,-0.35735616087913513,-0.4801400899887085,-1.5094480514526367
1732873151084671000,11.7286708984375,-0.3341432809829712,-0.3274237811565399,-1.1832460165023804
1732873151094659000,11.7386591796875,-0.28099802136421204,-0.10384709388017654,-0.6524040699005127
1732873151104690400,11.7486904296875,-0.2125810980796814,-0.036651913076639175,-0.03726277872920036
1732873151114648300,11.7586484375,-0.16310101747512817,-0.029932396486401558,0.504574716091156
1732873151124679700,11.7686796875,-0.12950342893600464,-0.06780604273080826,0.8436049222946167
1732873151134667500,11.77866748046875,-0.1618792861700058,-0.12767083942890167,0.96883225440979
1732873151144668000,11.78866796875,-0.2174680233001709,-0.18448130786418915,0.8790351152420044
1732873151154656500,11.798656494140625,-0.22296582162380219,-0.21074850857257843,0.7342600226402283
1732873151164687600,11.8086875,-0.23518311977386475,-0.19120082259178162,0.5974262356758118
1732873151174645500,11.8186455078125,-0.24129177629947662,-0.15454891324043274,0.49724429845809937
1732873151184677000,11.828677001953125,-0.2382374405860901,-0.09896016865968704,0.43799036741256714
1732873151194665500,11.83866552734375,-0.24373523890972137,-0.04764748737215996,0.3995058834552765
1732873151204666000,11.848666015625,-0.2583959996700287,-0.04092797264456749,0.3689626157283783
1732873151214654200,11.858654296875,-0.28038713335990906,-0.08979719132184982,0.3072652220726013
1732873151224685600,11.868685546875,-0.29138273000717163,-0.1459967941045761,0.2675589919090271
1732873151234673700,11.878673583984375,-0.2926044464111328,-0.17959438264369965,0.24495697021484375
1732873151244675000,11.888675048828125,-0.2919935882091522,-0.1814269721508026,0.2272418737411499
1732873151254662700,11.89866259765625,-0.29565876722335815,-0.16859880089759827,0.20891591906547546
1732873151264694300,11.9086943359375,-0.3023782968521118,-0.15332718193531036,0.17898350954055786
1732873151274651600,11.918651611328125,-0.30970868468284607,-0.1411098688840866,0.12095131725072861
1732873151284682000,11.928681884765625,-0.32559117674827576,-0.11545353382825851,0.00366519158706069
1732873151294671400,11.93867138671875,-0.33597588539123535,-0.10445795953273773,-0.060475658625364304
1732873151304672500,11.948672607421875,-0.33169981837272644,-0.10323622822761536,-0.08979719132184982
1732873151314660400,11.958660400390626,-0.3188716471195221,-0.10812314599752426,-0.06536258012056351
1732873151324692000,11.96869189453125,-0.3029891550540924,-0.11728613078594208,0.00366519158706069
1732873151334649300,11.9786494140625,-0.2742784917354584,-0.11972958594560623,0.09162978827953339
1732873151344681000,11.988680908203126,-0.2431243658065796,-0.10201449692249298,0.18081611394882202
1732873151354668800,11.998668701171875,-0.22113321721553802,-0.07330382615327835,0.2382374405860901
1732873151364669700,12.008669677734375,-0.22052235901355743,-0.0354301854968071,0.20952677726745605
1732873151374658000,12.018657958984376,-0.23579397797584534,-0.013439035043120384,0.1319468915462494
1732873151384492500,12.028492431640625,-0.251676470041275,0.009773843921720982,0.04398229718208313
1732873151394450000,12.038449951171875,-0.26083946228027344,0.03481931984424591,-0.036651913076639175
1732873151404481800,12.048481689453125,-0.2590068578720093,0.0507018156349659,-0.10567969083786011
1732873151414469600,12.0584697265625,-0.25106561183929443,0.056810468435287476,-0.16493362188339233
1732873151424470800,12.068470703125,-0.22968533635139465,0.06841690838336945,-0.21807889640331268
1732873151434458400,12.078458251953125,-0.1667662113904953,0.11545353382825851,-0.24923302233219147
1732873151444490000,12.088489990234375,-0.12278391420841217,0.17470745742321014,-0.2119702398777008
1732873151454447600,12.098447509765625,-0.07269296050071716,0.20952677726745605,-0.12522737681865692
1732873151464479000,12.10847900390625,-0.033597588539123535,0.19853121042251587,-0.01710422709584236
1732873151474467000,12.118467041015625,-0.012217304669320583,0.1411098688840866,0.08002334833145142
1732873151484498700,12.128498779296875,-0.010995574295520782,0.06963863968849182,0.1466076523065567
1732873151494456000,12.1384560546875,-0.01771509274840355,-0.013439035043120384,0.17043140530586243
1732873151504515300,12.148515380859376,-0.02015855349600315,-0.10323622822761536,0.1160643994808197
1732873151514475800,12.158475830078125,-0.012828170321881771,-0.11178833991289139,0.04886921867728233
1732873151524476200,12.16847607421875,0.005497787147760391,-0.08429940044879913,-0.025045474991202354
1732873151534464800,12.17846484375,0.021380282938480377,-0.05253441259264946,-0.10751228034496307
1732873151544495600,12.18849560546875,0.03787364438176155,-0.039706241339445114,-0.21319197118282318
1732873151554453800,12.198453857421875,0.05009094998240471,-0.04948008432984352,-0.3274237811565399
1732873151564485000,12.208485107421875,0.06108652427792549,-0.08185594528913498,-0.4398229718208313
1732873151574473500,12.218473388671875,0.08429940044879913,-0.11484266817569733,-0.5491678714752197
1732873151584474400,12.228474365234375,0.12217304855585098,-0.1111774742603302,-0.6035348773002625
1732873151594460700,12.238460693359375,0.1569923609495163,-0.0757472887635231,-0.47769662737846375
1732873151604492800,12.248492919921874,0.2076941877603531,-0.04092797264456749,-0.2021963894367218
1732873151614450200,12.2584501953125,0.25473082065582275,-0.028099801391363144,0.15577064454555511
1732873151624481800,12.268481689453125,0.29626965522766113,-0.030543262138962746,0.47769662737846375
1732873151634470000,12.278469970703124,0.3341432809829712,-0.03848451003432274,0.6633996367454529
1732873151644470300,12.28847021484375,0.36102136969566345,-0.019547687843441963,0.7006624341011047
1732873151654458600,12.298458740234375,0.35613444447517395,0.006719517521560192,0.5644394755363464
1732873151664489700,12.30848974609375,0.34636059403419495,0,0.4043927788734436
1732873151674448000,12.31844775390625,0.33108896017074585,-0.0012217304902151227,0.2480112910270691
1732873151684479000,12.32847900390625,0.3243694305419922,0.025656340643763542,0.14049901068210602
1732873151694468400,12.33846826171875,0.3286454975605011,0.08002334833145142,0.09285151958465576
1732873151704469200,12.34846923828125,0.33108896017074585,0.14538592100143433,0.09040805697441101
1732873151714457000,12.35845703125,0.33292156457901,0.2125810980796814,0.11301007121801376
1732873151724489200,12.3684892578125,0.31642818450927734,0.24923302233219147,0.1820378452539444
1732873151734476800,12.378476806640625,0.30543261766433716,0.24373523890972137,0.21441370248794556
1732873151744478000,12.38847802734375,0.29138273000717163,0.24434609711170197,0.23579397797584534
1732873151754465800,12.3984658203125,0.27122417092323303,0.25595253705978394,0.25045475363731384
1732873151764497400,12.408497314453125,0.2577851414680481,0.26511552929878235,0.24434609711170197
1732873151774454800,12.418454833984375,0.24617868661880493,0.2638937830924988,0.22846360504627228
1732873151784486400,12.428486328125,0.23640485107898712,0.2321287989616394,0.2223549485206604
1732873151794474200,12.43847412109375,0.22846360504627228,0.192422553896904,0.2480112910270691
1732873151804475400,12.448475341796875,0.2076941877603531,0.16249015927314758,0.34758231043815613
1732873151814463200,12.458463134765625,0.20402899384498596,0.17348572611808777,0.42577308416366577
1732873151824494800,12.468494873046875,0.20036379992961884,0.19608774781227112,0.49785518646240234
1732873151834452200,12.4784521484375,0.17531833052635193,0.22907446324825287,0.5540547966957092
1732873151844482300,12.488482421875,0.13377949595451355,0.26083946228027344,0.5827654600143433
1732873151854472000,12.498471923828125,0.08979719132184982,0.2828305959701538,0.5809328556060791
1732873151864471600,12.508471435546875,0.03726277872920036,0.2822197377681732,0.5424483418464661
1732873151874461000,12.5184609375,-0.04642575979232788,0.2382374405860901,0.4245513379573822
1732873151884492000,12.528491943359375,-0.0708603709936142,0.18387043476104736,0.3176499307155609
1732873151894450000,12.538449951171875,-0.08185594528913498,0.10506882518529892,0.19853121042251587
1732873151904480800,12.548480712890624,-0.09040805697441101,0.03787364438176155,0.07880161702632904
1732873151914469600,12.5584697265625,-0.10323622822761536,-0.006108652334660292,-0.021991148591041565
1732873151924470000,12.568469970703125,-0.10506882518529892,-0.013439035043120384,-0.11056660860776901
1732873151934458400,12.578458251953125,-0.10018189996480942,0.015882495790719986,-0.19792033731937408
1732873151944490000,12.588489990234375,-0.08552113175392151,0.06841690838336945,-0.33597588539123535
1732873151954447400,12.598447265625,-0.08368854224681854,0.0708603709936142,-0.43127086758613586
1732873151964479000,12.60847900390625,-0.07635815441608429,0.04337143152952194,-0.5009095072746277
1732873151974467000,12.618467041015625,-0.060475658625364304,0.02321287989616394,-0.4966334402561188
1732873151984498700,12.628498779296875,-0.03298672288656235,0.01710422709584236,-0.37262779474258423
1732873151994456000,12.6384560546875,0.014049900695681572,0.00733038317412138,-0.12034045159816742
1732873152004487700,12.64848779296875,0.07391469180583954,0.02626720629632473,0.21380282938480377
1732873152014475500,12.6584755859375,0.13255776464939117,0.0806342139840126,0.5424483418464661
1732873152024475400,12.668475341796874,0.2015855312347412,0.10445795953273773,0.7996225953102112
1732873152034464500,12.678464599609375,0.22540926933288574,0.030543262138962746,0.6927211880683899
1732873152044499000,12.6884990234375,0.23579397797584534,-0.11423180252313614,0.3494149148464203
1732873152054453500,12.69845361328125,0.24373523890972137,-0.17898350954055786,-0.16920967400074005
1732873152064484000,12.708484130859375,0.20341812074184418,-0.04092797264456749,-0.7006624341011047
1732873152074473200,12.71847314453125,-0.015271631069481373,-0.01038470957428217,-1.0977247953414917
1732873152084473600,12.7284736328125,-0.23273965716362,-0.019547687843441963,-1.3640620708465576
1732873152094462200,12.738462158203125,-0.27550023794174194,0.1362229436635971,-1.4618005752563477
1732873152104493600,12.74849365234375,-0.17104226350784302,0.1514945775270462,-1.289536476135254
1732873152114451200,12.758451171875,-0.02871066704392433,0.06963863968849182,-0.9682214260101318
1732873152124482800,12.76848291015625,0.11056660860776901,-0.06291911751031876,-0.5754350423812866
1732873152134470700,12.778470703125,0.22846360504627228,-0.18387043476104736,-0.21380282938480377
1732873152144472000,12.78847216796875,0.32681289315223694,-0.29138273000717163,0.05925392732024193
1732873152154460000,12.7984599609375,0.36713001132011414,-0.41599923372268677,0.2168571650981903
1732873152164489700,12.80848974609375,0.3842342495918274,-0.4398229718208313,0.2577851414680481
1732873152174448600,12.81844873046875,0.40194934606552124,-0.30604347586631775,0.21991148591041565
1732873152184479000,12.82847900390625,0.42577308416366577,-0.1362229436635971,0.16920967400074005
1732873152194468400,12.83846826171875,0.4502076804637909,0.03726277872920036,0.15271630883216858
1732873152204469500,12.848469482421875,0.47219884395599365,0.18020524084568024,0.19058994948863983
1732873152214457000,12.85845703125,0.49296826124191284,0.3090978264808655,0.2718350291252136
1732873152224489000,12.868489013671875,0.45692721009254456,0.43127086758613586,0.38179078698158264
1732873152234476800,12.878476806640625,0.3646865487098694,0.4996877610683441,0.4911356568336487
1732873152244477700,12.888477783203125,0.02015855349600315,0.5772676467895508,0.5894849896430969
1732873152254465800,12.8984658203125,-0.24190263450145721,0.6395758986473083,0.6090326309204102
1732873152264496000,12.90849609375,-0.4196644127368927,0.5998696684837341,0.5564982295036316
1732873152274454800,12.918454833984375,-0.475253164768219,0.44287729263305664,0.42638394236564636
1732873152284485000,12.928485107421874,-0.42271876335144043,0.23579397797584534,0.25045475363731384
1732873152294474200,12.93847412109375,-0.27061331272125244,0.01771509274840355,0.11239920556545258
1732873152304474400,12.948474365234375,-0.06841690838336945,-0.19547687470912933,0.05192354694008827
