time,seconds_elapsed,z,y,x
1732873140014601500,0.6586015625,0.02382374368607998,0.028099801391363144,0.02076941914856434
1732873140025033500,0.669033447265625,0.02382374368607998,0.03237585723400116,0.039095375686883926
1732873140034590500,0.678590576171875,0.018325956538319588,0.036651913076639175,0.04398229718208313
1732873140044621800,0.688621826171875,0.009773843921720982,0.04337143152952194,0.04092797264456749
1732873140054579500,0.698579345703125,0.006719517521560192,0.04703662544488907,0.036041051149368286
1732873140064611000,0.708611083984375,0.0006108652451075613,0.0403171069920063,0.018325956538319588
1732873140074599000,0.718598876953125,-0.0012217304902151227,0.03237585723400116,0.0012217304902151227
1732873140084600000,0.72860009765625,-0.0006108652451075613,0.02626720629632473,-0.009162978269159794
1732873140094588200,0.738588134765625,-0.0024434609804302454,0.01710422709584236,-0.012217304669320583
1732873140104619800,0.748619873046875,-0.00733038317412138,-0.001832595793530345,-0.013439035043120384
1732873140114577200,0.7585771484375,-0.012828170321881771,-0.02382374368607998,-0.019547687843441963
1732873140124608500,0.7686083984375,-0.01771509274840355,-0.04153883829712868,-0.025045474991202354
1732873140134596600,0.7785966796875,-0.021991148591041565,-0.04398229718208313,-0.02932153269648552
1732873140144597500,0.788597412109375,-0.018325956538319588,-0.028099801391363144,-0.024434609338641167
1732873140154585600,0.798585693359375,-0.015882495790719986,-0.01160643994808197,-0.015882495790719986
1732873140164617200,0.8086171875,-0.00855211354792118,0.0006108652451075613,-0.00855211354792118
1732873140174574300,0.81857421875,-0.005497787147760391,0.004886921960860491,-0.0024434609804302454
1732873140184606500,0.8286064453125,-0.00855211354792118,-0.0012217304902151227,-0.00733038317412138
1732873140194594000,0.838593994140625,-0.015882495790719986,-0.014049900695681572,-0.018936822190880775
1732873140204595000,0.848594970703125,-0.014049900695681572,-0.030543262138962746,-0.031154127791523933
1732873140214583000,0.8585830078125,-0.0024434609804302454,-0.03237585723400116,-0.021991148591041565
1732873140224614700,0.86861474609375,0.013439035043120384,-0.009773843921720982,-0.0012217304902151227
1732873140234602800,0.878602783203125,0.027488935738801956,0.01038470957428217,0.022602014243602753
1732873140244603600,0.888603759765625,0.03420845419168472,0.02382374368607998,0.039706241339445114
1732873140254591700,0.898591796875,0.0354301854968071,0.02687807008624077,0.04337143152952194
1732873140264623400,0.908623291015625,0.03237585723400116,0.02382374368607998,0.039706241339445114
1732873140274580700,0.918580810546875,0.028099801391363144,0.016493361443281174,0.022602014243602753
1732873140284612000,0.928612060546875,0.005497787147760391,0.021991148591041565,-0.014049900695681572
1732873140294600200,0.93860009765625,-0.001832595793530345,0.02015855349600315,-0.036041051149368286
1732873140304601300,0.948601318359375,-0.009773843921720982,0.009773843921720982,-0.05497787147760391
1732873140314589200,0.958589111328125,-0.018325956538319588,0,-0.0708603709936142
1732873140324620800,0.968620849609375,-0.02382374368607998,-0.006719517521560192,-0.07880161702632904
1732873140334578400,0.978578369140625,-0.028099801391363144,-0.014049900695681572,-0.08002334833145142
1732873140344609800,0.98860986328125,-0.031154127791523933,-0.015271631069481373,-0.0708603709936142
1732873140354598000,0.998597900390625,-0.03787364438176155,-0.013439035043120384,-0.0403171069920063
1732873140364599000,1.00859912109375,-0.04092797264456749,-0.01466076634824276,-0.01771509274840355
1732873140374586600,1.018586669921875,-0.04886921867728233,-0.00855211354792118,0.007941247895359993
1732873140384618800,1.02861865234375,-0.054367005825042725,-0.001832595793530345,0.030543262138962746
1732873140394576000,1.038575927734375,-0.06169738993048668,-0.001832595793530345,0.045204028487205505
1732873140404607500,1.048607421875,-0.06536258012056351,-0.010995574295520782,0.0507018156349659
1732873140414595300,1.05859521484375,-0.06902777403593063,-0.01710422709584236,0.045204028487205505
1732873140424596500,1.068596435546875,-0.0806342139840126,-0.02382374368607998,0.027488935738801956
1732873140434584300,1.078584228515625,-0.09346238523721695,-0.04092797264456749,-0.01038470957428217
1732873140444616000,1.088615966796875,-0.10751228034496307,-0.05619960278272629,-0.04214970022439957
1732873140454573300,1.0985732421875,-0.12217304855585098,-0.06108652427792549,-0.07269296050071716
1732873140464605200,1.108605224609375,-0.13866640627384186,-0.059864792972803116,-0.09957103431224823
1732873140474592800,1.1185927734375,-0.14966198801994324,-0.05192354694008827,-0.1160643994808197
1732873140484624600,1.128624755859375,-0.15882496535778046,-0.03848451003432274,-0.12034045159816742
1732873140494581800,1.138581787109375,-0.16432274878025055,-0.021991148591041565,-0.1111774742603302
1732873140504614000,1.14861376953125,-0.1661553531885147,0.014049900695681572,-0.07513642311096191
1732873140514601500,1.1586015625,-0.16554448008537292,0.04337143152952194,-0.04642575979232788
1732873140524602600,1.1686025390625,-0.16249015927314758,0.06536258012056351,-0.021380282938480377
1732873140534590500,1.178590576171875,-0.16310101747512817,0.07941248267889023,-0.003054326167330146
1732873140544622000,1.1886220703125,-0.15760323405265808,0.09957103431224823,0.00366519158706069
1732873140554579500,1.198579345703125,-0.1563815027475357,0.1160643994808197,-0.0012217304902151227
1732873140564611000,1.208611083984375,-0.15760323405265808,0.11850785464048386,-0.02076941914856434
1732873140574599200,1.21859912109375,-0.1563815027475357,0.1111774742603302,-0.06902777403593063
1732873140584600300,1.228600341796875,-0.16310101747512817,0.09346238523721695,-0.10690141469240189
1732873140594587100,1.238587158203125,-0.17287486791610718,0.07391469180583954,-0.14538592100143433
1732873140604619300,1.248619384765625,-0.17898350954055786,0.06352998316287994,-0.17104226350784302
1732873140614577000,1.258576904296875,-0.18448130786418915,0.05375614017248154,-0.17592918872833252
1732873140624608300,1.268608154296875,-0.1771509200334549,0.0555887371301651,-0.1569923609495163
1732873140634596000,1.27859619140625,-0.15332718193531036,0.07880161702632904,-0.12095131725072861
1732873140644597200,1.28859716796875,-0.1264491081237793,0.09773843735456467,-0.07024950534105301
1732873140654585000,1.298585205078125,-0.08674286305904388,0.12095131725072861,-0.013439035043120384
1732873140664616700,1.30861669921875,-0.06963863968849182,0.13072516024112701,0.006108652334660292
1732873140674574000,1.318573974609375,-0.05009094998240471,0.14905111491680145,0.01160643994808197
1732873140684605700,1.328605712890625,-0.03787364438176155,0.16737708449363708,0.00733038317412138
1732873140694594000,1.338593994140625,-0.03298672288656235,0.18325957655906677,0
1732873140704595000,1.348594970703125,-0.03176499158143997,0.18936823308467865,-0.006108652334660292
1732873140714583000,1.3585830078125,-0.03237585723400116,0.18448130786418915,-0.005497787147760391
1732873140724614700,1.36861474609375,-0.03481931984424591,0.17348572611808777,-0.0024434609804302454
1732873140734602800,1.378602783203125,-0.033597588539123535,0.1667662113904953,-0.007941247895359993
1732873140744603600,1.388603759765625,-0.03176499158143997,0.17104226350784302,-0.021380282938480377
1732873140754591700,1.398591796875,-0.028099801391363144,0.18875735998153687,-0.039095375686883926
1732873140764623000,1.408623046875,-0.02382374368607998,0.20525072515010834,-0.0507018156349659
1732873140774580500,1.41858056640625,-0.01160643994808197,0.2223549485206604,-0.04642575979232788
1732873140784612400,1.4286123046875,0.009773843921720982,0.2431243658065796,-0.01710422709584236
1732873140794600200,1.43860009765625,0.04581489413976669,0.28588494658470154,0.05742133408784866
1732873140804601000,1.44860107421875,0.06963863968849182,0.3078760802745819,0.1062905490398407
1732873140814589200,1.458589111328125,0.08735372871160507,0.3182607889175415,0.1472185254096985
1732873140824620800,1.468620849609375,0.09773843735456467,0.3170390725135803,0.16798794269561768
1732873140834578400,1.478578369140625,0.09896016865968704,0.2938261926174164,0.16432274878025055
1732873140844609800,1.48860986328125,0.0910189226269722,0.2535090744495392,0.1411098688840866
1732873140854597600,1.49859765625,0.08368854224681854,0.2174680233001709,0.11301007121801376
1732873140864598800,1.508598876953125,0.08368854224681854,0.2070833146572113,0.09285151958465576
1732873140874586600,1.518586669921875,0.09773843735456467,0.21441370248794556,0.08979719132184982
1732873140884618200,1.5286181640625,0.10873401165008545,0.21441370248794556,0.08185594528913498
1732873140894575900,1.538575927734375,0.11728613078594208,0.21868975460529327,0.06780604273080826
1732873140904607200,1.548607177734375,0.13011430203914642,0.23273965716362,0.05314527451992035
1732873140914595300,1.55859521484375,0.13561208546161652,0.23640485107898712,0.036041051149368286
1732873140924596200,1.56859619140625,0.1411098688840866,0.23396138846874237,0.015882495790719986
1732873140934584300,1.578584228515625,0.1514945775270462,0.2174680233001709,0.00427605677396059
1732873140944616000,1.588615966796875,0.17409659922122955,0.20830504596233368,0.014049900695681572
1732873140954573300,1.5985732421875,0.18997909128665924,0.19058994948863983,0.021380282938480377
1732873140964605000,1.60860498046875,0.19425514340400696,0.1612684279680252,0.02015855349600315
1732873140974592800,1.6185927734375,0.17898350954055786,0.12095131725072861,0
1732873140984624400,1.628624267578125,0.15332718193531036,0.06352998316287994,-0.031154127791523933
1732873140994581800,1.638581787109375,0.12767083942890167,-0.0006108652451075613,-0.05192354694008827
1732873141004613600,1.648613525390625,0.11178833991289139,-0.060475658625364304,-0.048258353024721146
1732873141014601500,1.6586015625,0.12095131725072861,-0.10506882518529892,0.010995574295520782
1732873141024602400,1.668602294921875,0.152105450630188,-0.10812314599752426,0.0708603709936142
1732873141034590500,1.678590576171875,0.18936823308467865,-0.09162978827953339,0.11362093687057495
1732873141044622000,1.6886220703125,0.21441370248794556,-0.0708603709936142,0.10873401165008545
1732873141054579700,1.698579833984375,0.20586158335208893,-0.09651670604944229,0.036041051149368286
1732873141064611000,1.708611083984375,0.17287486791610718,-0.1771509200334549,-0.10201449692249298
1732873141074599000,1.718598876953125,0.11239920556545258,-0.30054569244384766,-0.2742784917354584
1732873141084599800,1.728599853515625,0.025656340643763542,-0.41661009192466736,-0.4453207552433014
1732873141094588000,1.738587890625,-0.10995574295520782,-0.5467243790626526,-0.5626068711280823
1732873141104619500,1.74861962890625,-0.15454891324043274,-0.5845980644226074,-0.4746423065662384
1732873141114577200,1.7585771484375,-0.17104226350784302,-0.5839871764183044,-0.26022860407829285
1732873141124608500,1.7686083984375,-0.16859880089759827,-0.5369505286216736,0.024434609338641167
1732873141134596600,1.7785966796875,-0.13377949595451355,-0.4612032473087311,0.3188716471195221
1732873141144597800,1.78859765625,-0.07513642311096191,-0.3530801236629486,0.5717698931694031
1732873141154585600,1.798585693359375,-0.019547687843441963,-0.21074850857257843,0.7263187766075134
1732873141164616400,1.808616455078125,0.01466076634824276,-0.033597588539123535,0.7134906053543091
1732873141174574600,1.81857470703125,-0.006719517521560192,0.039706241339445114,0.5461135506629944
1732873141184605000,1.82860498046875,-0.04703662544488907,0.045204028487205505,0.28099802136421204
1732873141194594000,1.838593994140625,-0.10201449692249298,-0.005497787147760391,-0.05497787147760391
1732873141204594200,1.84859423828125,-0.16859880089759827,-0.08552113175392151,-0.4050036668777466
1732873141214583000,1.8585830078125,-0.23090706765651703,-0.1618792861700058,-0.7073819637298584
1732873141224613000,1.868613037109375,-0.28955012559890747,-0.21563543379306793,-0.9053022861480713
1732873141234602800,1.878602783203125,-0.342695415019989,-0.20891591906547546,-0.9248499870300293
1732873141244602400,1.888602294921875,-0.34025195240974426,-0.1667662113904953,-0.7476990818977356
1732873141254591700,1.898591796875,-0.3023782968521118,-0.08368854224681854,-0.4489859640598297
1732873141264621800,1.908621826171875,-0.24068090319633484,0.0708603709936142,-0.08918632566928864
1732873141274580500,1.91858056640625,-0.1722639948129654,0.24556782841682434,0.24862214922904968
1732873141284610800,1.92861083984375,-0.11056660860776901,0.38240164518356323,0.4862487316131592
1732873141294600200,1.93860009765625,-0.07513642311096191,0.45814892649650574,0.5900958180427551
1732873141304599800,1.948599853515625,-0.05619960278272629,0.46670106053352356,0.5729916095733643
1732873141314589200,1.958589111328125,-0.07330382615327835,0.39767327904701233,0.3830125033855438
1732873141324619500,1.96861962890625,-0.10018189996480942,0.3237585723400116,0.18936823308467865
1732873141334578200,1.978578125,-0.12950342893600464,0.22602014243602753,-0.028099801391363144
1732873141344608300,1.988608154296875,-0.16432274878025055,0.12889257073402405,-0.2321287989616394
1732873141354597600,1.99859765625,-0.18631389737129211,0.06719517707824707,-0.3878994286060333
1732873141364597500,2.008597412109375,-0.18081611394882202,0.03237585723400116,-0.48380526900291443
1732873141374586600,2.018586669921875,-0.15943582355976105,0.04337143152952194,-0.5002986192703247
1732873141384618200,2.0286181640625,-0.09468411654233932,0.15271630883216858,-0.3995058834552765
1732873141394576000,2.038575927734375,-0.039095375686883926,0.24556782841682434,-0.2816088795661926
1732873141404607200,2.048607177734375,0.015882495790719986,0.3243694305419922,-0.16493362188339233
1732873141414595300,2.05859521484375,0.06414084881544113,0.36529740691185,-0.08368854224681854
1732873141424595000,2.068594970703125,0.10201449692249298,0.3604104816913605,-0.0403171069920063
1732873141434584300,2.078584228515625,0.12339477986097336,0.3139847218990326,-0.02382374368607998
1732873141444616000,2.088615966796875,0.14049901068210602,0.24617868661880493,-0.02871066704392433
1732873141454573300,2.0985732421875,0.1563815027475357,0.1514945775270462,-0.05497787147760391
1732873141464605000,2.10860498046875,0.1667662113904953,0.1111774742603302,-0.07269296050071716
1732873141474592800,2.1185927734375,0.16982053220272064,0.07757988572120667,-0.08185594528913498
1732873141484624600,2.128624755859375,0.17837265133857727,0.04581489413976669,-0.07941248267889023
1732873141494581800,2.138581787109375,0.19608774781227112,0.04092797264456749,-0.06230825558304787
1732873141504642000,2.14864208984375,0.21135938167572021,0.08735372871160507,-0.03481931984424591
1732873141514601500,2.1586015625,0.2174680233001709,0.12828169763088226,-0.031154127791523933
1732873141524602600,2.1686025390625,0.21868975460529327,0.13561208546161652,-0.06658431142568588
1732873141534590500,2.178590576171875,0.17898350954055786,0.08002334833145142,-0.17898350954055786
1732873141544621800,2.188621826171875,0.1362229436635971,0.02687807008624077,-0.2742784917354584
1732873141554579700,2.198579833984375,0.08552113175392151,-0.02382374368607998,-0.3591887652873993
1732873141564611000,2.208611083984375,0.03726277872920036,-0.07513642311096191,-0.4178318381309509
1732873141574599200,2.21859912109375,0.009162978269159794,-0.12217304855585098,-0.43615779280662537
1732873141584600300,2.228600341796875,0.001832595793530345,-0.12889257073402405,-0.3933972120285034
1732873141594587100,2.238587158203125,0.02015855349600315,-0.10506882518529892,-0.2883284091949463
1732873141604619000,2.248618896484375,0.08918632566928864,-0.06291911751031876,-0.039706241339445114
1732873141614576600,2.25857666015625,0.1264491081237793,-0.03848451003432274,0.1319468915462494
1732873141624608300,2.268608154296875,0.13561208546161652,-0.02932153269648552,0.26939156651496887
1732873141634596000,2.27859619140625,0.11972958594560623,-0.04886921867728233,0.3396410644054413
1732873141644597200,2.28859716796875,0.08429940044879913,-0.07696902006864548,0.35246923565864563
1732873141654585000,2.298585205078125,0.039095375686883926,-0.10873401165008545,0.31459560990333557
1732873141664616400,2.308616455078125,-0.01038470957428217,-0.14966198801994324,0.24007004499435425
1732873141674574000,2.318573974609375,-0.09040805697441101,-0.21074850857257843,0.11423180252313614
1732873141684605700,2.328605712890625,-0.13500121235847473,-0.23151792585849762,0.06780604273080826
1732873141694594000,2.338593994140625,-0.1661553531885147,-0.23884831368923187,0.056810468435287476
1732873141704595000,2.348594970703125,-0.18509216606616974,-0.24190263450145721,0.0757472887635231
1732873141714583000,2.3585830078125,-0.192422553896904,-0.2474004179239273,0.11178833991289139
1732873141724614400,2.368614501953125,-0.20586158335208893,-0.2730567753314972,0.14477506279945374
1732873141734602800,2.378602783203125,-0.23396138846874237,-0.31642818450927734,0.1563815027475357
1732873141744603600,2.388603759765625,-0.27611109614372253,-0.35063666105270386,0.15027284622192383
1732873141754591700,2.398591796875,-0.34758231043815613,-0.38606682419776917,0.08796459436416626
1732873141764623400,2.408623291015625,-0.40194934606552124,-0.413555771112442,0.021991148591041565
1732873141774580500,2.41858056640625,-0.45142942667007446,-0.4550946056842804,-0.0555887371301651
1732873141784612600,2.428612548828125,-0.5082398653030396,-0.5351179838180542,-0.14416420459747314
1732873141794600200,2.43860009765625,-0.5644394755363464,-0.6133087277412415,-0.22113321721553802
1732873141804600600,2.4486005859375,-0.6102544069290161,-0.6255260109901428,-0.24495697021484375
1732873141814589200,2.458589111328125,-0.6200281977653503,-0.5180137157440186,-0.1667662113904953
1732873141824620800,2.468620849609375,-0.4990769028663635,-0.1417207419872284,0.15577064454555511
1732873141834578200,2.478578125,-0.37568211555480957,0.1563815027475357,0.42760565876960754
1732873141844609800,2.48860986328125,-0.2791654169559479,0.40194934606552124,0.6346889734268188
1732873141854597600,2.49859765625,-0.23396138846874237,0.5247332453727722,0.7214318513870239
1732873141864598800,2.508598876953125,-0.25106561183929443,0.5149593949317932,0.6737843751907349
1732873141874586600,2.518586669921875,-0.3188716471195221,0.3695734739303589,0.5002986192703247
1732873141884618200,2.5286181640625,-0.4282165467739105,0.1160643994808197,0.22113321721553802
1732873141894575900,2.538575927734375,-0.6224716901779175,-0.25534167885780334,-0.29504790902137756
1732873141904607200,2.548607177734375,-0.7263187766075134,-0.3689626157283783,-0.5852088928222656
1732873141914595300,2.55859521484375,-0.7605272531509399,-0.37140607833862305,-0.7422012686729431
1732873141924595000,2.568594970703125,-0.7159340381622314,-0.28649580478668213,-0.7189884185791016
1732873141934584300,2.578584228515625,-0.5955936312675476,-0.12278391420841217,-0.5167919993400574
1732873141944616000,2.588615966796875,-0.4440990388393402,0.09468411654233932,-0.2015855312347412
1732873141954573300,2.5985732421875,-0.30115658044815063,0.3127630054950714,0.13561208546161652
1732873141964605000,2.60860498046875,-0.2076941877603531,0.4538728892803192,0.3836233615875244
1732873141974593000,2.618593017578125,-0.15943582355976105,0.494189977645874,0.4648684561252594
1732873141984624400,2.628624267578125,-0.17348572611808777,0.4447098970413208,0.36651915311813354
1732873141994581800,2.638581787109375,-0.21502456068992615,0.35613444447517395,0.22357667982578278
1732873142004613400,2.64861328125,-0.24984388053417206,0.22968533635139465,0.08368854224681854
1732873142014601500,2.6586015625,-0.25473082065582275,0.10751228034496307,-0.00427605677396059
1732873142024602600,2.6686025390625,-0.2272418737411499,0.01710422709584236,-0.00855211354792118
1732873142034590500,2.678590576171875,-0.1667662113904953,-0.02871066704392433,0.060475658625364304
1732873142044622000,2.6886220703125,-0.06230825558304787,0.015271631069481373,0.20036379992961884
1732873142054579700,2.698579833984375,-0.009162978269159794,0.06780604273080826,0.2791654169559479
1732873142064611000,2.708611083984375,0.03420845419168472,0.10201449692249298,0.33719760179519653
1732873142074599200,2.71859912109375,0.06475171446800232,0.10995574295520782,0.36224308609962463
1732873142084599800,2.728599853515625,0.0806342139840126,0.07819075137376785,0.3530801236629486
1732873142094588000,2.738587890625,0.09040805697441101,0.025045474991202354,0.323147714138031
1732873142104619300,2.748619384765625,0.09285151958465576,-0.02626720629632473,0.2773328125476837
1732873142114577200,2.7585771484375,0.07819075137376785,-0.08246681094169617,0.19608774781227112
1732873142124608500,2.7686083984375,0.07696902006864548,-0.10445795953273773,0.14966198801994324
1732873142134596600,2.7785966796875,0.08246681094169617,-0.1007927656173706,0.1258382350206375
1732873142144597500,2.788597412109375,0.09224065393209457,-0.08246681094169617,0.12217304855585098
1732873142154585600,2.798585693359375,0.12278391420841217,-0.012828170321881771,0.13072516024112701
1732873142164617200,2.8086171875,0.1667662113904953,0.0959058403968811,0.15760323405265808
1732873142174574600,2.81857470703125,0.21624629199504852,0.2015855312347412,0.17898350954055786
1732873142184606000,2.82860595703125,0.25473082065582275,0.26450464129447937,0.17348572611808777
1732873142194594000,2.838593994140625,0.29077184200286865,0.27122417092323303,0.09957103431224823
1732873142204595200,2.84859521484375,0.28649580478668213,0.2119702398777008,0.018325956538319588
1732873142214583000,2.8585830078125,0.26022860407829285,0.09651670604944229,-0.05742133408784866
1732873142224614700,2.86861474609375,0.23945917189121246,-0.01771509274840355,-0.10567969083786011
1732873142234602800,2.878602783203125,0.25045475363731384,-0.09407325088977814,-0.10812314599752426
1732873142244602400,2.888602294921875,0.303600013256073,-0.11911872029304504,-0.04337143152952194
1732873142254591700,2.898591796875,0.3854559659957886,-0.06108652427792549,0.08307767659425735
1732873142264622300,2.908622314453125,0.5369505286216736,0.024434609338641167,0.29504790902137756
1732873142274580500,2.91858056640625,0.6328563690185547,0.06475171446800232,0.36163222789764404
1732873142284611000,2.928611083984375,0.6914994716644287,0.1270599663257599,0.31154128909111023
1732873142294600200,2.93860009765625,0.7092145681381226,0.056810468435287476,0.1459967941045761
1732873142304600800,2.948600830078125,0.6835582256317139,-0.1722639948129654,-0.13011430203914642
1732873142314589200,2.958589111328125,0.588263213634491,-0.45753806829452515,-0.5485569834709167
1732873142324620800,2.968620849609375,0.42210787534713745,-0.6902777552604675,-1.0604621171951294
1732873142334578200,2.978578125,0.1466076523065567,-0.8527678847312927,-1.7287486791610718
1732873142344608500,2.9886083984375,0.05009094998240471,-0.7580837607383728,-1.8985692262649536
1732873142354597600,2.99859765625,0.07269296050071716,-0.5357288122177124,-1.7220290899276733
1732873142364597500,3.008597412109375,0.20463985204696655,-0.2687807083129883,-1.205847978591919
1732873142374586600,3.018586669921875,0.38667771220207214,0.0006108652451075613,-0.46853363513946533
1732873142384618200,3.0286181640625,0.5308418869972229,0.18936823308467865,0.28588494658470154
1732873142394576000,3.038575927734375,0.5913175344467163,0.28527405858039856,0.8668177723884583
1732873142404607200,3.048607177734375,0.5913175344467163,0.32620203495025635,1.169806957244873
1732873142414595300,3.05859521484375,0.49235737323760986,0.2932153046131134,1.1869112253189087
1732873142424596200,3.06859619140625,0.3995058834552765,0.22663100063800812,1.0433578491210938
1732873142434584300,3.078584228515625,0.34025195240974426,0.17531833052635193,0.8747590184211731
1732873142444615400,3.088615478515625,0.30543261766433716,0.16554448008537292,0.7275404930114746
1732873142454573300,3.0985732421875,0.28955012559890747,0.19364428520202637,0.5974262356758118
1732873142464604200,3.108604248046875,0.2938261926174164,0.2370157092809677,0.4703662395477295
1732873142474593000,3.118593017578125,0.31581732630729675,0.30482175946235657,0.33536502718925476
1732873142484624000,3.128623779296875,0.3445279896259308,0.41111230850219727,0.09834930300712585
1732873142494581800,3.138581787109375,0.33475416898727417,0.39095374941825867,-0.08491026610136032
1732873142504613400,3.14861328125,0.30543261766433716,0.24862214922904968,-0.2681698501110077
1732873142514601500,3.1586015625,0.2632829248905182,0.048258353024721146,-0.4282165467739105
1732873142524602400,3.168602294921875,0.2223549485206604,-0.12217304855585098,-0.5442809462547302
1732873142534590500,3.178590576171875,0.1875356286764145,-0.21135938167572021,-0.5931501388549805
1732873142544621800,3.188621826171875,0.16493362188339233,-0.2174680233001709,-0.5619960427284241
1732873142554579700,3.198579833984375,0.17531833052635193,-0.11728613078594208,-0.38117989897727966
1732873142564611000,3.208611083984375,0.2076941877603531,-0.036651913076639175,-0.20097467303276062
1732873142574599200,3.21859912109375,0.24495697021484375,0.03237585723400116,-0.012828170321881771
1732873142584600300,3.228600341796875,0.26572638750076294,0.0959058403968811,0.15393804013729095
1732873142594587100,3.238587158203125,0.25961771607398987,0.13561208546161652,0.26633724570274353
1732873142604618200,3.2486181640625,0.2321287989616394,0.14844025671482086,0.313373863697052
1732873142614576600,3.25857666015625,0.19608774781227112,0.14416420459747314,0.2987131178379059
1732873142624607500,3.268607421875,0.14905111491680145,0.12095131725072861,0.2376265823841095
1732873142634596000,3.27859619140625,0.06291911751031876,0.06108652427792549,0.0659734457731247
1732873142644596500,3.288596435546875,-0.00427605677396059,0.03481931984424591,-0.07208210229873657
1732873142654585000,3.298585205078125,-0.06536258012056351,0.036651913076639175,-0.2028072625398636
1732873142664616000,3.308615966796875,-0.11911872029304504,0.05925392732024193,-0.30115658044815063
1732873142674574000,3.318573974609375,-0.1472185254096985,0.10751228034496307,-0.3280346393585205
1732873142684605700,3.328605712890625,-0.1417207419872284,0.17043140530586243,-0.27122417092323303
1732873142694594000,3.338593994140625,-0.12034045159816742,0.23029619455337524,-0.1563815027475357
1732873142704595000,3.348594970703125,-0.10873401165008545,0.2376265823841095,0.010995574295520782
1732873142714583000,3.3585830078125,-0.12095131725072861,0.18631389737129211,0.09346238523721695
1732873142724614700,3.36861474609375,-0.1313360333442688,0.11972958594560623,0.16493362188339233
1732873142734602800,3.378602783203125,-0.13377949595451355,0.0555887371301651,0.24129177629947662
1732873142744603600,3.388603759765625,-0.12950342893600464,0.019547687843441963,0.3243694305419922
1732873142754591700,3.398591796875,-0.11056660860776901,0.02382374368607998,0.39706242084503174
1732873142764622300,3.408622314453125,-0.08368854224681854,0.0555887371301651,0.4404338300228119
1732873142774580500,3.41858056640625,-0.06780604273080826,0.13072516024112701,0.4386012554168701
1732873142784611600,3.428611572265625,-0.08124507963657379,0.15760323405265808,0.37201693654060364
1732873142794600200,3.43860009765625,-0.11667526513338089,0.15577064454555511,0.2620611786842346
1732873142804600600,3.4486005859375,-0.1765400618314743,0.12828169763088226,0.12400564551353455
1732873142814589200,3.458589111328125,-0.25045475363731384,0.08307767659425735,-0.025656340643763542
1732873142824620800,3.468620849609375,-0.3225368559360504,0.03787364438176155,-0.15760323405265808
1732873142834578400,3.478578369140625,-0.38117989897727966,-0.009773843921720982,-0.24190263450145721
1732873142844609800,3.48860986328125,-0.4251621961593628,-0.03787364438176155,-0.26572638750076294
1732873142854597600,3.49859765625,-0.4807509481906891,-0.04642575979232788,-0.23579397797584534
1732873142864599000,3.50859912109375,-0.503963828086853,-0.02626720629632473,-0.1973094791173935
1732873142874586600,3.518586669921875,-0.523511528968811,-0.001832595793530345,-0.14477506279945374
1732873142884618500,3.528618408203125,-0.53328537940979,0.02076941914856434,-0.07452555745840073
1732873142894575600,3.53857568359375,-0.5363397002220154,0.05803219974040985,0.005497787147760391
1732873142904607200,3.548607177734375,-0.5345070958137512,0.10445795953273773,0.08185594528913498
1732873142914595300,3.55859521484375,-0.5222898125648499,0.1563815027475357,0.15393804013729095
1732873142924596500,3.568596435546875,-0.5088507533073425,0.22296582162380219,0.242513507604599
1732873142934584300,3.578584228515625,-0.4990769028663635,0.242513507604599,0.27611109614372253
1732873142944615200,3.588615234375,-0.4703662395477295,0.242513507604599,0.28955012559890747
1732873142954573300,3.5985732421875,-0.4306600093841553,0.26633724570274353,0.29138273000717163
1732873142964604400,3.6086044921875,-0.3854559659957886,0.30482175946235657,0.2816088795661926
1732873142974593000,3.618593017578125,-0.33475416898727417,0.29138273000717163,0.2474004179239273
1732873142984623900,3.628623779296875,-0.2974913716316223,0.1973094791173935,0.1918116807937622
1732873142994581800,3.638581787109375,-0.2638937830924988,-0.02871066704392433,0.11362093687057495
1732873143004613600,3.648613525390625,-0.24434609711170197,-0.18509216606616974,0.08979719132184982
1732873143014601500,3.6586015625,-0.20036379992961884,-0.3188716471195221,0.11239920556545258
1732873143024602400,3.668602294921875,-0.12828169763088226,-0.40683624148368835,0.17104226350784302
1732873143034590500,3.678590576171875,-0.04092797264456749,-0.4294382631778717,0.23945917189121246
1732873143044621800,3.688621826171875,0.06841690838336945,-0.30543261766433716,0.2883284091949463
1732873143054579700,3.698579833984375,0.192422553896904,-0.04642575979232788,0.303600013256073
1732873143064609800,3.70860986328125,0.4147774875164032,0.15027284622192383,0.25534167885780334
1732873143074599200,3.71859912109375,0.8087855577468872,0.36163222789764404,0.014049900695681572
1732873143084600000,3.72860009765625,0.8216137290000916,0.5717698931694031,-0.1215621829032898
1732873143094588000,3.738587890625,0.6585127115249634,0.6499606370925903,-0.24434609711170197
1732873143104619500,3.74861962890625,0.4190535545349121,0.5992587804794312,-0.3536909818649292
1732873143114577000,3.758576904296875,0.19914206862449646,0.4331034719944,-0.5100724697113037
1732873143124608500,3.7686083984375,0.05497787147760391,0.18631389737129211,-0.7263187766075134
1732873143134596600,3.7785966796875,-0.015882495790719986,-0.10934487730264664,-0.949895441532135
1732873143144596000,3.788595947265625,-0.039706241339445114,-0.5833762884140015,-1.1465940475463867
1732873143154585600,3.798585693359375,-0.059864792972803116,-0.8405506014823914,-1.0965031385421753
1732873143164617200,3.8086171875,-0.07757988572120667,-1.0329731702804565,-0.9615018963813782
1732873143174574300,3.81857421875,-0.0806342139840126,-1.1136072874069214,-0.6939429044723511
1732873143184605400,3.82860546875,-0.08368854224681854,-1.0610729455947876,-0.323147714138031
1732873143194594000,3.838593994140625,-0.10690141469240189,-0.8979719281196594,0.08918632566928864
1732873143204594000,3.848593994140625,-0.1618792861700058,-0.6572909951210022,0.4917465150356293
1732873143214583000,3.8585830078125,-0.3744603991508484,-0.22418753802776337,0.9608910083770752
1732873143224613400,3.86861328125,-0.5015203952789307,-0.04459316283464432,1.0793988704681396
1732873143234602800,3.878602783203125,-0.5925393104553223,0.00427605677396059,1.0219775438308716
1732873143244603600,3.888603759765625,-0.675006091594696,0.01466076634824276,0.8839219808578491
1732873143254591700,3.898591796875,-0.7531968355178833,0.04642575979232788,0.7409795522689819
1732873143264622000,3.9086220703125,-0.7825183868408203,0.02076941914856434,0.5974262356758118
1732873143274580500,3.91858056640625,-0.7660250067710876,0.016493361443281174,0.48319441080093384
1732873143284611000,3.928611083984375,-0.7250970602035522,0.12278391420841217,0.39645153284072876
1732873143294600200,3.93860009765625,-0.6829473376274109,0.30970868468284607,0.29504790902137756
1732873143304600300,3.948600341796875,-0.685390830039978,0.3604104816913605,0.21563543379306793
1732873143314589200,3.958589111328125,-0.7049384713172913,0.36651915311813354,0.14416420459747314
1732873143324619500,3.96861962890625,-0.7134906053543091,0.31520646810531616,0.0757472887635231
1732873143334578200,3.978578125,-0.6982190012931824,0.2987131178379059,0.013439035043120384
1732873143344608800,3.98860888671875,-0.6426302194595337,0.27000242471694946,0.04581489413976669
1732873143354597600,3.99859765625,-0.5100724697113037,0.12095131725072861,-0.039095375686883926
1732873143364598800,4.008598876953125,-0.45326200127601624,-0.014049900695681572,-0.12217304855585098
1732873143374586600,4.018586669921875,-0.43676865100860596,-0.0861319974064827,-0.1514945775270462
1732873143384618500,4.028618408203125,-0.3988949954509735,-0.09651670604944229,-0.13072516024112701
1732873143394576000,4.038575927734375,-0.3237585723400116,-0.04459316283464432,-0.06475171446800232
1732873143404607500,4.048607421875,-0.25595253705978394,0.0012217304902151227,0.029932396486401558
1732873143414595300,4.05859521484375,-0.18997909128665924,0.06902777403593063,0.13011430203914642
1732873143424596500,4.068596435546875,-0.12828169763088226,0.1319468915462494,0.2278527319431305
1732873143434584300,4.078584228515625,-0.06780604273080826,0.08246681094169617,0.31520646810531616
1732873143444616000,4.088615966796875,-0.045204028487205505,-0.021380282938480377,0.33536502718925476
1732873143454573300,4.0985732421875,-0.039095375686883926,-0.12339477986097336,0.3390302062034607
1732873143464605000,4.10860498046875,-0.03726277872920036,-0.21441370248794556,0.33658674359321594
1732873143474593000,4.118593017578125,-0.03726277872920036,-0.2919935882091522,0.34086281061172485
1732873143484624400,4.128624267578125,-0.028099801391363144,-0.323147714138031,0.3536909818649292
1732873143494581800,4.138581787109375,-0.006108652334660292,-0.3017674386501312,0.3695734739303589
1732873143504640000,4.148639892578125,0.02871066704392433,-0.20036379992961884,0.3683517575263977
1732873143514601500,4.1586015625,0.0757472887635231,0.02932153269648552,0.3017674386501312
1732873143524601900,4.168601806640625,0.08979719132184982,0.1667662113904953,0.19853121042251587
1732873143534590500,4.178590576171875,0.1014036312699318,0.26145032048225403,0.05864306539297104
1732873143544621800,4.188621826171875,0.10812314599752426,0.25595253705978394,-0.0806342139840126
1732873143554579700,4.198579833984375,0.10873401165008545,0.15332718193531036,-0.16493362188339233
1732873143564611300,4.208611328125,0.12767083942890167,0.012828170321881771,-0.17043140530586243
1732873143574599200,4.21859912109375,0.18325957655906677,-0.08368854224681854,-0.11545353382825851
1732873143584600300,4.228600341796875,0.29077184200286865,-0.04764748737215996,0.04642575979232788
1732873143594587400,4.23858740234375,0.3543018400669098,-0.01160643994808197,0.1270599663257599
1732873143604618800,4.24861865234375,0.3897320330142975,-0.06841690838336945,0.14477506279945374
1732873143614576600,4.25857666015625,0.34025195240974426,-0.2015855312347412,0.016493361443281174
1732873143624608300,4.268608154296875,0.23151792585849762,-0.33719760179519653,-0.24556782841682434
1732873143634596000,4.27859619140625,0.08307767659425735,-0.4239404797554016,-0.4899139404296875
1732873143644596000,4.288595947265625,0.003054326167330146,-0.3689626157283783,-0.5400048494338989
1732873143654585000,4.298585205078125,0.10506882518529892,0.00427605677396059,-0.1618792861700058
1732873143664615400,4.308615478515625,0.21624629199504852,0.21624629199504852,0.1508837193250656
1732873143674574000,4.318573974609375,0.2816088795661926,0.27611109614372253,0.2932153046131134
1732873143684604200,4.328604248046875,0.27488934993743896,0.21074850857257843,0.2278527319431305
1732873143694594000,4.338593994140625,0.18875735998153687,0.1007927656173706,0.03298672288656235
1732873143704594700,4.3485947265625,0.056810468435287476,0.01771509274840355,-0.20463985204696655
1732873143714583000,4.3585830078125,-0.054367005825042725,-0.030543262138962746,-0.41111230850219727
1732873143724613000,4.368613037109375,-0.10384709388017654,-0.06536258012056351,-0.5277875661849976
1732873143734602800,4.378602783203125,-0.09224065393209457,-0.12889257073402405,-0.5143485069274902
1732873143744603600,4.388603759765625,-0.056810468435287476,-0.18387043476104736,-0.42149701714515686
1732873143754591700,4.398591796875,-0.007941247895359993,-0.252287358045578,-0.32559117674827576
1732873143764623000,4.408623046875,0.06291911751031876,-0.323147714138031,-0.2382374405860901
1732873143774580500,4.41858056640625,0.1062905490398407,-0.32498031854629517,-0.11056660860776901
1732873143784612400,4.4286123046875,0.10567969083786011,-0.2742784917354584,0.02076941914856434
1732873143794600200,4.43860009765625,0.13561208546161652,-0.20402899384498596,0.10873401165008545
1732873143804600600,4.4486005859375,0.15882496535778046,-0.03787364438176155,0.14538592100143433
1732873143814589200,4.458589111328125,0.14233160018920898,0.06902777403593063,0.1368338167667389
1732873143824620300,4.468620361328125,0.11178833991289139,0.12339477986097336,0.13255776464939117
1732873143834578200,4.478578125,0.08552113175392151,0.12278391420841217,0.12461651116609573
1732873143844609000,4.488609130859375,0.07452555745840073,0.09407325088977814,0.11178833991289139
1732873143854597600,4.49859765625,0.07696902006864548,0.05925392732024193,0.09040805697441101
1732873143864598000,4.508597900390625,0.08796459436416626,0.014049900695681572,0.056810468435287476
1732873143874586600,4.518586669921875,0.10690141469240189,-0.03726277872920036,-0.021380282938480377
1732873143884617700,4.52861767578125,0.1111774742603302,-0.04703662544488907,-0.07819075137376785
1732873143894575900,4.538575927734375,0.11301007121801376,-0.03726277872920036,-0.13011430203914642
1732873143904607200,4.548607177734375,0.10934487730264664,-0.02015855349600315,-0.1563815027475357
1732873143914595600,4.558595703125,0.10812314599752426,0.001832595793530345,-0.15943582355976105
1732873143924596200,4.56859619140625,0.1014036312699318,0.014049900695681572,-0.1466076523065567
1732873143934584300,4.578584228515625,0.07941248267889023,0.022602014243602753,-0.12217304855585098
1732873143944615700,4.58861572265625,0.06536258012056351,0.028099801391363144,-0.08735372871160507
1732873143954573300,4.5985732421875,0.08307767659425735,0.06291911751031876,-0.015271631069481373
1732873143964605200,4.608605224609375,0.1362229436635971,0.06108652427792549,0.03176499158143997
1732873143974593000,4.618593017578125,0.15882496535778046,0.0806342139840126,0.08918632566928864
1732873143984624600,4.628624755859375,0.15821409225463867,0.09529497474431992,0.14538592100143433
1732873143994581800,4.638581787109375,0.15821409225463867,0.07941248267889023,0.18997909128665924
1732873144004612900,4.64861279296875,0.1661553531885147,0.03848451003432274,0.24434609711170197
1732873144014601500,4.6586015625,0.17837265133857727,-0.00366519158706069,0.30115658044815063
1732873144024602400,4.668602294921875,0.2015855312347412,-0.05803219974040985,0.37262779474258423
1732873144034590500,4.678590576171875,0.21563543379306793,-0.07880161702632904,0.4031710624694824
1732873144044621800,4.688621826171875,0.2217440903186798,-0.08918632566928864,0.4288274049758911
1732873144054579700,4.698579833984375,0.23151792585849762,-0.08918632566928864,0.4550946056842804
1732873144064610000,4.708610107421875,0.24373523890972137,-0.08979719132184982,0.47219884395599365
1732873144074599000,4.718598876953125,0.24495697021484375,-0.08429940044879913,0.4599815309047699
1732873144084599300,4.728599365234375,0.21991148591041565,-0.08796459436416626,0.40256020426750183
1732873144094588000,4.738587890625,0.1508837193250656,-0.09407325088977814,0.23090706765651703
1732873144104619000,4.748618896484375,0.09651670604944229,-0.10934487730264664,0.08979719132184982
1732873144114577200,4.7585771484375,0.0403171069920063,-0.12950342893600464,-0.04948008432984352
1732873144124608500,4.7686083984375,0.0012217304902151227,-0.17776179313659668,-0.16310101747512817
1732873144134596600,4.7785966796875,0.015271631069481373,-0.2736676335334778,-0.2577851414680481
1732873144144597500,4.788597412109375,-0.007941247895359993,-0.342695415019989,-0.3127630054950714
1732873144154585600,4.798585693359375,-0.0659734457731247,-0.43676865100860596,-0.3591887652873993
1732873144164616000,4.808615966796875,-0.1417207419872284,-0.5552765130996704,-0.4129449129104614
1732873144174574600,4.81857470703125,-0.2840523421764374,-0.7428121566772461,-0.4697553813457489
1732873144184605000,4.82860498046875,-0.4050036668777466,-0.8539896011352539,-0.49296826124191284
1732873144194594000,4.838593994140625,-0.5027421116828918,-0.9162978529930115,-0.5363397002220154
1732873144204595000,4.848594970703125,-0.5992587804794312,-0.8802568316459656,-0.5522221922874451
1732873144214583000,4.8585830078125,-0.6585127115249634,-0.7220427393913269,-0.45875978469848633
1732873144224614700,4.86861474609375,-0.6041457056999207,-0.4905247986316681,-0.17776179313659668
1732873144234602800,4.878602783203125,-0.48258355259895325,-0.251676470041275,0.2626720666885376
1732873144244604000,4.88860400390625,-0.3194825351238251,-0.012828170321881771,0.8704829812049866
1732873144254591500,4.898591552734375,-0.2785545587539673,0.06352998316287994,1.06657075881958
1732873144264623000,4.908623046875,-0.30115658044815063,0.10812314599752426,1.0751228332519531
1732873144274580500,4.91858056640625,-0.35246923565864563,0.11850785464048386,0.9224064946174622
1732873144284611600,4.928611572265625,-0.41172316670417786,0.10384709388017654,0.655458390712738
1732873144294600200,4.93860009765625,-0.4758640229701996,0.09834930300712585,0.3341432809829712
1732873144304600800,4.948600830078125,-0.5375614166259766,0.09834930300712585,0.006108652334660292
1732873144314589200,4.958589111328125,-0.5723807215690613,0.1411098688840866,-0.40072759985923767
1732873144324620800,4.968620849609375,-0.5503895878791809,0.18448130786418915,-0.5674937963485718
1732873144334578200,4.978578125,-0.5100724697113037,0.20341812074184418,-0.656680166721344
1732873144344609800,4.98860986328125,-0.4593706727027893,0.22357667982578278,-0.6609562039375305
1732873144354598000,4.998597900390625,-0.4043927788734436,0.2480112910270691,-0.5821545720100403
1732873144364598800,5.008598876953125,-0.3585779070854187,0.26633724570274353,-0.4502076804637909
1732873144374586600,5.018586669921875,-0.3188716471195221,0.2767219543457031,-0.2981022298336029
1732873144384618500,5.028618408203125,-0.29138273000717163,0.29565876722335815,-0.12950342893600464
1732873144394576000,5.038575927734375,-0.26022860407829285,0.3323107063770294,0.1007927656173706
1732873144404607500,5.048607421875,-0.23396138846874237,0.37079519033432007,0.19547687470912933
1732873144414595300,5.05859521484375,-0.21074850857257843,0.3988949954509735,0.24373523890972137
1732873144424596200,5.06859619140625,-0.1966986060142517,0.3799581825733185,0.24129177629947662
1732873144434584600,5.07858447265625,-0.18448130786418915,0.3341432809829712,0.2125810980796814
1732873144444616000,5.088615966796875,-0.14966198801994324,0.2883284091949463,0.18020524084568024
1732873144454573600,5.098573486328125,-0.11178833991289139,0.22968533635139465,0.16920967400074005
1732873144464605000,5.10860498046875,-0.016493361443281174,0.16737708449363708,0.16982053220272064
1732873144474593000,5.118593017578125,0.05742133408784866,0.16798794269561768,0.17592918872833252
1732873144484624600,5.128624755859375,0.12522737681865692,0.19120082259178162,0.19058994948863983
1732873144494582000,5.13858203125,0.21135938167572021,0.22663100063800812,0.2168571650981903
1732873144504613600,5.148613525390625,0.304210901260376,0.24617868661880493,0.26145032048225403
1732873144514601500,5.1586015625,0.37568211555480957,0.2724458873271942,0.3194825351238251
1732873144524602400,5.168602294921875,0.4447098970413208,0.26145032048225403,0.3646865487098694
1732873144534590500,5.178590576171875,0.5870414972305298,0.192422553896904,0.3585779070854187
1732873144544622000,5.1886220703125,0.5839871764183044,0.17592918872833252,0.37079519033432007
1732873144554579700,5.198579833984375,0.5583308339118958,0.14905111491680145,0.3683517575263977
1732873144564611000,5.208611083984375,0.5742133259773254,0.12034045159816742,0.3549126982688904
1732873144574599000,5.218598876953125,0.6114761233329773,0.08124507963657379,0.3188716471195221
1732873144584600300,5.228600341796875,0.6377432942390442,0.0507018156349659,0.251676470041275
1732873144594587100,5.238587158203125,0.655458390712738,0.024434609338641167,0.16920967400074005
1732873144604619300,5.248619384765625,0.6633996367454529,-0.0024434609804302454,0.10384709388017654
1732873144614576600,5.25857666015625,0.6481280326843262,-0.007941247895359993,0.019547687843441963
1732873144624608300,5.268608154296875,0.6359107494354248,-0.007941247895359993,-0.036651913076639175
1732873144634596000,5.27859619140625,0.646295428276062,-0.025656340643763542,-0.09224065393209457
1732873144644597200,5.28859716796875,0.636521577835083,-0.07269296050071716,-0.14233160018920898
1732873144654585000,5.298585205078125,0.5729916095733643,-0.1514945775270462,-0.20341812074184418
1732873144664616700,5.30861669921875,0.46242499351501465,-0.22418753802776337,-0.2834414839744568
1732873144674574000,5.318573974609375,0.35613444447517395,-0.24862214922904968,-0.3494149148464203
1732873144684605700,5.328605712890625,0.32498031854629517,-0.23640485107898712,-0.38728857040405273
1732873144694594000,5.338593994140625,0.3280346393585205,-0.1973094791173935,-0.3701843321323395
1732873144704595000,5.348594970703125,0.33292156457901,-0.15454891324043274,-0.35246923565864563
1732873144714583000,5.3585830078125,0.31642818450927734,-0.1466076523065567,-0.32681289315223694
1732873144724614400,5.368614501953125,0.2932153046131134,-0.15943582355976105,-0.2840523421764374
1732873144734602800,5.378602783203125,0.304210901260376,-0.1771509200334549,-0.16554448008537292
1732873144744604000,5.38860400390625,0.35124751925468445,-0.14966198801994324,0.027488935738801956
1732873144754591700,5.398591796875,0.38728857040405273,-0.09224065393209457,0.25595253705978394
1732873144764622800,5.408622802734375,0.3744603991508484,-0.04642575979232788,0.2871066629886627
1732873144774580500,5.41858056640625,0.33658674359321594,0.021991148591041565,0.2528982162475586
1732873144784611300,5.428611328125,0.2938261926174164,0.1007927656173706,0.19608774781227112
1732873144794600200,5.43860009765625,0.26633724570274353,0.1472185254096985,0.11484266817569733
1732873144804600300,5.448600341796875,0.3219259977340698,0.06352998316287994,-0.05253441259264946
1732873144814589200,5.458589111328125,0.35063666105270386,0.022602014243602753,-0.2565633952617645
1732873144824620300,5.468620361328125,0.33719760179519653,0.012828170321881771,-0.4550946056842804
1732873144834578200,5.478578125,0.2919935882091522,-0.012217304669320583,-0.6236934065818787
1732873144844609800,5.48860986328125,0.28099802136421204,-0.03481931984424591,-0.5693264007568359
1732873144854597600,5.49859765625,0.2834414839744568,-0.014049900695681572,-0.4147774875164032
1732873144864598800,5.508598876953125,0.3182607889175415,-0.010995574295520782,-0.22052235901355743
1732873144874586600,5.518586669921875,0.3689626157283783,0.022602014243602753,-0.01038470957428217
1732873144884618500,5.528618408203125,0.41661009192466736,0.11545353382825851,0.19120082259178162
1732873144894575900,5.538575927734375,0.4642575979232788,0.21502456068992615,0.3732386529445648
1732873144904606500,5.5486064453125,0.5216789245605469,0.3017674386501312,0.5864306092262268
1732873144914595300,5.55859521484375,0.5338962078094482,0.29077184200286865,0.636521577835083
1732873144924595700,5.568595703125,0.5277875661849976,0.23396138846874237,0.6316346526145935
1732873144934584300,5.578584228515625,0.5155702829360962,0.15332718193531036,0.5845980644226074
1732873144944615200,5.588615234375,0.504574716091156,0.0757472887635231,0.494189977645874
1732873144954573600,5.598573486328125,0.48869219422340393,0.02321287989616394,0.3781255781650543
1732873144964604200,5.608604248046875,0.4599815309047699,0.001832595793530345,0.24129177629947662
1732873144974593000,5.618593017578125,0.3995058834552765,0.02932153269648552,0.02076941914856434
1732873144984623900,5.628623779296875,0.3604104816913605,0.07941248267889023,-0.11362093687057495
1732873144994581800,5.638581787109375,0.3323107063770294,0.1466076523065567,-0.2217440903186798
1732873145004613000,5.648613037109375,0.3139847218990326,0.20097467303276062,-0.2968805134296417
1732873145014601500,5.6586015625,0.3127630054950714,0.2021963894367218,-0.3280346393585205
1732873145024602400,5.668602294921875,0.32009339332580566,0.20097467303276062,-0.31031954288482666
1732873145034590500,5.678590576171875,0.3237585723400116,0.1875356286764145,-0.25534167885780334
1732873145044622000,5.6886220703125,0.3292563557624817,0.15577064454555511,-0.17592918872833252
1732873145054579700,5.698579833984375,0.3579670190811157,0.12828169763088226,-0.025045474991202354
1732873145064610300,5.7086103515625,0.3933972120285034,0.13072516024112701,0.08307767659425735
1732873145074599000,5.718598876953125,0.4239404797554016,0.1417207419872284,0.17837265133857727
1732873145084599600,5.728599609375,0.44104471802711487,0.13866640627384186,0.2272418737411499
1732873145094588000,5.738587890625,0.4343251883983612,0.11362093687057495,0.21135938167572021
1732873145104619000,5.748618896484375,0.4001167416572571,0.06475171446800232,0.1459967941045761
1732873145114577200,5.7585771484375,0.35552358627319336,0.00366519158706069,0.0555887371301651
1732873145124608000,5.76860791015625,0.2871066629886627,-0.07452555745840073,-0.07757988572120667
1732873145134596600,5.7785966796875,0.24984388053417206,-0.11239920556545258,-0.16310101747512817
1732873145144597000,5.788596923828125,0.21807889640331268,-0.15821409225463867,-0.23151792585849762
1732873145154585600,5.798585693359375,0.1869247704744339,-0.2119702398777008,-0.2681698501110077
1732873145164617200,5.8086171875,0.15332718193531036,-0.2620611786842346,-0.28466320037841797
1732873145174574300,5.81857421875,0.12522737681865692,-0.2730567753314972,-0.31154128909111023
1732873145184606200,5.828606201171875,0.10567969083786011,-0.23273965716362,-0.35613444447517395
1732873145194594000,5.838593994140625,0.056810468435287476,-0.16004669666290283,-0.48685958981513977
1732873145204594000,5.848593994140625,-0.00427605677396059,-0.17043140530586243,-0.6291912198066711
1732873145214583300,5.858583251953125,-0.09224065393209457,-0.2675589919090271,-0.7867944240570068
1732873145224613400,5.86861328125,-0.19792033731937408,-0.4453207552433014,-0.9334021210670471
1732873145234602800,5.878602783203125,-0.29993483424186707,-0.645684540271759,-1.0115928649902344
1732873145244602400,5.888602294921875,-0.39217549562454224,-0.827722430229187,-0.9938777685165405
1732873145254591700,5.898591796875,-0.485027015209198,-0.930347740650177,-0.8448266386985779
1732873145264623400,5.908623291015625,-0.5253441333770752,-0.9553932547569275,-0.5546656250953674
1732873145274580500,5.91858056640625,-0.4905247986316681,-0.8155050873756409,0.04092797264456749
1732873145284612000,5.928612060546875,-0.42577308416366577,-0.6304129362106323,0.42088615894317627
1732873145294600200,5.93860009765625,-0.35552358627319336,-0.4001167416572571,0.656069278717041
1732873145304601000,5.94860107421875,-0.3225368559360504,-0.17287486791610718,0.6914994716644287
1732873145314589200,5.958589111328125,-0.3280346393585205,0.019547687843441963,0.5791002511978149
1732873145324620800,5.968620849609375,-0.35185837745666504,0.15515977144241333,0.37568211555480957
1732873145334578200,5.978578125,-0.3830125033855438,0.2590068578720093,0.1313360333442688
1732873145344608500,5.9886083984375,-0.4453207552433014,0.33169981837272644,-0.23457226157188416
1732873145354598000,5.998597900390625,-0.4893030524253845,0.323147714138031,-0.40256020426750183
1732873145364597500,6.008597412109375,-0.513737678527832,0.27611109614372253,-0.45142942667007446
1732873145374586600,6.018586669921875,-0.5057964324951172,0.21624629199504852,-0.35246923565864563
1732873145384617200,6.0286171875,-0.44654250144958496,0.15577064454555511,-0.11789698898792267
1732873145394576000,6.038575927734375,-0.3701843321323395,0.10323622822761536,0.15821409225463867
1732873145404607500,6.048607421875,-0.3237585723400116,0.06169738993048668,0.35246923565864563
1732873145414595300,6.05859521484375,-0.3274237811565399,0.1014036312699318,0.43188172578811646
1732873145424596200,6.06859619140625,-0.3530801236629486,0.12950342893600464,0.38667771220207214
1732873145434584300,6.078584228515625,-0.3781255781650543,0.16065755486488342,0.30970868468284607
1732873145444615200,6.088615234375,-0.3830125033855438,0.19547687470912933,0.2382374405860901
1732873145454573600,6.098573486328125,-0.37201693654060364,0.22418753802776337,0.19792033731937408
1732873145464605200,6.108605224609375,-0.34636059403419495,0.23945917189121246,0.1973094791173935
1732873145474593000,6.118593017578125,-0.3170390725135803,0.22540926933288574,0.22296582162380219
1732873145484624600,6.128624755859375,-0.2968805134296417,0.17837265133857727,0.25473082065582275
1732873145494581800,6.138581787109375,-0.2883284091949463,0.060475658625364304,0.2669481039047241
1732873145504641800,6.148641845703125,-0.29138273000717163,-0.00733038317412138,0.2528982162475586
1732873145514601500,6.1586015625,-0.2840523421764374,-0.039706241339445114,0.22296582162380219
1732873145524602600,6.1686025390625,-0.2590068578720093,-0.013439035043120384,0.1918116807937622
1732873145534590500,6.178590576171875,-0.2168571650981903,0.0403171069920063,0.16554448008537292
1732873145544622000,6.1886220703125,-0.16249015927314758,0.10018189996480942,0.14416420459747314
1732873145554579700,6.198579833984375,-0.11301007121801376,0.14049901068210602,0.12950342893600464
1732873145564611000,6.208611083984375,-0.05314527451992035,0.17592918872833252,0.10934487730264664
1732873145574599200,6.21859912109375,-0.03176499158143997,0.19303341209888458,0.08185594528913498
1732873145584600300,6.228600341796875,-0.02321287989616394,0.1814269721508026,0.042760565876960754
1732873145594587400,6.23858740234375,-0.021991148591041565,0.1313360333442688,0.016493361443281174
1732873145604619000,6.248618896484375,-0.014049900695681572,0.09346238523721695,0.018325956538319588
1732873145614576600,6.25857666015625,0.00366519158706069,0.0806342139840126,0.04703662544488907
1732873145624608000,6.26860791015625,0.039706241339445114,0.09040805697441101,0.09346238523721695
1732873145634596000,6.27859619140625,0.11972958594560623,0.14966198801994324,0.18448130786418915
1732873145644597200,6.28859716796875,0.16982053220272064,0.18325957655906677,0.2535090744495392
1732873145654585000,6.298585205078125,0.20830504596233368,0.20891591906547546,0.3176499307155609
1732873145664616700,6.30861669921875,0.22296582162380219,0.1918116807937622,0.33719760179519653
1732873145674574000,6.318573974609375,0.2125810980796814,0.13744467496871948,0.30543261766433716
1732873145684605400,6.32860546875,0.18814650177955627,0.07941248267889023,0.23457226157188416
1732873145694594000,6.338593994140625,0.15760323405265808,0.021991148591041565,0.15393804013729095
1732873145704595000,6.348594970703125,0.12889257073402405,-0.022602014243602753,0.08368854224681854
1732873145714583000,6.3585830078125,0.10690141469240189,-0.05803219974040985,0.01466076634824276
1732873145724614700,6.36861474609375,0.10812314599752426,-0.0507018156349659,0.007941247895359993
1732873145734602800,6.378602783203125,0.11911872029304504,-0.013439035043120384,0.031154127791523933
1732873145744604000,6.38860400390625,0.1313360333442688,0.03237585723400116,0.06414084881544113
1732873145754591700,6.398591796875,0.14049901068210602,0.06963863968849182,0.08796459436416626
1732873145764623400,6.408623291015625,0.14782938361167908,0.08552113175392151,0.09162978827953339
1732873145774580500,6.41858056640625,0.1472185254096985,0.05803219974040985,0.060475658625364304
1732873145784612400,6.4286123046875,0.13255776464939117,-0.04459316283464432,-0.022602014243602753
1732873145794600200,6.43860009765625,0.10934487730264664,-0.11301007121801376,-0.08185594528913498
1732873145804601000,6.44860107421875,0.08368854224681854,-0.16920967400074005,-0.1258382350206375
1732873145814589200,6.458589111328125,0.0555887371301651,-0.21807889640331268,-0.14233160018920898
1732873145824620000,6.4686201171875,0.01466076634824276,-0.29138273000717163,-0.15821409225463867
1732873145834578200,6.478578125,-0.036651913076639175,-0.3830125033855438,-0.1973094791173935
1732873145844609800,6.48860986328125,-0.09773843735456467,-0.46364670991897583,-0.242513507604599
1732873145854597600,6.49859765625,-0.1612684279680252,-0.4758640229701996,-0.2321287989616394
1732873145864598800,6.508598876953125,-0.15515977144241333,-0.39217549562454224,-0.10995574295520782
1732873145874586600,6.518586669921875,-0.1007927656173706,-0.26083946228027344,0.09712757170200348
1732873145884617200,6.5286171875,-0.04153883829712868,-0.15027284622192383,0.3274237811565399
1732873145894575900,6.538575927734375,-0.009162978269159794,-0.08918632566928864,0.5119050741195679
1732873145904606200,6.548606201171875,-0.012217304669320583,-0.07635815441608429,0.6145304441452026
1732873145914595300,6.55859521484375,-0.027488935738801956,-0.07330382615327835,0.6151412725448608
1732873145924597200,6.56859716796875,-0.04337143152952194,-0.0757472887635231,0.48258355259895325
1732873145934584300,6.578584228515625,-0.08491026610136032,-0.04764748737215996,0.07452555745840073
1732873145944617500,6.588617431640625,-0.12034045159816742,-0.021380282938480377,-0.25961771607398987
1732873145954573600,6.598573486328125,-0.15027284622192383,0.014049900695681572,-0.5827654600143433
1732873145964604400,6.6086044921875,-0.18387043476104736,0.03848451003432274,-0.8484918475151062
1732873145974593000,6.618593017578125,-0.22296582162380219,0.031154127791523933,-1.018923282623291
1732873145984624600,6.628624755859375,-0.2620611786842346,0.015882495790719986,-1.1062769889831543
1732873145994582000,6.63858203125,-0.2932153046131134,0.0012217304902151227,-1.0659598112106323
1732873146004613400,6.64861328125,-0.2675589919090271,0.014049900695681572,-0.7257078886032104
1732873146014601500,6.6586015625,-0.19425514340400696,0.09346238523721695,-0.31031954288482666
1732873146024602400,6.668602294921875,-0.10201449692249298,0.1973094791173935,0.1569923609495163
1732873146034590500,6.678590576171875,-0.01710422709584236,0.27122417092323303,0.5528330206871033
1732873146044621800,6.688621826171875,0.04459316283464432,0.3188716471195221,0.8020660877227783
1732873146054579700,6.698579833984375,0.07330382615327835,0.3481931984424591,0.9101892113685608
1732873146064610300,6.7086103515625,0.06780604273080826,0.3396410644054413,0.8955284357070923
1732873146074599200,6.71859912109375,0.03848451003432274,0.28955012559890747,0.7220427393913269
1732873146084599300,6.728599365234375,0.01038470957428217,0.2370157092809677,0.5461135506629944
1732873146094588000,6.738587890625,-0.025656340643763542,0.18875735998153687,0.3439171314239502
1732873146104619000,6.748618896484375,-0.07269296050071716,0.1313360333442688,0.13744467496871948
1732873146114577000,6.758576904296875,-0.12400564551353455,0.0708603709936142,-0.03848451003432274
1732873146124608300,6.768608154296875,-0.17409659922122955,0.018936822190880775,-0.1722639948129654
1732873146134596600,6.7785966796875,-0.21319197118282318,-0.015271631069481373,-0.25961771607398987
1732873146144597000,6.788596923828125,-0.23945917189121246,-0.029932396486401558,-0.304210901260376
1732873146154585600,6.798585693359375,-0.25045475363731384,-0.022602014243602753,-0.28955012559890747
1732873146164617200,6.8086171875,-0.23884831368923187,-0.005497787147760391,-0.2278527319431305
1732873146174574300,6.81857421875,-0.22907446324825287,0.005497787147760391,-0.14416420459747314
1732873146184606500,6.8286064453125,-0.2168571650981903,-0.006719517521560192,-0.04214970022439957
1732873146194594000,6.838593994140625,-0.19975294172763824,-0.03298672288656235,0.05742133408784866
1732873146204594400,6.848594482421875,-0.1918116807937622,-0.09957103431224823,0.1313360333442688
1732873146214583000,6.8585830078125,-0.20341812074184418,-0.16859880089759827,0.16310101747512817
1732873146224614400,6.868614501953125,-0.26511552929878235,-0.29993483424186707,0.1215621829032898
1732873146234602800,6.878602783203125,-0.3225368559360504,-0.4141666293144226,0.06352998316287994
1732873146244603400,6.888603271484375,-0.36529740691185,-0.513126790523529,0.025045474991202354
1732873146254591700,6.898591796875,-0.39767327904701233,-0.5705481171607971,0.009162978269159794
1732873146264622600,6.90862255859375,-0.4196644127368927,-0.5772676467895508,0.01710422709584236
1732873146274580500,6.91858056640625,-0.43188172578811646,-0.5491678714752197,0.04459316283464432
1732873146284611300,6.928611328125,-0.4434881806373596,-0.5009095072746277,0.0861319974064827
1732873146294600200,6.93860009765625,-0.46792277693748474,-0.40072759985923767,0.09346238523721695
1732873146304600800,6.948600830078125,-0.4911356568336487,-0.3194825351238251,0.016493361443281174
1732873146314589200,6.958589111328125,-0.5180137157440186,-0.23457226157188416,-0.1411098688840866
1732873146324620300,6.968620361328125,-0.5626068711280823,-0.1618792861700058,-0.36224308609962463
1732873146334578200,6.978578125,-0.6255260109901428,-0.17409659922122955,-0.5998696684837341
1732873146344609800,6.98860986328125,-0.7092145681381226,-0.25534167885780334,-0.826500654220581
1732873146354597600,6.99859765625,-0.826500654220581,-0.41599923372268677,-0.9669997096061707
1732873146364598800,7.008598876953125,-0.9162978529930115,-0.5381723046302795,-0.8753699064254761
1732873146374587000,7.0185869140625,-0.837496280670166,-0.5192354321479797,-0.2064724564552307
1732873146384617500,7.028617431640625,-0.6517932415008545,-0.40622538328170776,0.4502076804637909
1732873146394576000,7.038575927734375,-0.4758640229701996,-0.26939156651496887,1.0018190145492554
1732873146404606000,7.04860595703125,-0.3903428912162781,-0.14844025671482086,1.284038782119751
1732873146414595300,7.05859521484375,-0.3842342495918274,-0.05619960278272629,1.2791517972946167
1732873146424596000,7.068595947265625,-0.4190535545349121,0.018936822190880775,1.0390818119049072
1732873146434584300,7.078584228515625,-0.485027015209198,0.08674286305904388,0.6328563690185547
1732873146444616700,7.08861669921875,-0.6157521605491638,0.1014036312699318,-0.07024950534105301
1732873146454573600,7.098573486328125,-0.6951646208763123,0.05192354694008827,-0.4893030524253845
1732873146464605200,7.108605224609375,-0.7458664774894714,-0.02626720629632473,-0.7605272531509399
1732873146474593000,7.118593017578125,-0.7684684991836548,-0.10934487730264664,-0.8753699064254761
1732873146484624600,7.128624755859375,-0.7757988572120667,-0.17959438264369965,-0.8686503767967224
1732873146494582000,7.13858203125,-0.7617489695549011,-0.20402899384498596,-0.7434229850769043
1732873146504613600,7.148613525390625,-0.7330383062362671,-0.152105450630188,-0.5174028873443604
1732873146514601500,7.1586015625,-0.6579018831253052,0.02015855349600315,-0.09896016865968704
1732873146524603000,7.168602783203125,-0.6029239892959595,0.1459967941045761,0.15515977144241333
1732873146534590500,7.178590576171875,-0.5558874011039734,0.2620611786842346,0.33169981837272644
1732873146544622300,7.188622314453125,-0.5180137157440186,0.33719760179519653,0.4196644127368927
1732873146554579700,7.198579833984375,-0.4911356568336487,0.36224308609962463,0.4404338300228119
1732873146564611300,7.208611328125,-0.4593706727027893,0.33475416898727417,0.4202753007411957
1732873146574599200,7.21859912109375,-0.42149701714515686,0.2889392673969269,0.37629300355911255
1732873146584600300,7.228600341796875,-0.394008070230484,0.23273965716362,0.3023782968521118
1732873146594587100,7.238587158203125,-0.36713001132011414,0.1612684279680252,0.16859880089759827
1732873146604619300,7.248619384765625,-0.3549126982688904,0.1417207419872284,0.08735372871160507
1732873146614576600,7.25857666015625,-0.34513887763023376,0.14905111491680145,0.033597588539123535
1732873146624608300,7.268608154296875,-0.323147714138031,0.1722639948129654,0.012828170321881771
1732873146634596000,7.27859619140625,-0.2974913716316223,0.1966986060142517,0.01710422709584236
1732873146644597200,7.28859716796875,-0.2638937830924988,0.2125810980796814,0.036041051149368286
1732873146654585000,7.298585205078125,-0.23457226157188416,0.20463985204696655,0.0507018156349659
1732873146664616700,7.30861669921875,-0.19792033731937408,0.17104226350784302,0.05192354694008827
1732873146674574000,7.318573974609375,-0.16859880089759827,0.16371189057826996,0.05314527451992035
1732873146684606000,7.32860595703125,-0.14049901068210602,0.16737708449363708,0.06169738993048668
1732873146694594000,7.338593994140625,-0.10445795953273773,0.17776179313659668,0.07269296050071716
1732873146704595200,7.34859521484375,-0.06536258012056351,0.19058994948863983,0.0959058403968811
1732873146714583000,7.3585830078125,-0.02932153269648552,0.2125810980796814,0.12095131725072861
1732873146724614700,7.36861474609375,0.004886921960860491,0.21624629199504852,0.13439035415649414
1732873146734602800,7.378602783203125,0.042760565876960754,0.19303341209888458,0.13439035415649414
1732873146744603600,7.388603759765625,0.05375614017248154,0.1459967941045761,0.10262536257505417
1732873146754591700,7.398591796875,0.04764748737215996,0.0959058403968811,0.0555887371301651
1732873146764623000,7.408623046875,0.04886921867728233,0.05497787147760391,0.019547687843441963
1732873146774580500,7.41858056640625,0.07024950534105301,0.03848451003432274,0.0024434609804302454
1732873146784612000,7.428612060546875,0.09957103431224823,0.05253441259264946,-0.00733038317412138
1732873146794600200,7.43860009765625,0.13561208546161652,0.10018189996480942,-0.02321287989616394
1732873146804600600,7.4486005859375,0.16798794269561768,0.17531833052635193,-0.06352998316287994
1732873146814589200,7.458589111328125,0.17043140530586243,0.29993483424186707,-0.23579397797584534
1732873146824620300,7.468620361328125,0.12950342893600464,0.3072652220726013,-0.46181413531303406
1732873146834578200,7.478578125,0.036041051149368286,0.23396138846874237,-0.7244861721992493
1732873146844609800,7.48860986328125,-0.05864306539297104,0.11056660860776901,-0.9230173826217651
1732873146854597600,7.49859765625,-0.10506882518529892,-0.06169738993048668,-0.9553932547569275
1732873146864598800,7.508598876953125,-0.07941248267889023,-0.21563543379306793,-0.7733554244041443
1732873146874587000,7.5185869140625,0.00366519158706069,-0.29016098380088806,-0.4153883755207062
1732873146884617000,7.528616943359375,0.1472185254096985,-0.2742784917354584,0.21135938167572021
1732873146894575600,7.53857568359375,0.19914206862449646,-0.18509216606616974,0.5326744914054871
1732873146904606700,7.548606689453125,0.20586158335208893,-0.06352998316287994,0.7165449261665344
1732873146914595300,7.55859521484375,0.17104226350784302,0.04886921867728233,0.7391469478607178
1732873146924597200,7.56859716796875,0.10995574295520782,0.14049901068210602,0.6230825781822205
1732873146934584300,7.578584228515625,0.039095375686883926,0.2076941877603531,0.39645153284072876
1732873146944616700,7.58861669921875,-0.010995574295520782,0.24373523890972137,0.08124507963657379
1732873146954573300,7.5985732421875,-0.04337143152952194,0.2528982162475586,-0.4703662395477295
1732873146964605700,7.608605712890625,-0.02871066704392433,0.1918116807937622,-0.816726803779602
1732873146974593000,7.618593017578125,0.006719517521560192,0.11545353382825851,-1.0690141916275024
1732873146984623400,7.628623291015625,0.0403171069920063,0.01466076634824276,-1.2064588069915771
1732873146994581800,7.638581787109375,0.06108652427792549,-0.12034045159816742,-1.244943380355835
1732873147004613400,7.64861328125,0.07330382615327835,-0.22113321721553802,-1.1545352935791016
1732873147014601500,7.6586015625,0.08307767659425735,-0.25045475363731384,-0.9450085163116455
1732873147024602400,7.668602294921875,0.10384709388017654,-0.19975294172763824,-0.6585127115249634
1732873147034590500,7.678590576171875,0.16065755486488342,0.00427605677396059,-0.14294247329235077
1732873147044621800,7.688621826171875,0.2223549485206604,0.17409659922122955,0.19547687470912933
1732873147054579700,7.698579833984375,0.30115658044815063,0.31581732630729675,0.47342056035995483
1732873147064611000,7.708611083984375,0.3701843321323395,0.36102136969566345,0.6670648455619812
1732873147074599000,7.718598876953125,0.4190535545349121,0.3170390725135803,0.7654141783714294
1732873147084599300,7.728599365234375,0.44715335965156555,0.24556782841682434,0.7770205736160278
1732873147094588000,7.738587890625,0.4605923891067505,0.1618792861700058,0.7299839854240417
1732873147104619000,7.748618896484375,0.45204028487205505,0.05009094998240471,0.5534439086914062
1732873147114577000,7.758576904296875,0.4294382631778717,-0.006719517521560192,0.37568211555480957
1732873147124610000,7.768610107421875,0.39584067463874817,-0.04337143152952194,0.18325957655906677
1732873147134596600,7.7785966796875,0.3683517575263977,-0.05864306539297104,-0.012217304669320583
1732873147144597200,7.78859716796875,0.342695415019989,-0.051312681287527084,-0.20341812074184418
1732873147154585600,7.798585693359375,0.3121521472930908,-0.04459316283464432,-0.3689626157283783
1732873147164616400,7.808616455078125,0.28527405858039856,-0.06780604273080826,-0.49724429845809937
1732873147174574300,7.81857421875,0.2724458873271942,-0.11667526513338089,-0.5736024379730225
1732873147184606200,7.828606201171875,0.294437050819397,-0.16004669666290283,-0.5271766781806946
1732873147194594000,7.838593994140625,0.34086281061172485,-0.17959438264369965,-0.4153883755207062
1732873147204595000,7.848594970703125,0.3927863538265228,-0.17531833052635193,-0.2669481039047241
1732873147214583000,7.8585830078125,0.4453207552433014,-0.16432274878025055,-0.1014036312699318
1732873147224614700,7.86861474609375,0.4899139404296875,-0.15515977144241333,0.06658431142568588
1732873147234602800,7.878602783203125,0.513737678527832,-0.15515977144241333,0.19547687470912933
1732873147244604000,7.88860400390625,0.5155702829360962,-0.152105450630188,0.2724458873271942
1732873147254591500,7.898591552734375,0.4709770977497101,-0.1722639948129654,0.303600013256073
1732873147264622600,7.90862255859375,0.4294382631778717,-0.18875735998153687,0.28649580478668213
1732873147274580500,7.91858056640625,0.3891211748123169,-0.19853121042251587,0.2590068578720093
1732873147284612400,7.9286123046875,0.35063666105270386,-0.20402899384498596,0.23090706765651703
1732873147294600200,7.93860009765625,0.3084869384765625,-0.19914206862449646,0.2119702398777008
1732873147304600600,7.9486005859375,0.23945917189121246,-0.17287486791610718,0.20097467303276062
1732873147314589200,7.958589111328125,0.19792033731937408,-0.19792033731937408,0.17898350954055786
1732873147324620000,7.9686201171875,0.2076941877603531,-0.34758231043815613,0.031154127791523933
1732873147334578400,7.978578369140625,0.21807889640331268,-0.48808133602142334,-0.13072516024112701
1732873147344608500,7.9886083984375,0.1771509200334549,-0.6352998614311218,-0.3072652220726013
1732873147354597600,7.99859765625,0.03726277872920036,-0.7745771408081055,-0.4691445231437683
1732873147364597500,8.008597412109374,-0.16982053220272064,-0.9010262489318848,-0.5742133259773254
1732873147374587000,8.0185869140625,-0.3591887652873993,-0.9865473508834839,-0.5711590051651001
1732873147384618500,8.028618408203124,-0.5112941861152649,-0.902247965335846,-0.394008070230484
1732873147394576000,8.038575927734374,-0.5186246037483215,-0.3988949954509735,0.25534167885780334
1732873147404606500,8.0486064453125,-0.3677408695220947,0.031154127791523933,0.7996225953102112
1732873147414595300,8.05859521484375,-0.16859880089759827,0.37568211555480957,1.226617455482483
1732873147424595000,8.068594970703124,0.012217304669320583,0.5271766781806946,1.4294246435165405
1732873147434584300,8.078584228515625,0.12461651116609573,0.5583308339118958,1.377501130104065
1732873147444616700,8.08861669921875,0.19853121042251587,0.5161811113357544,1.0781772136688232
1732873147454573600,8.098573486328124,0.2535090744495392,0.4355469346046448,0.5870414972305298
1732873147464607700,8.108607666015626,0.25045475363731384,0.3701843321323395,0.00366519158706069
1732873147474593000,8.118593017578124,0.15760323405265808,0.31093040108680725,-0.7806857824325562
1732873147484623400,8.128623291015625,0.14416420459747314,0.20952677726745605,-1.1142182350158691
1732873147494582000,8.13858203125,0.11728613078594208,0.10690141469240189,-1.2455542087554932
1732873147504641800,8.148641845703125,0.09224065393209457,-0.025045474991202354,-1.2021827697753906
1732873147514601500,8.1586015625,0.14049901068210602,-0.13316862285137177,-1.0378600358963013
1732873147524602600,8.1686025390625,0.24678955972194672,-0.18448130786418915,-0.7727445363998413
1732873147534590500,8.178590576171874,0.34513887763023376,-0.16310101747512817,-0.45265114307403564
1732873147544622000,8.1886220703125,0.4489859640598297,-0.010995574295520782,0.003054326167330146
1732873147554579700,8.198579833984375,0.49296826124191284,0.10995574295520782,0.21930062770843506
1732873147564609800,8.20860986328125,0.5442809462547302,0.19914206862449646,0.3335324227809906
1732873147574599200,8.21859912109375,0.6224716901779175,0.23335053026676178,0.3628539443016052
1732873147584600300,8.228600341796875,0.7128797173500061,0.20097467303276062,0.3396410644054413
1732873147594587400,8.23858740234375,0.8008443117141724,0.11728613078594208,0.29993483424186707
1732873147604619300,8.248619384765625,0.8839219808578491,0.04153883829712868,0.2791654169559479
1732873147614576600,8.25857666015625,0.9535606503486633,-0.039706241339445114,0.3445279896259308
1732873147624608300,8.268608154296874,0.9706648588180542,-0.03726277872920036,0.44226643443107605
1732873147634596000,8.27859619140625,0.9767735004425049,-0.015882495790719986,0.5112941861152649
1732873147644597500,8.288597412109375,0.9712757468223572,0.00855211354792118,0.5277875661849976
1732873147654585300,8.29858544921875,0.9492846131324768,0.0507018156349659,0.4960225820541382
1732873147664617000,8.308616943359375,0.93095862865448,0.11911872029304504,0.43249258399009705
1732873147674574000,8.318573974609375,0.9248499870300293,0.22602014243602753,0.3628539443016052
1732873147684604700,8.328604736328124,0.9181304574012756,0.33597588539123535,0.30482175946235657
1732873147694594000,8.338593994140625,0.8295549750328064,0.3225368559360504,0.2583959996700287
1732873147704594000,8.348593994140625,0.7672467231750488,0.2565633952617645,0.23884831368923187
1732873147714583000,8.3585830078125,0.7202101349830627,0.19975294172763824,0.22052235901355743
1732873147724614700,8.36861474609375,0.6823364496231079,0.17531833052635193,0.21319197118282318
1732873147734602800,8.378602783203124,0.6316346526145935,0.16004669666290283,0.2590068578720093
1732873147744603600,8.388603759765624,0.5833762884140015,0.1514945775270462,0.342695415019989
1732873147754591700,8.398591796875,0.5577199459075928,0.1820378452539444,0.4147774875164032
1732873147764623400,8.408623291015624,0.5736024379730225,0.2376265823841095,0.4990769028663635
1732873147774580500,8.41858056640625,0.5797111392021179,0.2828305959701538,0.5528330206871033
1732873147784612000,8.428612060546875,0.5558874011039734,0.34025195240974426,0.5778785347938538
1732873147794600200,8.43860009765625,0.5290092825889587,0.4098905920982361,0.5595525503158569
1732873147804601000,8.44860107421875,0.5155702829360962,0.5271766781806946,0.5009095072746277
1732873147814589200,8.458589111328125,0.5406157374382019,0.7073819637298584,0.41111230850219727
1732873147824620800,8.468620849609374,0.5900958180427551,0.8460483551025391,0.30054569244384766
1732873147834578200,8.478578125,0.7183775305747986,0.9395107626914978,0.09957103431224823
1732873147844609800,8.48860986328125,0.8093964457511902,0.8759807348251343,-0.00427605677396059
1732873147854597600,8.49859765625,0.8717046976089478,0.675616979598999,-0.06658431142568588
1732873147864598500,8.5085986328125,0.8961393237113953,0.413555771112442,-0.09529497474431992
1732873147874587000,8.5185869140625,0.8839219808578491,0.1765400618314743,-0.09773843735456467
1732873147884618000,8.528617919921874,0.8228355050086975,0.013439035043120384,-0.07696902006864548
1732873147894575900,8.538575927734374,0.7281513810157776,-0.06841690838336945,-0.0757472887635231
1732873147904607000,8.54860693359375,0.6041457056999207,-0.08857546001672745,-0.10812314599752426
1732873147914595300,8.55859521484375,0.4337143301963806,-0.015271631069481373,-0.2076941877603531
1732873147924595200,8.56859521484375,0.35735616087913513,0.04459316283464432,-0.2834414839744568
1732873147934584300,8.578584228515625,0.2968805134296417,0.11178833991289139,-0.3188716471195221
1732873147944614700,8.58861474609375,0.2773328125476837,0.1563815027475357,-0.3072652220726013
1732873147954573600,8.598573486328124,0.303600013256073,0.1215621829032898,-0.27000242471694946
1732873147964603600,8.608603759765625,0.36590829491615295,0.0403171069920063,-0.22846360504627228
1732873147974593000,8.618593017578124,0.43249258399009705,-0.08491026610136032,-0.19853121042251587
1732873147984623400,8.628623291015625,0.49235737323760986,-0.20341812074184418,-0.18936823308467865
1732873147994581800,8.638581787109375,0.5002986192703247,-0.16432274878025055,-0.20525072515010834
1732873148004613000,8.648613037109374,0.4715879559516907,-0.07819075137376785,-0.23640485107898712
1732873148014601500,8.6586015625,0.41722095012664795,0.02871066704392433,-0.2791654169559479
1732873148024602000,8.66860205078125,0.38240164518356323,0.14294247329235077,-0.33475416898727417
1732873148034590500,8.678590576171874,0.3640756905078888,0.2125810980796814,-0.39156460762023926
1732873148044621600,8.68862158203125,0.3488040566444397,0.1661553531885147,-0.4178318381309509
1732873148054579700,8.698579833984375,0.323147714138031,0.0006108652451075613,-0.38179078698158264
1732873148064611000,8.708611083984374,0.28955012559890747,-0.3292563557624817,-0.3237585723400116
1732873148074599000,8.718598876953125,0.2626720666885376,-0.5021312236785889,-0.24434609711170197
1732873148084599800,8.728599853515625,0.23945917189121246,-0.5870414972305298,-0.15332718193531036
1732873148094588000,8.738587890625,0.22602014243602753,-0.5894849896430969,-0.0659734457731247
1732873148104619500,8.74861962890625,0.20952677726745605,-0.5393940210342407,0.00366519158706069
1732873148114577000,8.758576904296875,0.19792033731937408,-0.41661009192466736,0.04398229718208313
1732873148124608500,8.7686083984375,0.20402899384498596,-0.24190263450145721,0.015882495790719986
1732873148134596600,8.7785966796875,0.2125810980796814,-0.012828170321881771,-0.11728613078594208
1732873148144597800,8.78859765625,0.20402899384498596,0.09040805697441101,-0.2021963894367218
1732873148154585600,8.798585693359374,0.17776179313659668,0.1270599663257599,-0.27488934993743896
1732873148164617200,8.8086171875,0.16004669666290283,0.10934487730264664,-0.36102136969566345
1732873148174574300,8.81857421875,0.15882496535778046,0.06108652427792549,-0.47769662737846375
1732873148184606200,8.828606201171874,0.18814650177955627,0.006719517521560192,-0.6188064813613892
1732873148194594000,8.838593994140625,0.23029619455337524,-0.02687807008624077,-0.7391469478607178
1732873148204595000,8.848594970703125,0.0910189226269722,-0.2015855312347412,-0.7061602473258972
1732873148214583000,8.8585830078125,-0.07941248267889023,-0.37079519033432007,-0.5198463201522827
1732873148224614700,8.86861474609375,-0.12461651116609573,-0.42760565876960754,-0.33597588539123535
1732873148234602800,8.878602783203124,-0.08246681094169617,-0.4184426963329315,-0.18936823308467865
1732873148244603600,8.888603759765624,-0.01038470957428217,-0.34147366881370544,-0.08368854224681854
1732873148254591700,8.898591796875,0.08368854224681854,-0.1514945775270462,-0.00855211354792118
1732873148264621600,8.90862158203125,0.192422553896904,0.030543262138962746,0.0507018156349659
1732873148274580500,8.91858056640625,0.29016098380088806,0.16371189057826996,0.10323622822761536
1732873148284611000,8.928611083984375,0.40256020426750183,0.251676470041275,0.20891591906547546
1732873148294600200,8.93860009765625,0.44226643443107605,0.22113321721553802,0.3017674386501312
1732873148304601300,8.948601318359374,0.44715335965156555,0.13439035415649414,0.4001167416572571
1732873148314589200,8.958589111328125,0.40622538328170776,0.02932153269648552,0.5009095072746277
1732873148324620500,8.96862060546875,0.34147366881370544,-0.05192354694008827,0.5907067060470581
1732873148334578400,8.978578369140624,0.2779437005519867,-0.11789698898792267,0.6585127115249634
1732873148344609800,8.98860986328125,0.2321287989616394,-0.17470745742321014,0.6896668672561646
1732873148354598000,8.998597900390624,0.1814269721508026,-0.19303341209888458,0.6695083379745483
1732873148364598800,9.008598876953124,0.1270599663257599,-0.13377949595451355,0.617584764957428
1732873148374587000,9.0185869140625,0.06108652427792549,-0.0024434609804302454,0.5381723046302795
1732873148384617200,9.0286171875,-0.009162978269159794,0.15821409225463867,0.40622538328170776
1732873148394576000,9.038575927734374,-0.11667526513338089,0.3066543638706207,0.22907446324825287
1732873148404607500,9.048607421875,-0.252287358045578,0.3628539443016052,0.04459316283464432
1732873148414595300,9.05859521484375,-0.38179078698158264,0.2736676335334778,-0.11728613078594208
1732873148424596500,9.068596435546874,-0.5057964324951172,-0.03481931984424591,-0.3084869384765625
1732873148434584300,9.078584228515625,-0.5192354321479797,-0.2021963894367218,-0.3891211748123169
1732873148444616000,9.088615966796874,-0.5088507533073425,-0.29504790902137756,-0.43127086758613586
1732873148454573600,9.098573486328124,-0.4862487316131592,-0.3378084897994995,-0.4642575979232788
1732873148464605200,9.108605224609375,-0.44715335965156555,-0.29626965522766113,-0.5009095072746277
1732873148474593000,9.118593017578124,-0.3836233615875244,-0.17287486791610718,-0.5198463201522827
1732873148484624400,9.128624267578125,-0.33169981837272644,0.0006108652451075613,-0.5436700582504272
1732873148494581800,9.138581787109375,-0.33475416898727417,0.1368338167667389,-0.5943718552589417
1732873148504613600,9.148613525390624,-0.384845107793808,0.20097467303276062,-0.7055493593215942
1732873148514601500,9.1586015625,-0.3927863538265228,0.15454891324043274,-0.7861835956573486
1732873148524602400,9.168602294921875,-0.375071257352829,0.09712757170200348,-0.8344419002532959
1732873148534590500,9.178590576171874,-0.34025195240974426,0.036651913076639175,-0.8509352803230286
1732873148544622000,9.1886220703125,-0.2926044464111328,0.013439035043120384,-0.8161159753799438
1732873148554579700,9.198579833984375,-0.21074850857257843,0.04948008432984352,-0.7336491346359253
1732873148564611000,9.208611083984374,-0.10812314599752426,0.14966198801994324,-0.6017022728919983
1732873148574599200,9.21859912109375,-0.012217304669320583,0.30604347586631775,-0.32070425152778625
1732873148584600000,9.22860009765625,0.0006108652451075613,0.3286454975605011,-0.11362093687057495
1732873148594587400,9.23858740234375,-0.019547687843441963,0.27061331272125244,0.06414084881544113
1732873148604619300,9.248619384765625,-0.04337143152952194,0.16920967400074005,0.19303341209888458
1732873148614576600,9.25857666015625,-0.06291911751031876,0.07941248267889023,0.25106561183929443
1732873148624607500,9.268607421875,-0.05925392732024193,0.014049900695681572,0.23151792585849762
1732873148634596000,9.27859619140625,-0.014049900695681572,0.003054326167330146,0.15882496535778046
1732873148644597200,9.28859716796875,0.10445795953273773,0.06719517707824707,0.02321287989616394
1732873148654585000,9.298585205078124,0.18020524084568024,0.1319468915462494,-0.01710422709584236
1732873148664616700,9.30861669921875,0.23151792585849762,0.17104226350784302,0.018936822190880775
1732873148674574000,9.318573974609375,0.26511552929878235,0.15577064454555511,0.09896016865968704
1732873148684606000,9.32860595703125,0.27550023794174194,0.10995574295520782,0.17531833052635193
1732873148694594000,9.338593994140625,0.24923302233219147,0.05742133408784866,0.21441370248794556
1732873148704595000,9.348594970703125,0.2125810980796814,-0.0012217304902151227,0.20525072515010834
1732873148714583000,9.3585830078125,0.1716531366109848,-0.04886921867728233,0.16371189057826996
1732873148724614700,9.36861474609375,0.13744467496871948,-0.09712757170200348,0.01160643994808197
1732873148734602800,9.378602783203124,0.11728613078594208,-0.10262536257505417,-0.1417207419872284
1732873148744603600,9.388603759765624,0.1014036312699318,-0.07452555745840073,-0.31093040108680725
1732873148754591500,9.398591552734375,0.08307767659425735,-0.01466076634824276,-0.4703662395477295
1732873148764621800,9.408621826171874,0.051312681287527084,0.0806342139840126,-0.5699372887611389
1732873148774580500,9.41858056640625,0.005497787147760391,0.192422553896904,-0.5711590051651001
1732873148784612400,9.4286123046875,-0.022602014243602753,0.25106561183929443,-0.4905247986316681
1732873148794600200,9.43860009765625,-0.09651670604944229,0.1612684279680252,-0.25473082065582275
1732873148804601300,9.448601318359374,-0.12889257073402405,0.11850785464048386,-0.10812314599752426
1732873148814589200,9.458589111328125,-0.12095131725072861,0.1007927656173706,-0.042760565876960754
1732873148824620800,9.468620849609374,-0.10934487730264664,0.06841690838336945,-0.0507018156349659
1732873148834578200,9.478578125,-0.07635815441608429,0.04092797264456749,-0.08979719132184982
1732873148844608500,9.4886083984375,0.02076941914856434,0.04459316283464432,-0.14355333149433136
1732873148854598000,9.498597900390624,0.182648703455925,0.060475658625364304,-0.1875356286764145
1732873148864598800,9.508598876953124,0.4337143301963806,0.06230825558304787,-0.11423180252313614
1732873148874587000,9.5185869140625,0.5510004758834839,0.06536258012056351,0.04703662544488907
1732873148884618500,9.528618408203124,0.6194173693656921,0.054367005825042725,0.2535090744495392
1732873148894575900,9.538575927734374,0.6316346526145935,0.036041051149368286,0.44654250144958496
1732873148904607500,9.548607421875,0.6236934065818787,0.033597588539123535,0.5791002511978149
1732873148914595300,9.55859521484375,0.607810914516449,0.05009094998240471,0.6304129362106323
1732873148924595000,9.568594970703124,0.5949827432632446,0.054367005825042725,0.5876523852348328
1732873148934584300,9.578584228515625,0.5919284224510193,0.04642575979232788,0.46731191873550415
1732873148944616200,9.5886162109375,0.5858197808265686,0.07635815441608429,0.19547687470912933
1732873148954573600,9.598573486328124,0.5937610268592834,0.11667526513338089,0.04153883829712868
1732873148964605000,9.60860498046875,0.5864306092262268,0.1215621829032898,-0.012828170321881771
1732873148974593000,9.618593017578124,0.5662720799446106,0.13377949595451355,0.036651913076639175
1732873148984624600,9.628624755859375,0.5619960427284241,0.15760323405265808,0.13866640627384186
1732873148994581800,9.638581787109375,0.5546656250953674,0.17959438264369965,0.23457226157188416
1732873149004612900,9.64861279296875,0.5351179838180542,0.21441370248794556,0.2577851414680481
1732873149014601500,9.6586015625,0.4447098970413208,0.26083946228027344,0.1362229436635971
1732873149024602000,9.66860205078125,0.34697145223617554,0.22968533635139465,-0.03176499158143997
1732873149034590500,9.678590576171874,0.2590068578720093,0.1569923609495163,-0.27061331272125244
1732873149044621600,9.68862158203125,0.19364428520202637,0.08124507963657379,-0.5265658497810364
1732873149054579700,9.698579833984375,0.16920967400074005,0.016493361443281174,-0.749531626701355
1732873149064610800,9.70861083984375,0.13927727937698364,-0.05497787147760391,-0.8784242272377014
1732873149074599000,9.718598876953125,0.08918632566928864,-0.09651670604944229,-0.9065240025520325
1732873149084599800,9.728599853515625,0.02932153269648552,-0.08429940044879913,-0.770301103591919
1732873149094588000,9.738587890625,0.027488935738801956,-0.06780604273080826,-0.5436700582504272
1732873149104619300,9.748619384765625,0.06108652427792549,-0.022602014243602753,-0.18997909128665924
1732873149114577000,9.758576904296875,0.10323622822761536,0.039095375686883926,0.23090706765651703
1732873149124608500,9.7686083984375,0.12339477986097336,0.09407325088977814,0.6102544069290161
1732873149134596600,9.7785966796875,0.12522737681865692,0.1215621829032898,0.8539896011352539
1732873149144597500,9.788597412109375,0.1160643994808197,0.09651670604944229,0.9468411207199097
1732873149154585600,9.798585693359374,0.10201449692249298,0.0006108652451075613,0.9334021210670471
1732873149164617200,9.8086171875,0.08491026610136032,-0.13255776464939117,0.8210029006004333
1732873149174574300,9.81857421875,0.09224065393209457,-0.16737708449363708,0.7195992469787598
1732873149184605000,9.82860498046875,0.10751228034496307,-0.1814269721508026,0.6243042945861816
1732873149194594000,9.838593994140625,0.11178833991289139,-0.16920967400074005,0.5485569834709167
1732873149204594200,9.84859423828125,0.11484266817569733,-0.14966198801994324,0.4862487316131592
1732873149214583000,9.8585830078125,0.11423180252313614,-0.12522737681865692,0.42760565876960754
1732873149224613400,9.86861328125,0.10567969083786011,-0.1111774742603302,0.3579670190811157
1732873149234602800,9.878602783203124,0.07941248267889023,-0.1466076523065567,0.21868975460529327
1732873149244602400,9.888602294921874,0.05497787147760391,-0.20952677726745605,0.12767083942890167
1732873149254591700,9.898591796875,0.03237585723400116,-0.27977627515792847,0.05253441259264946
1732873149264621800,9.908621826171874,0.01038470957428217,-0.33719760179519653,-0.00366519158706069
1732873149274580700,9.918580810546874,-0.006719517521560192,-0.3500257730484009,-0.03787364438176155
1732873149284610800,9.92861083984375,-0.02015855349600315,-0.31459560990333557,-0.030543262138962746
1732873149294600200,9.93860009765625,-0.019547687843441963,-0.2577851414680481,0.02076941914856434
1732873149304599800,9.948599853515624,0.0024434609804302454,-0.1563815027475357,0.17287486791610718
1732873149314589200,9.958589111328125,0.014049900695681572,-0.1007927656173706,0.2785545587539673
1732873149324619300,9.968619384765624,0.02626720629632473,-0.06902777403593063,0.36163222789764404
1732873149334578200,9.978578125,0.03481931984424591,-0.07269296050071716,0.4239404797554016
1732873149344609800,9.98860986328125,0.04581489413976669,-0.10506882518529892,0.47769662737846375
1732873149354597600,9.99859765625,0.06414084881544113,-0.12767083942890167,0.5167919993400574
1732873149364598800,10.008598876953124,0.07452555745840073,-0.13500121235847473,0.5436700582504272
1732873149374587000,10.0185869140625,0.07391469180583954,-0.13255776464939117,0.5503895878791809
1732873149384618500,10.028618408203124,0.042760565876960754,-0.09834930300712585,0.5009095072746277
1732873149394576000,10.038575927734374,0.003054326167330146,-0.06352998316287994,0.4337143301963806
1732873149404607500,10.048607421875,-0.03298672288656235,-0.01771509274840355,0.3445279896259308
1732873149414595300,10.05859521484375,-0.07757988572120667,0.059864792972803116,0.2431243658065796
1732873149424596200,10.06859619140625,-0.12034045159816742,0.08674286305904388,0.11545353382825851
1732873149434584300,10.078584228515625,-0.16310101747512817,0.08735372871160507,-0.03848451003432274
1732873149444616000,10.088615966796874,-0.1820378452539444,0.07941248267889023,-0.21563543379306793
1732873149454573600,10.098573486328124,-0.16249015927314758,0.06291911751031876,-0.4893030524253845
1732873149464605000,10.10860498046875,-0.11545353382825851,0.05314527451992035,-0.6383541822433472
1732873149474593000,10.118593017578124,-0.05619960278272629,0.05619960278272629,-0.7220427393913269
1732873149484624400,10.128624267578125,-0.00427605677396059,0.05864306539297104,-0.7287622094154358
1732873149494581800,10.138581787109375,0.02687807008624077,0.051312681287527084,-0.6517932415008545
1732873149504641800,10.148641845703125,0.04703662544488907,0.04337143152952194,-0.513737678527832
1732873149514601500,10.1586015625,0.059864792972803116,0.025045474991202354,-0.33292156457901
1732873149524602400,10.168602294921875,0.07819075137376785,0.0024434609804302454,-0.03420845419168472
1732873149534590500,10.178590576171874,0.09468411654233932,-0.012217304669320583,0.1160643994808197
1732873149544621600,10.18862158203125,0.09712757170200348,-0.00855211354792118,0.1820378452539444
1732873149554579700,10.198579833984375,0.0708603709936142,0.019547687843441963,0.13805554807186127
1732873149564610300,10.2086103515625,0.05742133408784866,0.039706241339445114,-0.01710422709584236
1732873149574599200,10.21859912109375,0.048258353024721146,0.04948008432984352,-0.23518311977386475
1732873149584599600,10.228599609375,0.025656340643763542,0.04398229718208313,-0.4709770977497101
1732873149594587400,10.23858740234375,-0.0012217304902151227,0.03726277872920036,-0.6731734871864319
1732873149604619000,10.248618896484375,-0.03848451003432274,-0.030543262138962746,-0.8161159753799438
1732873149614576600,10.25857666015625,-0.05253441259264946,-0.06169738993048668,-0.7757988572120667
1732873149624608300,10.268608154296874,-0.05497787147760391,-0.12767083942890167,-0.5974262356758118
1732873149634596000,10.27859619140625,-0.014049900695681572,-0.18081611394882202,-0.28527405858039856
1732873149644597200,10.28859716796875,0.054367005825042725,-0.19975294172763824,0.08491026610136032
1732873149654585000,10.298585205078124,0.11423180252313614,-0.1667662113904953,0.4178318381309509
1732873149664616700,10.30861669921875,0.1514945775270462,-0.11972958594560623,0.627358615398407
1732873149674574000,10.318573974609375,0.16065755486488342,-0.08979719132184982,0.6957755088806152
1732873149684605400,10.32860546875,0.13377949595451355,-0.08796459436416626,0.6524040699005127
1732873149694594000,10.338593994140625,0.11301007121801376,-0.06108652427792549,0.5754350423812866
1732873149704594400,10.348594482421875,0.09896016865968704,-0.03481931984424591,0.4660901725292206
1732873149714583000,10.3585830078125,0.0910189226269722,-0.00855211354792118,0.3396410644054413
1732873149724614100,10.3686142578125,0.07819075137376785,0.036651913076639175,0.23640485107898712
1732873149734602800,10.378602783203124,0.06902777403593063,0.07391469180583954,0.17470745742321014
1732873149744603000,10.388602783203124,0.10690141469240189,0.09896016865968704,0.13316862285137177
1732873149754591700,10.398591796875,0.13988813757896423,0.10384709388017654,0.11728613078594208
1732873149764622300,10.408622314453124,0.17104226350784302,0.11423180252313614,0.08979719132184982
1732873149774580500,10.41858056640625,0.19547687470912933,0.1313360333442688,0.042760565876960754
1732873149784612400,10.4286123046875,0.2064724564552307,0.1472185254096985,-0.01466076634824276
1732873149794600200,10.43860009765625,0.20463985204696655,0.12522737681865692,-0.06536258012056351
1732873149804601300,10.448601318359374,0.19914206862449646,0.09162978827953339,-0.10690141469240189
1732873149814589200,10.458589111328125,0.19792033731937408,0.04948008432984352,-0.1459967941045761
1732873149824620800,10.468620849609374,0.20525072515010834,-0.0024434609804302454,-0.18081611394882202
1732873149834578200,10.478578125,0.22540926933288574,-0.029932396486401558,-0.17470745742321014
1732873149844609800,10.48860986328125,0.2791654169559479,-0.025045474991202354,-0.13805554807186127
1732873149854598000,10.498597900390624,0.4098905920982361,0.04398229718208313,-0.07330382615327835
1732873149864598800,10.508598876953124,0.4801400899887085,0.10201449692249298,0.04092797264456749
1732873149874587000,10.5185869140625,0.5253441333770752,0.1111774742603302,0.19608774781227112
1732873149884618500,10.528618408203124,0.5687155723571777,0.1264491081237793,0.3445279896259308
1732873149894575900,10.538575927734374,0.5925393104553223,0.19792033731937408,0.38728857040405273
1732873149904607700,10.548607666015625,0.5522221922874451,0.27000242471694946,0.2632829248905182
1732873149914595300,10.55859521484375,0.47342056035995483,0.2968805134296417,0.028099801391363144
1732873149924595200,10.56859521484375,0.3732386529445648,0.251676470041275,-0.2834414839744568
1732873149934584300,10.578584228515625,0.2724458873271942,0.17287486791610718,-0.5974262356758118
1732873149944616000,10.588615966796874,0.19364428520202637,0.09529497474431992,-0.8093964457511902
1732873149954573600,10.598573486328124,0.15943582355976105,0.05864306539297104,-0.8607091307640076
1732873149964605000,10.60860498046875,0.14844025671482086,0.04398229718208313,-0.5839871764183044
1732873149974593000,10.618593017578124,0.1771509200334549,0.06169738993048668,-0.2816088795661926
1732873149984624600,10.628624755859375,0.21074850857257843,0.0659734457731247,-0.0024434609804302454
1732873149994581800,10.638581787109375,0.22418753802776337,0.07696902006864548,0.1661553531885147
1732873150004612900,10.64861279296875,0.20341812074184418,0.06780604273080826,0.192422553896904
1732873150014601500,10.6586015625,0.1569923609495163,0.0659734457731247,0.1014036312699318
1732873150024601900,10.668601806640625,0.09834930300712585,0.08185594528913498,-0.06536258012056351
1732873150034590500,10.678590576171874,0.02932153269648552,0.09040805697441101,-0.26572638750076294
1732873150044621800,10.688621826171875,-0.08368854224681854,0.012828170321881771,-0.5528330206871033
1732873150054579500,10.698579345703125,-0.13744467496871948,-0.03848451003432274,-0.6841690540313721
1732873150064611000,10.708611083984374,-0.17043140530586243,-0.036041051149368286,-0.7354817390441895
1732873150074599200,10.71859912109375,-0.18814650177955627,-0.08552113175392151,-0.675006091594696
1732873150084600000,10.72860009765625,-0.19058994948863983,-0.13255776464939117,-0.484416127204895
1732873150094588000,10.738587890625,-0.1661553531885147,-0.16859880089759827,-0.18997909128665924
1732873150104619500,10.74861962890625,-0.13011430203914642,-0.16493362188339233,0.16004669666290283
1732873150114577000,10.758576904296875,-0.08857546001672745,-0.09040805697441101,0.6304129362106323
1732873150124608500,10.7686083984375,-0.09162978827953339,-0.03420845419168472,0.8381071090698242
1732873150134596600,10.7785966796875,-0.11362093687057495,0.015271631069481373,0.9205739498138428
1732873150144596700,10.7885966796875,-0.13927727937698364,0.05192354694008827,0.8869763612747192
1732873150154585600,10.798585693359374,-0.1612684279680252,0.05619960278272629,0.7800748944282532
1732873150164616400,10.808616455078125,-0.1820378452539444,0.02382374368607998,0.636521577835083
1732873150174574300,10.81857421875,-0.2217440903186798,-0.042760565876960754,0.4709770977497101
1732873150184606000,10.82860595703125,-0.2834414839744568,-0.18081611394882202,0.17043140530586243
1732873150194594000,10.838593994140625,-0.32498031854629517,-0.25595253705978394,0.006719517521560192
1732873150204595200,10.84859521484375,-0.35124751925468445,-0.2681698501110077,-0.05253441259264946
1732873150214583000,10.8585830078125,-0.35552358627319336,-0.2528982162475586,-0.013439035043120384
1732873150224614700,10.86861474609375,-0.35124751925468445,-0.21807889640331268,0.09773843735456467
1732873150234602800,10.878602783203124,-0.34025195240974426,-0.13377949595451355,0.25045475363731384
1732873150244603600,10.888603759765624,-0.33658674359321594,-0.02626720629632473,0.4153883755207062
1732873150254591500,10.898591552734375,-0.3439171314239502,0.048258353024721146,0.5442809462547302
1732873150264623000,10.908623046875,-0.36590829491615295,0.0354301854968071,0.5674937963485718
1732873150274580500,10.91858056640625,-0.3903428912162781,-0.01710422709584236,0.48869219422340393
1732873150284610800,10.92861083984375,-0.41111230850219727,-0.08368854224681854,0.37079519033432007
1732873150294600200,10.93860009765625,-0.42699480056762695,-0.16737708449363708,0.252287358045578
1732873150304601300,10.948601318359374,-0.4355469346046448,-0.2278527319431305,0.17104226350784302
1732873150314589200,10.958589111328125,-0.4331034719944,-0.25106561183929443,0.13744467496871948
1732873150324620800,10.968620849609374,-0.4282165467739105,-0.2583959996700287,0.13500121235847473
1732873150334578400,10.978578369140624,-0.4098905920982361,-0.19975294172763824,0.1264491081237793
1732873150344609800,10.98860986328125,-0.40683624148368835,-0.14905111491680145,0.10506882518529892
1732873150354598000,10.998597900390624,-0.41172316670417786,-0.10262536257505417,0.06108652427792549
1732873150364599000,11.00859912109375,-0.4184426963329315,-0.06108652427792549,-0.0006108652451075613
1732873150374587000,11.0185869140625,-0.42577308416366577,-0.00855211354792118,-0.06536258012056351
1732873150384618500,11.028618408203124,-0.4349360466003418,0.051312681287527084,-0.11728613078594208
1732873150394576000,11.038575927734374,-0.4453207552433014,0.08735372871160507,-0.17592918872833252
1732873150404607500,11.048607421875,-0.4502076804637909,0.05314527451992035,-0.32070425152778625
1732873150414595300,11.05859521484375,-0.43615779280662537,0.012217304669320583,-0.43799036741256714
1732873150424596500,11.068596435546874,-0.4056145250797272,-0.005497787147760391,-0.5381723046302795
1732873150434584300,11.078584228515625,-0.37568211555480957,-0.014049900695681572,-0.6151412725448608
1732873150444616000,11.088615966796874,-0.3445279896259308,-0.031154127791523933,-0.6725626587867737
1732873150454573600,11.098573486328124,-0.3066543638706207,-0.08124507963657379,-0.7122688889503479
1732873150464605000,11.10860498046875,-0.2687807083129883,-0.12889257073402405,-0.7141014933586121
1732873150474593000,11.118593017578124,-0.23273965716362,-0.17776179313659668,-0.6579018831253052
1732873150484624400,11.128624267578125,-0.16249015927314758,-0.23335053026676178,-0.42760565876960754
1732873150494581800,11.138581787109375,-0.1313360333442688,-0.2272418737411499,-0.22113321721553802
1732873150504613400,11.14861328125,-0.11789698898792267,-0.20097467303276062,-0.04581489413976669
1732873150514601500,11.1586015625,-0.12400564551353455,-0.16554448008537292,0.04337143152952194
1732873150524601900,11.168601806640625,-0.13377949595451355,-0.14233160018920898,0.010995574295520782
1732873150534590500,11.178590576171874,-0.1459967941045761,-0.14294247329235077,-0.12950342893600464
1732873150544622000,11.1886220703125,-0.17104226350784302,-0.1466076523065567,-0.33475416898727417
1732873150554579700,11.198579833984375,-0.20952677726745605,-0.1417207419872284,-0.6096435189247131
1732873150564611000,11.208611083984374,-0.21868975460529327,-0.13744467496871948,-0.6701191663742065
1732873150574599200,11.21859912109375,-0.2076941877603531,-0.13744467496871948,-0.5870414972305298
1732873150584600000,11.22860009765625,-0.1973094791173935,-0.12339477986097336,-0.38240164518356323
1732873150594587400,11.23858740234375,-0.1618792861700058,-0.11301007121801376,-0.10751228034496307
1732873150604619300,11.248619384765625,-0.12217304855585098,-0.10995574295520782,0.18997909128665924
1732873150614576600,11.25857666015625,-0.0910189226269722,-0.09957103431224823,0.4453207552433014
1732873150624607500,11.268607421875,-0.09162978827953339,-0.11728613078594208,0.6322455406188965
1732873150634596000,11.27859619140625,-0.1062905490398407,-0.1569923609495163,0.627358615398407
1732873150644596200,11.28859619140625,-0.12095131725072861,-0.21868975460529327,0.5583308339118958
1732873150654585000,11.298585205078124,-0.13439035415649414,-0.2919935882091522,0.4746423065662384
1732873150664616200,11.3086162109375,-0.12828169763088226,-0.2724458873271942,0.39095374941825867
1732873150674574000,11.318573974609375,-0.10690141469240189,-0.1918116807937622,0.313373863697052
1732873150684605200,11.328605224609374,-0.08918632566928864,-0.07147123664617538,0.24617868661880493
1732873150694594000,11.338593994140625,-0.0861319974064827,0.03298672288656235,0.21441370248794556
1732873150704594200,11.34859423828125,-0.0555887371301651,0.09224065393209457,0.2321287989616394
1732873150714583000,11.3585830078125,-0.018936822190880775,0.06780604273080826,0.24984388053417206
1732873150724614700,11.36861474609375,0.006719517521560192,0.04642575979232788,0.24678955972194672
1732873150734602800,11.378602783203124,0.025045474991202354,0.02626720629632473,0.21135938167572021
1732873150744603600,11.388603759765624,0.03726277872920036,0,0.152105450630188
1732873150754591700,11.398591796875,0.05619960278272629,-0.012828170321881771,0.08918632566928864
1732873150764623400,11.408623291015624,0.07147123664617538,-0.02321287989616394,0.04092797264456749
1732873150774580700,11.418580810546874,0.0806342139840126,-0.024434609338641167,0.03237585723400116
1732873150784612400,11.4286123046875,0.08307767659425735,-0.010995574295520782,0.07024950534105301
1732873150794600200,11.43860009765625,0.08796459436416626,0.012828170321881771,0.11728613078594208
1732873150804601300,11.448601318359374,0.09896016865968704,0.04764748737215996,0.1667662113904953
1732873150814589200,11.458589111328125,0.11423180252313614,0.08368854224681854,0.19792033731937408
1732873150824620500,11.46862060546875,0.12828169763088226,0.09957103431224823,0.19853121042251587
1732873150834578200,11.478578125,0.1411098688840866,0.10445795953273773,0.17959438264369965
1732873150844609800,11.48860986328125,0.16065755486488342,0.11423180252313614,0.14905111491680145
1732873150854598000,11.498597900390624,0.17531833052635193,0.11728613078594208,0.14049901068210602
1732873150864598800,11.508598876953124,0.182648703455925,0.1264491081237793,0.15393804013729095
1732873150874587000,11.5185869140625,0.1875356286764145,0.1368338167667389,0.16737708449363708
1732873150884617500,11.528617431640624,0.18997909128665924,0.14844025671482086,0.16310101747512817
1732873150894575900,11.538575927734374,0.1771509200334549,0.1563815027475357,0.1368338167667389
1732873150904606700,11.548606689453125,0.16371189057826996,0.1466076523065567,0.08429940044879913
1732873150914595300,11.55859521484375,0.12889257073402405,0.11178833991289139,-0.00855211354792118
1732873150924595700,11.568595703125,0.060475658625364304,-0.00366519158706069,-0.2767219543457031
1732873150934584300,11.578584228515625,0.00733038317412138,-0.10506882518529892,-0.5088507533073425
1732873150944615700,11.58861572265625,-0.04459316283464432,-0.19058994948863983,-0.7330383062362671
1732873150954573300,11.5985732421875,-0.10323622822761536,-0.21563543379306793,-0.8863654732704163
1732873150964605000,11.60860498046875,-0.14782938361167908,-0.1814269721508026,-0.8936958312988281
1732873150974593000,11.618593017578124,-0.1514945775270462,-0.09162978827953339,-0.7098253965377808
1732873150984624600,11.628624755859375,-0.12828169763088226,0.018936822190880775,-0.3793473243713379
1732873150994581800,11.638581787109375,-0.08368854224681854,0.16065755486488342,0.13561208546161652
1732873151004612900,11.64861279296875,-0.07330382615327835,0.17959438264369965,0.2889392673969269
1732873151014601500,11.6586015625,-0.10873401165008545,0.12034045159816742,0.22540926933288574
1732873151024601000,11.66860107421875,-0.1466076523065567,0.0012217304902151227,-0.03481931984424591
1732873151034590500,11.678590576171874,-0.17898350954055786,-0.17043140530586243,-0.4349360466003418
1732873151044621600,11.68862158203125,-0.2217440903186798,-0.3591887652873993,-0.8943067193031311
1732873151054579500,11.698579345703125,-0.25106561183929443,-0.48197266459465027,-1.2950342893600464
1732873151064611000,11.708611083984374,-0.2938261926174164,-0.49846604466438293,-1.595579981803894
1732873151074599000,11.718598876953125,-0.3072652220726013,-0.43737950921058655,-1.5277739763259888
1732873151084599800,11.728599853515625,-0.2840523421764374,-0.28466320037841797,-1.2015719413757324
1732873151094588000,11.738587890625,-0.23090706765651703,-0.06108652427792549,-0.6707300543785095
1732873151104619300,11.748619384765625,-0.16249015927314758,0.006108652334660292,-0.0555887371301651
1732873151114577200,11.7585771484375,-0.11301007121801376,0.012828170321881771,0.4862487316131592
1732873151124608500,11.7686083984375,-0.07941248267889023,-0.025045474991202354,0.8252789378166199
1732873151134596600,11.7785966796875,-0.11178833991289139,-0.08491026610136032,0.950506329536438
1732873151144597000,11.788596923828125,-0.16737708449363708,-0.1417207419872284,0.8607091307640076
1732873151154585600,11.798585693359374,-0.17287486791610718,-0.16798794269561768,0.7159340381622314
1732873151164616700,11.80861669921875,-0.18509216606616974,-0.14844025671482086,0.5791002511978149
1732873151174574300,11.81857421875,-0.19120082259178162,-0.11178833991289139,0.4789183437824249
1732873151184606200,11.828606201171874,-0.18814650177955627,-0.05619960278272629,0.4196644127368927
1732873151194594000,11.838593994140625,-0.19364428520202637,-0.004886921960860491,0.38117989897727966
1732873151204595000,11.848594970703125,-0.20830504596233368,0.001832595793530345,0.35063666105270386
1732873151214583000,11.8585830078125,-0.23029619455337524,-0.04703662544488907,0.2889392673969269
1732873151224614400,11.868614501953125,-0.24129177629947662,-0.10323622822761536,0.24923302233219147
1732873151234602800,11.878602783203124,-0.242513507604599,-0.1368338167667389,0.22663100063800812
1732873151244604000,11.88860400390625,-0.24190263450145721,-0.13866640627384186,0.20891591906547546
1732873151254591500,11.898591552734375,-0.24556782841682434,-0.1258382350206375,0.19058994948863983
1732873151264623400,11.908623291015624,-0.252287358045578,-0.11056660860776901,0.16065755486488342
1732873151274580700,11.918580810546874,-0.25961771607398987,-0.09834930300712585,0.10262536257505417
1732873151284611000,11.928611083984375,-0.27550023794174194,-0.07269296050071716,-0.01466076634824276
1732873151294600200,11.93860009765625,-0.28588494658470154,-0.06169738993048668,-0.07880161702632904
1732873151304601300,11.948601318359374,-0.2816088795661926,-0.060475658625364304,-0.10812314599752426
1732873151314589200,11.958589111328125,-0.2687807083129883,-0.06536258012056351,-0.08368854224681854
1732873151324620800,11.968620849609374,-0.2528982162475586,-0.07452555745840073,-0.01466076634824276
1732873151334578200,11.978578125,-0.22418753802776337,-0.07696902006864548,0.07330382615327835
1732873151344609800,11.98860986328125,-0.19303341209888458,-0.05925392732024193,0.16249015927314758
1732873151354598000,11.998597900390624,-0.17104226350784302,-0.030543262138962746,0.21991148591041565
1732873151364598800,12.008598876953124,-0.17043140530586243,0.00733038317412138,0.19120082259178162
1732873151374587000,12.0185869140625,-0.18570303916931152,0.02932153269648552,0.11362093687057495
1732873151384421600,12.028421630859375,-0.2015855312347412,0.05253441259264946,0.025656340643763542
1732873151394379000,12.03837890625,-0.21074850857257843,0.07757988572120667,-0.05497787147760391
1732873151404410600,12.04841064453125,-0.20891591906547546,0.09346238523721695,-0.12400564551353455
1732873151414398500,12.0583984375,-0.20097467303276062,0.09957103431224823,-0.18325957655906677
1732873151424399600,12.068399658203125,-0.17959438264369965,0.1111774742603302,-0.23640485107898712
1732873151434387500,12.078387451171874,-0.11667526513338089,0.15821409225463867,-0.2675589919090271
1732873151444419000,12.088419189453125,-0.07269296050071716,0.2174680233001709,-0.23029619455337524
1732873151454376400,12.09837646484375,-0.022602014243602753,0.252287358045578,-0.14355333149433136
1732873151464407800,12.10840771484375,0.016493361443281174,0.24129177629947662,-0.0354301854968071
1732873151474396000,12.11839599609375,0.03787364438176155,0.18387043476104736,0.06169738993048668
1732873151484427300,12.12842724609375,0.039095375686883926,0.11239920556545258,0.12828169763088226
1732873151494385000,12.138385009765624,0.03237585723400116,0.02932153269648552,0.152105450630188
1732873151504444200,12.148444091796875,0.029932396486401558,-0.060475658625364304,0.09773843735456467
1732873151514404600,12.158404541015624,0.03726277872920036,-0.06902777403593063,0.030543262138962746
1732873151524405200,12.1684052734375,0.0555887371301651,-0.04153883829712868,-0.04337143152952194
1732873151534393600,12.1783935546875,0.07147123664617538,-0.009773843921720982,-0.1258382350206375
1732873151544424400,12.188424560546874,0.08796459436416626,0.003054326167330146,-0.23151792585849762
1732873151554382600,12.198382568359374,0.10018189996480942,-0.006719517521560192,-0.34574973583221436
1732873151564414000,12.2084140625,0.1111774742603302,-0.039095375686883926,-0.45814892649650574
1732873151574402000,12.218402099609374,0.13439035415649414,-0.07208210229873657,-0.5674937963485718
1732873151584403200,12.2284033203125,0.1722639948129654,-0.06841690838336945,-0.6218608021736145
1732873151594390300,12.238390380859375,0.2070833146572113,-0.03298672288656235,-0.4960225820541382
1732873151604422100,12.248422119140624,0.2577851414680481,0.001832595793530345,-0.22052235901355743
1732873151614379800,12.2583798828125,0.30482175946235657,0.01466076634824276,0.13744467496871948
1732873151624411400,12.268411376953125,0.34636059403419495,0.012217304669320583,0.4593706727027893
1732873151634399200,12.278399169921874,0.3842342495918274,0.00427605677396059,0.6450737118721008
1732873151644399600,12.288399658203126,0.41111230850219727,0.02321287989616394,0.6823364496231079
1732873151654388200,12.29838818359375,0.40622538328170776,0.04948008432984352,0.5461135506629944
1732873151664419300,12.30841943359375,0.39645153284072876,0.042760565876960754,0.38606682419776917
1732873151674377200,12.318377197265624,0.38117989897727966,0.04153883829712868,0.22968533635139465
1732873151684408300,12.328408203125,0.3744603991508484,0.06841690838336945,0.12217304855585098
1732873151694397200,12.338397216796874,0.3787364661693573,0.12278391420841217,0.07452555745840073
1732873151704398000,12.348398193359374,0.38117989897727966,0.18814650177955627,0.07208210229873657
1732873151714386200,12.35838623046875,0.3830125033855438,0.25534167885780334,0.09468411654233932
1732873151724418000,12.36841796875,0.36651915311813354,0.2919935882091522,0.16371189057826996
1732873151734405600,12.378405517578125,0.35552358627319336,0.28649580478668213,0.19608774781227112
1732873151744407000,12.388406982421875,0.34147366881370544,0.2871066629886627,0.2174680233001709
1732873151754394600,12.39839453125,0.32131510972976685,0.2987131178379059,0.2321287989616394
1732873151764426500,12.408426513671875,0.3078760802745819,0.3078760802745819,0.22602014243602753
1732873151774383600,12.418383544921875,0.29626965522766113,0.3066543638706207,0.21013765037059784
1732873151784415200,12.428415283203124,0.28649580478668213,0.27488934993743896,0.20402899384498596
1732873151794403300,12.4384033203125,0.2785545587539673,0.23518311977386475,0.22968533635139465
1732873151804404200,12.448404296875,0.2577851414680481,0.20525072515010834,0.3292563557624817
1732873151814392300,12.458392333984374,0.2541199326515198,0.21624629199504852,0.40744712948799133
1732873151824423700,12.468423583984375,0.25045475363731384,0.23884831368923187,0.4795292317867279
1732873151834381300,12.47838134765625,0.22540926933288574,0.2718350291252136,0.5357288122177124
1732873151844411400,12.488411376953126,0.18387043476104736,0.303600013256073,0.5644394755363464
1732873151854400800,12.49840087890625,0.13988813757896423,0.32559117674827576,0.5626068711280823
1732873151864400600,12.508400634765625,0.08735372871160507,0.32498031854629517,0.5241223573684692
1732873151874389800,12.5183896484375,0.00366519158706069,0.28099802136421204,0.40622538328170776
1732873151884420900,12.5284208984375,-0.02076941914856434,0.22663100063800812,0.2993239760398865
1732873151894379000,12.53837890625,-0.03176499158143997,0.14782938361167908,0.18020524084568024
1732873151904409900,12.548409912109374,-0.0403171069920063,0.0806342139840126,0.060475658625364304
1732873151914398500,12.5583984375,-0.05314527451992035,0.036651913076639175,-0.0403171069920063
1732873151924398800,12.56839892578125,-0.05497787147760391,0.02932153269648552,-0.12889257073402405
1732873151934387500,12.578387451171874,-0.05009094998240471,0.05864306539297104,-0.21624629199504852
1732873151944419000,12.588419189453125,-0.0354301854968071,0.1111774742603302,-0.3543018400669098
1732873151954376200,12.598376220703125,-0.033597588539123535,0.11362093687057495,-0.4495968222618103
1732873151964408000,12.608407958984374,-0.02626720629632473,0.0861319974064827,-0.5192354321479797
1732873151974396000,12.61839599609375,-0.01038470957428217,0.0659734457731247,-0.5149593949317932
1732873151984427800,12.628427734375,0.01710422709584236,0.059864792972803116,-0.39095374941825867
1732873151994385000,12.638385009765624,0.06414084881544113,0.05009094998240471,-0.13866640627384186
1732873152004416500,12.64841650390625,0.12400564551353455,0.06902777403593063,0.19547687470912933
1732873152014404600,12.658404541015624,0.182648703455925,0.12339477986097336,0.5241223573684692
1732873152024404200,12.668404296875,0.251676470041275,0.1472185254096985,0.7812966704368591
1732873152034393600,12.6783935546875,0.27550023794174194,0.07330382615327835,0.6743952035903931
1732873152044428000,12.688427978515625,0.28588494658470154,-0.07147123664617538,0.33108896017074585
1732873152054382600,12.698382568359374,0.2938261926174164,-0.1362229436635971,-0.1875356286764145
1732873152064413200,12.7084130859375,0.2535090744495392,0.001832595793530345,-0.7189884185791016
1732873152074402000,12.718402099609374,0.03481931984424591,0.03237585723400116,-1.1160508394241333
1732873152084402400,12.72840234375,-0.182648703455925,0.02321287989616394,-1.3823879957199097
1732873152094391000,12.73839111328125,-0.22540926933288574,0.17898350954055786,-1.4801265001296997
1732873152104422400,12.74842236328125,-0.12095131725072861,0.19425514340400696,-1.3078625202178955
1732873152114380000,12.758380126953124,0.021380282938480377,0.11239920556545258,-0.9865473508834839
1732873152124411600,12.76841162109375,0.16065755486488342,-0.02015855349600315,-0.5937610268592834
1732873152134399500,12.7783994140625,0.2785545587539673,-0.1411098688840866,-0.2321287989616394
1732873152144401000,12.78840087890625,0.37690386176109314,-0.24862214922904968,0.04092797264456749
1732873152154388700,12.798388671875,0.41722095012664795,-0.3732386529445648,0.19853121042251587
1732873152164419000,12.808419189453126,0.4343251883983612,-0.39706242084503174,0.23945917189121246
1732873152174377500,12.81837744140625,0.45204028487205505,-0.2632829248905182,0.2015855312347412
1732873152184408000,12.828407958984375,0.4758640229701996,-0.09346238523721695,0.1508837193250656
1732873152194397200,12.838397216796874,0.5002986192703247,0.08002334833145142,0.13439035415649414
1732873152204398300,12.8483984375,0.5222898125648499,0.22296582162380219,0.1722639948129654
1732873152214386000,12.858385986328125,0.543059229850769,0.35185837745666504,0.2535090744495392
1732873152224417800,12.868417724609374,0.5070181488990784,0.4740314185619354,0.3634648323059082
1732873152234405600,12.878405517578125,0.4147774875164032,0.5424483418464661,0.47280970215797424
1732873152244406800,12.88840673828125,0.07024950534105301,0.6200281977653503,0.5711590051651001
1732873152254394600,12.89839453125,-0.1918116807937622,0.6823364496231079,0.5907067060470581
1732873152264425200,12.90842529296875,-0.3695734739303589,0.6426302194595337,0.5381723046302795
1732873152274383600,12.918383544921875,-0.4251621961593628,0.4856378734111786,0.4080579876899719
1732873152284414200,12.928414306640626,-0.37262779474258423,0.2785545587539673,0.2321287989616394
