time,seconds_elapsed,z,y,x
1732873140044527600,0.688527587890625,9.610325813293457,0.7852981686592102,0.026336219161748886
1732873140054507000,0.698507080078125,9.531316757202148,0.7996633648872375,0.05267243832349777
1732873140064516600,0.7085166015625,9.50737476348877,0.8403648138046265,0.038307227194309235
1732873140074526500,0.7185263671875,9.557653427124023,0.8571242094039917,0.06224924325942993
1732873140084505900,0.728505859375,9.679757118225098,0.8212111592292786,0.1388636976480484
1732873140094515500,0.738515380859375,9.708487510681152,0.8092401623725891,0.17238251864910126
1732873140104525000,0.748525146484375,9.734824180603027,0.7948749661445618,0.2059013396501541
1732873140114504400,0.75850439453125,9.75397777557373,0.7972691655158997,0.1628057211637497
1732873140124514000,0.76851416015625,9.775525093078613,0.7805097699165344,0.090979665517807
1732873140134524000,0.77852392578125,9.78989028930664,0.7924807667732239,0.004788403399288654
1732873140144503300,0.78850341796875,9.84495735168457,0.828393816947937,-0.05985504388809204
1732873140154513000,0.798512939453125,9.892841339111328,0.8307880163192749,-0.1388636976480484
1732873140164522800,0.808522705078125,9.849745750427246,0.8403648138046265,-0.13168109953403473
1732873140174502100,0.818502197265625,9.782708168029785,0.8044517636299133,-0.011971008032560349
1732873140184511700,0.82851171875,9.710882186889648,0.7876923680305481,-0.026336219161748886
1732873140194521600,0.838521484375,9.801861763000488,0.7972691655158997,-0.13407529890537262
1732873140204500700,0.848500732421875,9.909601211547852,0.7805097699165344,-0.17717093229293823
1732873140214510300,0.85851025390625,9.967061996459961,0.7445967197418213,-0.2537853717803955
1732873140224520200,0.868520263671875,9.952696800231934,0.7326257228851318,-0.3016694188117981
1732873140234530000,0.878530029296875,9.854534149169922,0.730231523513794,-0.20350714027881622
1732873140244509200,0.88850927734375,9.75397777557373,0.7350199222564697,-0.1388636976480484
1732873140254519000,0.89851904296875,9.607931137084961,0.8044517636299133,-0.10534487664699554
1732873140264529000,0.90852880859375,9.442731857299805,0.8068459630012512,0.0071826050989329815
1732873140274508000,0.918508056640625,9.342175483703613,0.811634361743927,0.17956513166427612
1732873140284518000,0.928517822265625,9.421183586120605,0.9097966551780701,0.19871874153614044
1732873140294527700,0.93852783203125,9.50498104095459,0.9481038451194763,0.272938996553421
1732873140304507000,0.9485068359375,9.634267807006836,0.9002198576927185,0.3519476354122162
1732873140314516500,0.9585166015625,9.751583099365234,0.8595184087753296,0.35673606395721436
1732873140324526300,0.9685263671875,9.854534149169922,0.7948749661445618,0.363918662071228
1732873140334505500,0.97850537109375,9.93593692779541,0.7038952708244324,0.40462008118629456
1732873140344515300,0.988515380859375,10.070012092590332,0.5961562395095825,0.42616790533065796
1732873140354525200,0.998525146484375,10.144232749938965,0.524330198764801,0.4692635238170624
1732873140364504600,1.008504638671875,10.134655952453613,0.4884171485900879,0.5315127968788147
1732873140374514200,1.01851416015625,10.046070098876953,0.47405192255973816,0.6009446382522583
1732873140384524000,1.02852392578125,9.90241813659668,0.5339069962501526,0.6344634294509888
1732873140394503200,1.038503173828125,9.773131370544434,0.6200982332229614,0.6153098344802856
1732873140404512800,1.0485126953125,9.617507934570312,0.7038952708244324,0.6823474764823914
1732873140414522600,1.058522705078125,9.425971984863281,0.7661445140838623,0.7757213711738586
1732873140424502000,1.068501953125,9.337387084960938,0.8331822156906128,0.7350199222564697
1732873140434511600,1.07851171875,9.311050415039062,0.9050082564353943,0.7829039692878723
1732873140444521500,1.088521484375,9.32541561126709,0.912190854549408,0.7781155705451965
1732873140454500900,1.0985009765625,9.373299598693848,0.8571242094039917,0.7398083209991455
1732873140464510500,1.108510498046875,9.502586364746094,0.7541735172271729,0.6440402865409851
1732873140474520300,1.118520263671875,9.639056205749512,0.6727706789970398,0.608127236366272
1732873140484530000,1.128530029296875,9.80904483795166,0.629675030708313,0.5386953949928284
1732873140494509300,1.13850927734375,9.892841339111328,0.646434485912323,0.5793967843055725
1732873140504519200,1.148519287109375,9.955090522766113,0.6703764796257019,0.629675030708313
1732873140514528800,1.15852880859375,9.9000244140625,0.7445967197418213,0.7110779285430908
1732873140524508000,1.1685078125,9.813833236694336,0.8212111592292786,0.8212111592292786
1732873140534517800,1.178517822265625,9.66299819946289,0.871489405632019,0.871489405632019
1732873140544527600,1.188527587890625,9.567230224609375,0.8882488012313843,0.9169792532920837
1732873140554507000,1.198507080078125,9.485827445983887,0.9050082564353943,0.8595184087753296
1732873140564516600,1.2085166015625,9.437943458557129,0.8978256583213806,0.8044517636299133
1732873140574526500,1.2185263671875,9.452308654785156,0.8379706144332886,0.849941611289978
1732873140584505600,1.228505615234375,9.5408935546875,0.6991068720817566,0.8571242094039917
1732873140594515500,1.238515380859375,9.761159896850586,0.5578489899635315,0.8978256583213806
1732873140604525300,1.248525390625,10.067618370056152,0.5219359993934631,0.9097966551780701
1732873140614504400,1.25850439453125,10.35252857208252,0.49320554733276367,0.8523358106613159
1732873140624514000,1.26851416015625,10.445901870727539,0.4668693244457245,0.7948749661445618
1732873140634524000,1.27852392578125,10.512939453125,0.507570743560791,0.8786720037460327
1732873140644503300,1.28850341796875,10.32858657836914,0.6200982332229614,0.8571242094039917
1732873140654513000,1.298512939453125,10.072406768798828,0.6991068720817566,0.8906430602073669
1732873140664522800,1.308522705078125,9.813833236694336,0.7541735172271729,0.7948749661445618
1732873140674502100,1.318502197265625,9.603142738342285,0.7805097699165344,0.7422025203704834
1732873140684511700,1.32851171875,9.519346237182617,0.7829039692878723,0.706289529800415
1732873140694521600,1.338521484375,9.560047149658203,0.8164227604866028,0.6823474764823914
1732873140704500700,1.348500732421875,9.703699111938477,0.8667010068893433,0.6272808313369751
1732873140714510300,1.35851025390625,9.718064308166504,0.9409212470054626,0.646434485912323
1732873140724520200,1.368520263671875,9.691728591918945,0.9696516990661621,0.6177040338516235
1732873140734530000,1.378530029296875,9.543288230895996,0.933738648891449,0.6344634294509888
1732873140744509200,1.38850927734375,9.437943458557129,0.8355764150619507,0.706289529800415
1732873140754519000,1.39851904296875,9.502586364746094,0.7757213711738586,0.7589619159698486
1732873140764529000,1.40852880859375,9.751583099365234,0.727837324142456,0.667982280254364
1732873140774508000,1.418508056640625,9.986215591430664,0.6703764796257019,0.5626373887062073
1732873140784518000,1.428517822265625,10.199298858642578,0.6105214357376099,0.5410895943641663
1732873140794527700,1.43852783203125,10.235212326049805,0.6153098344802856,0.49559974670410156
1732873140804507000,1.4485068359375,10.182539939880371,0.6655880808830261,0.5937620401382446
1732873140814516500,1.4585166015625,9.943120002746582,0.751779317855835,0.7254431247711182
1732873140824526300,1.4685263671875,9.706093788146973,0.7805097699165344,0.871489405632019
1732873140834505500,1.47850537109375,9.579200744628906,0.7876923680305481,1.0199298858642578
1732873140844515300,1.488515380859375,9.509769439697266,0.7781155705451965,1.1252747774124146
1732873140854525200,1.498525146484375,9.5624418258667,0.7876923680305481,1.213860273361206
1732873140864504600,1.508504638671875,9.655815124511719,0.828393816947937,1.2976573705673218
1732873140874514200,1.51851416015625,9.63187313079834,0.8667010068893433,1.41257905960083
1732873140884524000,1.52852392578125,9.569623947143555,0.8810662031173706,1.5298948287963867
1732873140894503200,1.538503173828125,9.509769439697266,0.8762778043746948,1.556231141090393
1732873140904512800,1.5485126953125,9.521739959716797,0.8259995579719543,1.6615760326385498
1732873140914522600,1.558522705078125,9.5624418258667,0.8643068075180054,1.6543933153152466
1732873140924502000,1.568501953125,9.734824180603027,0.8978256583213806,1.5753847360610962
1732873140934511600,1.57851171875,9.950302124023438,0.9385270476341248,1.4748282432556152
1732873140944521500,1.588521484375,10.04846477508545,0.8619126081466675,1.3623007535934448
1732873140954500900,1.5985009765625,10.091560363769531,0.7493851184844971,1.3120225667953491
1732873140964510500,1.608510498046875,10.06043529510498,0.5722141861915588,1.3742717504501343
1732873140974520300,1.618520263671875,10.08437728881836,0.37828385829925537,1.3455413579940796
1732873140984530000,1.628530029296875,10.32858657836914,0.24899697303771973,1.2761094570159912
1732873140994509300,1.63850927734375,10.572794914245605,0.14365209639072418,1.1444283723831177
1732873141004519200,1.648519287109375,10.802638053894043,0.10773907601833344,1.072602391242981
1732873141014528800,1.65852880859375,10.948684692382812,0.31603461503982544,0.9145850539207458
1732873141024508000,1.6685078125,10.81460952758789,0.6607996821403503,0.8212111592292786
1732873141034517800,1.678517822265625,10.323798179626465,1.115697979927063,0.8882488012313843
1732873141044527600,1.688527587890625,9.770736694335938,1.4245500564575195,0.993593692779541
1732873141054507000,1.698507080078125,9.205705642700195,1.482010841369629,1.0199298858642578
1732873141064516600,1.7085166015625,8.975862503051758,1.0893617868423462,0.8475474119186401
1732873141074526500,1.7185263671875,9.248801231384277,0.3280056416988373,0.42616790533065796
1732873141084505600,1.728505615234375,10.163386344909668,-0.29209262132644653,-0.1628057211637497
1732873141094515500,1.738515380859375,11.587936401367188,-0.8020575642585754,-0.8044517636299133
1732873141104525300,1.748525390625,12.854469299316406,-1.0606313943862915,-1.1252747774124146
1732873141114504400,1.75850439453125,13.242329597473145,-0.9792284965515137,-1.0797849893569946
1732873141124514000,1.76851416015625,12.780248641967773,-0.5817909836769104,-1.0606313943862915
1732873141134524000,1.77852392578125,11.650185585021973,-0.06464344263076782,-1.115697979927063
1732873141144503300,1.78850341796875,9.919178009033203,0.7134721279144287,-0.9672574996948242
1732873141154513000,1.798512939453125,8.508993148803711,1.3551181554794312,-0.7996633648872375
1732873141164522800,1.808522705078125,7.06528902053833,1.941697597503662,-0.7757213711738586
1732873141174502100,1.818502197265625,6.189011573791504,2.2888567447662354,-0.9313444495201111
1732873141184511700,1.82851171875,5.748478412628174,2.33913516998291,-1.2617442607879639
1732873141194521600,1.838521484375,5.920860767364502,2.0231003761291504,-1.4867992401123047
1732873141204500700,1.848500732421875,6.801927089691162,1.2952631711959839,-1.6974890232086182
1732873141214510300,1.85851025390625,8.243236541748047,0.545877993106842,-1.7908629179000854
1732873141224520200,1.868520263671875,10.201693534851074,-0.21547815203666687,-1.946485996246338
1732873141234530000,1.878530029296875,12.076353073120117,-0.7972691655158997,-2.2433669567108154
1732873141244509200,1.88850927734375,13.409923553466797,-1.0007762908935547,-2.5091233253479004
1732873141254519000,1.89851904296875,13.862427711486816,-0.9002198576927185,-2.655169725418091
1732873141264529000,1.90852880859375,13.292608261108398,-0.5482721924781799,-2.537853717803955
1732873141274508000,1.918508056640625,11.829751014709473,0.08619125932455063,-2.3343467712402344
1732873141284518000,1.928517822265625,10.223240852355957,0.6727706789970398,-2.10210919380188
1732873141294527700,1.93852783203125,8.75080680847168,1.335964560508728,-1.9512743949890137
1732873141304507000,1.9485068359375,7.807491779327393,1.7836803197860718,-1.7549498081207275
1732873141314516500,1.9585166015625,7.237671852111816,2.185906171798706,-1.6376339197158813
1732873141324526300,1.9685263671875,7.103596210479736,2.360682964324951,-1.6352397203445435
1732873141334505500,1.97850537109375,7.402871608734131,2.3582887649536133,-1.5897499322891235
1732873141344515300,1.988515380859375,7.948749542236328,2.1499931812286377,-1.625662922859192
1732873141354525200,1.998525146484375,8.544905662536621,1.8746598958969116,-1.7381904125213623
1732873141364504600,2.008504638671875,9.287108421325684,1.50355863571167,-1.7094600200653076
1732873141374514200,2.01851416015625,9.837775230407715,1.2234370708465576,-1.6735470294952393
1732873141384524000,2.02852392578125,10.20887565612793,1.0606313943862915,-1.7070658206939697
1732873141394503200,2.038503173828125,10.254365921020508,0.9528923034667969,-1.7381904125213623
1732873141404512800,2.0485126953125,10.031704902648926,0.9696516990661621,-1.7741034030914307
1732873141414522600,2.058522705078125,9.75637149810791,0.9768342971801758,-1.7932571172714233
1732873141424502000,2.068501953125,9.581595420837402,0.993593692779541,-1.699883222579956
1732873141434511600,2.07851171875,9.428366661071777,0.9720458984375,-1.656787633895874
1732873141444521500,2.088521484375,9.296685218811035,0.8978256583213806,-1.5610195398330688
1732873141454500900,2.0985009765625,9.272743225097656,0.7733271718025208,-1.5107412338256836
1732873141464510500,2.108510498046875,9.287108421325684,0.7350199222564697,-1.3862427473068237
1732873141474520300,2.118520263671875,9.418789863586426,0.7230489253997803,-1.3335703611373901
1732873141484530200,2.1285302734375,9.430760383605957,0.667982280254364,-1.2952631711959839
1732873141494509300,2.13850927734375,9.406818389892578,0.5770025849342346,-1.0797849893569946
1732873141504519200,2.148519287109375,9.258378028869629,0.629675030708313,-0.8882488012313843
1732873141514528800,2.15852880859375,9.01895809173584,0.8164227604866028,-0.7158663272857666
1732873141524508000,2.1685078125,8.966285705566406,0.8164227604866028,-0.3423708379268646
1732873141534517800,2.178517822265625,9.042900085449219,0.7254431247711182,0.023942016065120697
1732873141544527600,2.188527587890625,9.330204010009766,0.5602431893348694,0.31124621629714966
1732873141554507000,2.198507080078125,9.780313491821289,0.2825157940387726,0.45250412821769714
1732873141564516600,2.2085166015625,10.441113471984863,0.004788403399288654,0.40701428055763245
1732873141574526500,2.2185263671875,11.070788383483887,-0.20350714027881622,0.24420857429504395
1732873141584505600,2.228505615234375,11.738770484924316,-0.23942017555236816,-0.08379705995321274
1732873141594515500,2.238515380859375,12.136208534240723,-0.14604631066322327,-0.33279404044151306
1732873141604525300,2.248525390625,12.040440559387207,-0.033518824726343155,-0.2968810200691223
1732873141614504400,2.25850439453125,11.623848915100098,0.08379705995321274,-0.17477671802043915
1732873141624514000,2.26851416015625,10.864887237548828,0.3663128614425659,-0.21308395266532898
1732873141634524000,2.27852392578125,10.139444351196289,0.730231523513794,-0.2944868206977844
1732873141644503300,2.28850341796875,9.488221168518066,1.070208191871643,-0.272938996553421
1732873141654513000,2.298512939453125,9.038111686706543,1.213860273361206,-0.09816227108240128
1732873141664522800,2.308522705078125,8.829815864562988,1.2090718746185303,0.1364694982767105
1732873141674502100,2.318502197265625,9.102754592895508,1.072602391242981,0.3902548849582672
1732873141684511700,2.32851171875,9.610325813293457,0.9624691009521484,0.43335050344467163
1732873141694521600,2.338521484375,10.204087257385254,0.8619126081466675,0.4165911078453064
1732873141704500700,2.348500732421875,10.493785858154297,0.7398083209991455,0.4596867263317108
1732873141714510300,2.35851025390625,10.589553833007812,0.5219359993934631,0.706289529800415
1732873141724520200,2.368520263671875,10.60152530670166,0.2777273952960968,0.9361328482627869
1732873141734530000,2.378530029296875,10.472238540649414,0.11013327538967133,1.1013327836990356
1732873141744509200,2.38850927734375,10.251971244812012,-0.002394201699644327,1.0654197931289673
1732873141754519000,2.39851904296875,10.256759643554688,-0.09576806426048279,1.0103530883789062
1732873141764529000,2.40852880859375,10.309432983398438,-0.22026655077934265,1.070208191871643
1732873141774508000,2.418508056640625,10.371682167053223,-0.689530074596405,1.4389152526855469
1732873141784518000,2.428517822265625,10.488997459411621,-1.3048399686813354,1.7956513166427612
1732873141794527700,2.43852783203125,10.83855152130127,-1.8195933103561401,1.764526605606079
1732873141804507000,2.4485068359375,11.405977249145508,-2.121262788772583,1.0295066833496094
1732873141814516500,2.4585166015625,11.824962615966797,-1.9584569931030273,-0.17477671802043915
1732873141824526300,2.4685263671875,11.767500877380371,-1.5634137392044067,-1.2018892765045166
1732873141834505500,2.47850537109375,10.939107894897461,-1.1276689767837524,-1.4867992401123047
1732873141844515300,2.488515380859375,9.718064308166504,-0.5363011956214905,-1.3551181554794312
1732873141854525200,2.498525146484375,8.640673637390137,-0.021547814831137657,-1.0773907899856567
1732873141864504600,2.508504638671875,7.711723804473877,0.3758896589279175,-0.849941611289978
1732873141874514200,2.51851416015625,7.316680431365967,0.4668693244457245,-0.689530074596405
1732873141884524000,2.52852392578125,7.347805023193359,0.26815059781074524,-0.6847416758537292
1732873141894503200,2.538503173828125,8.10437297821045,-0.15801730751991272,-0.7134721279144287
1732873141904512800,2.5485126953125,9.258378028869629,-0.6320692300796509,-1.1180921792984009
1732873141914522600,2.558522705078125,10.984597206115723,-0.9050082564353943,-1.8124107122421265
1732873141924502000,2.568501953125,12.476184844970703,-0.9888052940368652,-2.3942017555236816
1732873141934511600,2.57851171875,13.467384338378906,-0.8882488012313843,-2.535459518432617
1732873141944521500,2.588521484375,13.488932609558105,-0.5674257874488831,-2.3487119674682617
1732873141954500900,2.5985009765625,12.258312225341797,-0.1843535304069519,-1.8746598958969116
1732873141964510500,2.608510498046875,10.630255699157715,0.15322890877723694,-1.5442601442337036
1732873141974520300,2.618520263671875,9.07641887664795,0.37828385829925537,-1.0749965906143188
1732873141984530200,2.6285302734375,8.293514251708984,0.40701428055763245,-0.5746083855628967
1732873141994509300,2.63850927734375,8.267178535461426,0.4405331015586853,-0.3878606855869293
1732873142004519200,2.648519287109375,8.743624687194824,0.4165911078453064,-0.38546648621559143
1732873142014529000,2.658529052734375,9.366117477416992,0.3232172429561615,-0.4668693244457245
1732873142024508000,2.6685078125,9.86889934539795,0.16759411990642548,-0.5602431893348694
1732873142034517800,2.678517822265625,9.744400978088379,-0.07661445438861847,-0.45250412821769714
1732873142044527600,2.688527587890625,9.466673851013184,-0.3064578175544739,-0.2801215946674347
1732873142054507000,2.698507080078125,9.289502143859863,-0.33758243918418884,-0.272938996553421
1732873142064516600,2.7085166015625,8.983044624328613,-0.3495534360408783,-0.16759411990642548
1732873142074526500,2.7185263671875,8.793902397155762,-0.3016694188117981,-0.11971008777618408
1732873142084505600,2.728505615234375,8.631096839904785,-0.20111294090747833,-0.1388636976480484
1732873142094515500,2.738515380859375,8.585607528686523,-0.1604115068912506,-0.011971008032560349
1732873142104525300,2.748525390625,8.59997272491455,-0.10295066982507706,0.2513911724090576
1732873142114504400,2.75850439453125,8.676587104797363,0.019153613597154617,0.4141969084739685
1732873142124514000,2.76851416015625,8.798690795898438,0.12928688526153564,0.6105214357376099
1732873142134524000,2.77852392578125,8.951920509338379,0.26575639843940735,0.7829039692878723
1732873142144503300,2.78850341796875,8.99740982055664,0.49799394607543945,0.7733271718025208
1732873142154513000,2.798512939453125,9.014169692993164,0.7924807667732239,0.5841852426528931
1732873142164522800,2.808522705078125,8.892065048217773,0.9672574996948242,0.363918662071228
1732873142174502100,2.818502197265625,8.707711219787598,1.015141487121582,0.009576806798577309
1732873142184511700,2.82851171875,8.544905662536621,0.8619126081466675,-0.40701428055763245
1732873142194521600,2.838521484375,8.437167167663574,0.45250412821769714,-0.6512228846549988
1732873142204500700,2.848500732421875,8.676587104797363,-0.021547814831137657,-0.7829039692878723
1732873142214510300,2.85851025390625,9.102754592895508,-0.569819986820221,-1.0342950820922852
1732873142224520200,2.868520263671875,9.624691009521484,-0.8331822156906128,-1.5131354331970215
1732873142234530000,2.878530029296875,10.08437728881836,-0.8331822156906128,-1.8842366933822632
1732873142244509200,2.88850927734375,10.393229484558105,-0.31842881441116333,-2.0925323963165283
1732873142254519000,2.89851904296875,10.42195987701416,0.31124621629714966,-2.229001760482788
1732873142264529000,2.90852880859375,9.895236015319824,0.9289502501487732,-2.4612393379211426
1732873142274508000,2.918508056640625,9.01895809173584,1.7908629179000854,-2.2242133617401123
1732873142284518000,2.928517822265625,8.339004516601562,2.6384103298187256,-1.766920804977417
1732873142294527700,2.93852783203125,7.9631147384643555,2.8610711097717285,-1.4197616577148438
1732873142304507000,2.9485068359375,7.0988078117370605,2.3535003662109375,-0.768538773059845
1732873142314516500,2.9585166015625,6.809109687805176,1.5059528350830078,-0.30885201692581177
1732873142324526300,2.9685263671875,8.02536392211914,0.28730419278144836,-0.5554547905921936
1732873142334505500,2.97850537109375,10.594342231750488,-1.1300631761550903,-1.7357962131500244
1732873142344515300,2.988515380859375,13.625401496887207,-2.2146365642547607,-3.1675288677215576
1732873142354525200,2.998525146484375,17.032350540161133,-2.734178304672241,-4.290409564971924
1732873142364504600,3.008504638671875,18.77532958984375,-2.628833532333374,-4.517858505249023
1732873142374514200,3.01851416015625,18.380287170410156,-2.403778553009033,-3.56017804145813
1732873142384524000,3.02852392578125,16.148889541625977,-2.1308395862579346,-2.425326347351074
1732873142394503200,3.038503173828125,12.804190635681152,-1.5155296325683594,-1.455674648284912
1732873142404513000,3.048512939453125,10.153809547424316,-0.8978256583213806,-0.689530074596405
1732873142414522600,3.058522705078125,8.219294548034668,-0.18914192914962769,-0.10055647045373917
1732873142424502000,3.068501953125,7.2113356590271,0.49799394607543945,-0.002394201699644327
1732873142434511600,3.07851171875,6.732495307922363,1.256955862045288,0.4213795065879822
1732873142444521500,3.088521484375,6.452373504638672,1.7717092037200928,0.5770025849342346
1732873142454500900,3.0985009765625,6.210559368133545,1.9249382019042969,0.3471592366695404
1732873142464510500,3.108510498046875,6.045359134674072,1.9177556037902832,-0.17477671802043915
1732873142474520300,3.118520263671875,6.155492782592773,1.745373010635376,-0.6344634294509888
1732873142484530200,3.1285302734375,6.605602264404297,1.556231141090393,-0.8164227604866028
1732873142494509300,3.13850927734375,7.402871608734131,1.2617442607879639,-0.9241618514060974
1732873142504519200,3.148519287109375,8.303091049194336,0.7374141216278076,-0.9624691009521484
1732873142514529000,3.158529052734375,9.114726066589355,0.1843535304069519,-0.9672574996948242
1732873142524508000,3.1685078125,10.005369186401367,-0.4213795065879822,-0.8475474119186401
1732873142534517800,3.178517822265625,10.78348445892334,-0.7038952708244324,-0.8140285611152649
1732873142544527600,3.188527587890625,11.494562149047852,-0.7422025203704834,-0.8643068075180054
1732873142554507000,3.198507080078125,11.865663528442383,-0.5003881454467773,-0.9050082564353943
1732873142564516600,3.2085166015625,11.887211799621582,-0.22026655077934265,-0.790086567401886
1732873142574526500,3.2185263671875,11.496956825256348,0.2585737705230713,-0.42377370595932007
1732873142584505600,3.228505615234375,10.867281913757324,0.689530074596405,-0.047884032130241394
1732873142594515500,3.238515380859375,10.103530883789062,1.2665326595306396,0.21787235140800476
1732873142604525300,3.248525390625,9.430760383605957,1.8626888990402222,0.26096799969673157
1732873142614504400,3.25850439453125,8.80587387084961,2.341529369354248,0.26575639843940735
1732873142624514000,3.26851416015625,8.293514251708984,2.5498247146606445,0.31603461503982544
1732873142634524000,3.27852392578125,8.044517517089844,2.518700122833252,0.2513911724090576
1732873142644503300,3.28850341796875,8.190564155578613,2.3726539611816406,0.026336219161748886
1732873142654513000,3.298512939453125,8.702922821044922,2.0614075660705566,-0.2944868206977844
1732873142664522800,3.308522705078125,9.531316757202148,1.6927006244659424,-0.6967126727104187
1732873142674502100,3.318502197265625,10.32858657836914,1.359906554222107,-0.9648633003234863
1732873142684511700,3.32851171875,10.8720703125,1.0295066833496094,-0.9911994934082031
1732873142694521600,3.338521484375,11.05642318725586,0.8307880163192749,-0.7254431247711182
1732873142704500700,3.348500732421875,11.073183059692383,0.7541735172271729,-0.43335050344467163
1732873142714510300,3.35851025390625,10.893617630004883,0.7613561153411865,-0.28969839215278625
1732873142724520200,3.368520263671875,10.733205795288086,0.8188169598579407,-0.19632454216480255
1732873142734530000,3.378530029296875,10.551246643066406,0.9385270476341248,-0.1628057211637497
1732873142744509200,3.38850927734375,10.089165687561035,1.1180921792984009,-0.24181437492370605
1732873142754519000,3.39851904296875,9.512163162231445,1.3455413579940796,-0.35434186458587646
1732873142764529000,3.40852880859375,8.803479194641113,1.5753847360610962,-0.304063618183136
1732873142774508000,3.418508056640625,8.087613105773926,1.6735470294952393,-0.17717093229293823
1732873142784518000,3.428517822265625,7.553706169128418,1.6759412288665771,0.07422025501728058
1732873142794527700,3.43852783203125,7.225700855255127,1.6208745241165161,0.4141969084739685
1732873142804507000,3.4485068359375,7.196970462799072,1.4772224426269531,0.6751648783683777
1732873142814516500,3.4585166015625,7.536946773529053,1.335964560508728,0.7781155705451965
1732873142824526300,3.4685263671875,8.157045364379883,1.170764684677124,0.8643068075180054
1732873142834505500,3.47850537109375,8.923190116882324,0.9289502501487732,0.9744400978088379
1732873142844515300,3.488515380859375,9.399636268615723,0.7733271718025208,1.1180921792984009
1732873142854525200,3.498525146484375,9.72285270690918,0.6536170840263367,1.139639973640442
1732873142864504600,3.508504638671875,9.938331604003906,0.5817909836769104,1.2066776752471924
1732873142874514200,3.51851416015625,10.223240852355957,0.6033388376235962,1.1851298809051514
1732873142884524000,3.52852392578125,10.381258964538574,0.689530074596405,1.0965443849563599
1732873142894503200,3.538503173828125,10.340557098388672,0.7541735172271729,0.9600749015808105
1732873142904513000,3.548512939453125,10.287884712219238,0.9097966551780701,0.7445967197418213
1732873142914522600,3.558522705078125,10.14902114868164,1.015141487121582,0.6871358752250671
1732873142924502000,3.568501953125,9.959878921508789,1.2090718746185303,0.5410895943641663
1732873142934511600,3.57851171875,9.864110946655273,1.4652514457702637,0.2513911724090576
1732873142944521500,3.588521484375,9.72285270690918,1.7477672100067139,-0.002394201699644327
1732873142954500900,3.5985009765625,9.607931137084961,2.070984363555908,-0.1628057211637497
1732873142964510500,3.608510498046875,9.516951560974121,2.1930887699127197,-0.3232172429561615
1732873142974520300,3.618520263671875,9.607931137084961,2.1332337856292725,-0.2298433631658554
1732873142984530200,3.6285302734375,10.017339706420898,1.8842366933822632,-0.26815059781074524
1732873142994509300,3.63850927734375,10.60152530670166,1.4939818382263184,-0.3016694188117981
1732873143004519200,3.648519287109375,11.077971458435059,1.0414776802062988,-0.5602431893348694
1732873143014529000,3.658529052734375,11.504138946533203,0.7254431247711182,-0.8786720037460327
1732873143024508000,3.6685078125,11.561599731445312,0.6153098344802856,-0.993593692779541
1732873143034517800,3.678517822265625,11.142614364624023,0.5746083855628967,-1.1420341730117798
1732873143044527600,3.688527587890625,10.613495826721191,0.2849099934101105,-1.3311761617660522
1732873143054507000,3.698507080078125,10.012551307678223,0.14844051003456116,-2.434903144836426
1732873143064516600,3.7085166015625,8.999804496765137,-0.033518824726343155,-3.177105665206909
1732873143074526500,3.7185263671875,9.294290542602539,0.5626373887062073,-1.1994950771331787
1732873143084505600,3.728505615234375,9.976638793945312,1.0342950820922852,0.9289502501487732
1732873143094515500,3.738515380859375,10.498574256896973,1.4508862495422363,1.7956513166427612
1732873143104525300,3.748525390625,10.062829971313477,1.656787633895874,1.2042834758758545
1732873143114504400,3.75850439453125,9.373299598693848,1.5610195398330688,-0.1364694982767105
1732873143124514000,3.76851416015625,9.339780807495117,1.2090718746185303,-1.4437036514282227
1732873143134524000,3.77852392578125,9.897629737854004,0.5913678407669067,-1.8962076902389526
1732873143144503300,3.78850341796875,11.70046329498291,-0.30885201692581177,-2.1284453868865967
1732873143154513000,3.798512939453125,12.847286224365234,-1.558625340461731,-1.577778935432434
1732873143164522800,3.808522705078125,13.974955558776855,-2.2361843585968018,-1.1276689767837524
1732873143174502100,3.818502197265625,14.384364128112793,-2.564189910888672,-0.5602431893348694
1732873143184511700,3.82851171875,13.958195686340332,-2.5043349266052246,0.44771572947502136
1732873143194521600,3.838521484375,12.983756065368652,-1.8746598958969116,1.647210717201233
1732873143204500700,3.848500732421875,11.382035255432129,-1.048660397529602,2.96162748336792
1732873143214510300,3.85851025390625,9.253589630126953,-0.5506663918495178,3.0526070594787598
1732873143224520200,3.868520263671875,7.240066051483154,-0.26575639843940735,2.0183119773864746
1732873143234530000,3.878530029296875,6.157886981964111,0.24899697303771973,0.7086837291717529
1732873143244509200,3.88850927734375,6.368576526641846,0.5913678407669067,-0.0933738648891449
1732873143254519000,3.89851904296875,6.890512466430664,0.6536170840263367,-1.4077905416488647
1732873143264529000,3.90852880859375,7.445967197418213,0.6248866319656372,-2.470816135406494
1732873143274508300,3.91850830078125,7.663839817047119,0.6967126727104187,-3.222595453262329
1732873143284518000,3.928517822265625,8.006210327148438,0.7493851184844971,-3.5410242080688477
1732873143294527500,3.938527587890625,8.305485725402832,0.6775590777397156,-3.56017804145813
1732873143304507000,3.9485068359375,8.631096839904785,0.586579442024231,-3.3710360527038574
1732873143314516500,3.9585166015625,8.978256225585938,0.7086837291717529,-3.19865345954895
1732873143324526300,3.9685263671875,8.614337921142578,1.1492167711257935,-3.004723072052002
1732873143334505700,3.978505615234375,10.69489860534668,0.07661445438861847,-1.86508309841156
1732873143344515300,3.988515380859375,9.674968719482422,0.9696516990661621,-2.626439332962036
1732873143354525200,3.998525146484375,9.739612579345703,1.6543933153152466,-1.1779472827911377
1732873143364504600,4.008504638671875,9.457097053527832,1.4484920501708984,0.12210428714752197
1732873143374514200,4.01851416015625,9.591172218322754,1.434126853942871,0.4836287498474121
1732873143384524000,4.02852392578125,9.983820915222168,1.5873557329177856,0.1364694982767105
1732873143394503200,4.038503173828125,10.371682167053223,1.3335703611373901,0.11971008777618408
1732873143404513000,4.048512939453125,10.433931350708008,1.1492167711257935,-0.08140286058187485
1732873143414522600,4.058522705078125,10.338163375854492,1.0055646896362305,-0.23942017555236816
1732873143424502000,4.068501953125,10.137049674987793,0.7972691655158997,-0.10295066982507706
1732873143434511600,4.07851171875,9.856928825378418,0.706289529800415,0.0454898327589035
1732873143444521500,4.088521484375,9.603142738342285,0.5674257874488831,0.3663128614425659
1732873143454500900,4.0985009765625,9.315838813781738,0.5770025849342346,0.7110779285430908
1732873143464510500,4.108510498046875,9.133879661560059,0.6512228846549988,0.9265560507774353
1732873143474520300,4.118520263671875,8.89685344696045,0.6991068720817566,0.8379706144332886
1732873143484530200,4.1285302734375,8.741230010986328,0.7829039692878723,0.6727706789970398
1732873143494509300,4.13850927734375,8.427590370178223,1.0893617868423462,0.3519476354122162
1732873143504519200,4.148519287109375,8.010998725891113,1.316810965538025,0.17238251864910126
1732873143514528800,4.15852880859375,7.661445617675781,1.45806884765625,-0.10055647045373917
1732873143524508200,4.168508056640625,7.668628215789795,1.400607943534851,-0.26096799969673157
1732873143534517800,4.178517822265625,8.236053466796875,1.2234370708465576,-0.3711012601852417
1732873143544527600,4.188527587890625,9.643844604492188,0.9145850539207458,-0.45489832758903503
1732873143554507000,4.198507080078125,10.924742698669434,0.7661445140838623,-0.706289529800415
1732873143564516600,4.2085166015625,11.870451927185059,0.7924807667732239,-1.2282254695892334
1732873143574526500,4.2185263671875,12.394782066345215,1.1204863786697388,-1.4891934394836426
1732873143584505900,4.228505859375,12.102689743041992,1.8842366933822632,-1.5490485429763794
1732873143594515500,4.238515380859375,11.635820388793945,2.389413356781006,-1.659181833267212
1732873143604525000,4.248525146484375,10.256759643554688,2.2194249629974365,-1.015141487121582
1732873143614504400,4.25850439453125,8.848969459533691,1.6136919260025024,-0.7134721279144287
1732873143624514000,4.26851416015625,9.050082206726074,0.7924807667732239,-0.7637503147125244
1732873143634524000,4.27852392578125,10.60152530670166,0.2801215946674347,-1.9177556037902832
1732873143644503300,4.28850341796875,12.461819648742676,0.17956513166427612,-3.6990416049957275
1732873143654513000,4.298512939453125,12.708422660827637,0.5650315880775452,-4.280832767486572
1732873143664522800,4.308522705078125,11.224017143249512,1.072602391242981,-3.8139634132385254
1732873143674502100,4.318502197265625,9.002198219299316,1.4772224426269531,-2.8395233154296875
1732873143684511700,4.32851171875,7.548917770385742,1.7501614093780518,-1.9081788063049316
1732873143694521600,4.338521484375,7.0772600173950195,1.8483237028121948,-1.0821791887283325
1732873143704500700,4.348500732421875,7.5417351722717285,1.7549498081207275,-1.139639973640442
1732873143714510300,4.35851025390625,8.899248123168945,1.6112977266311646,-1.7286136150360107
1732873143724520200,4.368520263671875,10.230423927307129,1.3910311460494995,-1.9632453918457031
1732873143734530000,4.378530029296875,11.295844078063965,1.3910311460494995,-1.8962076902389526
1732873143744509400,4.388509521484375,11.650185585021973,1.3862427473068237,-1.680729627609253
1732873143754519000,4.39851904296875,11.417947769165039,1.3503297567367554,-1.6304513216018677
1732873143764529000,4.40852880859375,11.439496040344238,1.5059528350830078,-1.0654197931289673
1732873143774508000,4.418508056640625,11.188104629516602,1.6855180263519287,-0.33997663855552673
1732873143784518000,4.428517822265625,10.108319282531738,1.7477672100067139,-1.0079588890075684
1732873143794527700,4.43852783203125,9.17697525024414,1.7166426181793213,-1.278503656387329
1732873143804507000,4.4485068359375,8.635885238647461,1.7166426181793213,-1.115697979927063
1732873143814516500,4.4585166015625,8.611943244934082,1.7334020137786865,-1.0462661981582642
1732873143824526300,4.4685263671875,8.554482460021973,1.6328455209732056,-1.0749965906143188
1732873143834505500,4.47850537109375,8.310274124145508,1.659181833267212,-1.2066776752471924
1732873143844515300,4.488515380859375,8.10437297821045,1.699883222579956,-1.2425906658172607
1732873143854525200,4.498525146484375,7.929595947265625,1.7190368175506592,-1.3096283674240112
1732873143864504600,4.508504638671875,7.745242595672607,1.6974890232086182,-1.2473790645599365
1732873143874514200,4.51851416015625,7.7763671875,1.7070658206939697,-1.1468225717544556
1732873143884524000,4.52852392578125,8.034940719604492,1.647210717201233,-1.115697979927063
1732873143894503200,4.538503173828125,8.453926086425781,1.4628572463989258,-1.0821791887283325
1732873143904513000,4.548512939453125,8.868123054504395,1.4173674583435059,-1.1827356815338135
1732873143914522600,4.558522705078125,9.344569206237793,1.3311761617660522,-1.094150185585022
1732873143924502000,4.568501953125,9.66539192199707,1.2425906658172607,-0.8738836050033569
1732873143934511600,4.57851171875,9.907206535339355,1.173158884048462,-0.9074024558067322
1732873143944521500,4.588521484375,10.074800491333008,1.1444283723831177,-1.0079588890075684
1732873143954500900,4.5985009765625,10.139444351196289,1.0869675874710083,-1.400607943534851
1732873143964510500,4.608510498046875,10.168174743652344,1.2976573705673218,-1.115697979927063
1732873143974520300,4.618520263671875,10.292673110961914,1.534683346748352,-0.5315127968788147
1732873143984530200,4.6285302734375,10.168174743652344,1.7525556087493896,-0.33279404044151306
1732873143994509300,4.63850927734375,10.223240852355957,1.843535304069519,-0.33279404044151306
1732873144004519200,4.648519287109375,10.012551307678223,1.7980455160140991,-0.33279404044151306
1732873144014529000,4.658529052734375,9.876082420349121,1.7597382068634033,-0.304063618183136
1732873144024508000,4.6685078125,9.710882186889648,1.7070658206939697,-0.24420857429504395
1732873144034517800,4.678517822265625,9.612719535827637,1.6352397203445435,-0.07900865375995636
1732873144044527600,4.688527587890625,9.672574996948242,1.5729905366897583,0.09816227108240128
1732873144054507000,4.698507080078125,9.674968719482422,1.623268723487854,0.10534487664699554
1732873144064516600,4.7085166015625,9.394847869873047,1.821987509727478,0.2561795711517334
1732873144074526500,4.7185263671875,8.995016098022461,1.9105730056762695,0.48602294921875
1732873144084505600,4.728505615234375,8.523358345031738,2.032677173614502,0.6105214357376099
1732873144094515500,4.738515380859375,8.461109161376953,2.032677173614502,0.569819986820221
1732873144104525300,4.748525390625,8.614337921142578,1.9369091987609863,0.5003881454467773
1732873144114504400,4.75850439453125,9.224859237670898,1.7908629179000854,0.4165911078453064
1732873144124514000,4.76851416015625,9.677363395690918,1.5203180313110352,-0.363918662071228
1732873144134524000,4.77852392578125,10.491392135620117,1.4772224426269531,0.5770025849342346
1732873144144503300,4.78850341796875,11.0300874710083,1.4484920501708984,1.3192051649093628
1732873144154513000,4.798512939453125,11.441889762878418,1.5298948287963867,2.030282974243164
1732873144164522800,4.808522705078125,11.951854705810547,1.525106430053711,2.454056739807129
1732873144174502100,4.818502197265625,12.492944717407227,1.357512354850769,3.222595453262329
1732873144184511700,4.82851171875,12.373234748840332,0.7374141216278076,2.9496564865112305
1732873144194521600,4.838521484375,12.445060729980469,-0.12449848651885986,2.561795711517334
1732873144204500700,4.848500732421875,13.242329597473145,-0.6991068720817566,1.699883222579956
1732873144214510300,4.85851025390625,14.166491508483887,-1.0103530883789062,-0.17477671802043915
1732873144224520200,4.868520263671875,14.698003768920898,-1.2761094570159912,-1.6543933153152466
1732873144234530000,4.878530029296875,13.781024932861328,-1.1444283723831177,-2.1571757793426514
1732873144244509200,4.88850927734375,11.262324333190918,-0.6919242739677429,-1.9823989868164062
1732873144254519000,4.89851904296875,8.736441612243652,-0.181959331035614,-1.4245500564575195
1732873144264529000,4.90852880859375,6.303933143615723,0.5339069962501526,-0.9457096457481384
1732873144274508300,4.91850830078125,4.874594688415527,1.2090718746185303,-0.6248866319656372
1732873144284518000,4.928517822265625,4.019864559173584,1.702277421951294,-0.21308395266532898
1732873144294527500,4.938527587890625,3.9911341667175293,1.9488801956176758,0.07182604819536209
1732873144304507000,4.9485068359375,4.747702121734619,1.9847931861877441,0.05746084079146385
1732873144314516500,4.9585166015625,6.167463779449463,1.702277421951294,-0.2992752194404602
1732873144324526300,4.9685263671875,7.55131196975708,1.259350061416626,-0.6033388376235962
1732873144334505700,4.978505615234375,9.157821655273438,0.751779317855835,-0.706289529800415
1732873144344515300,4.988515380859375,10.45547866821289,0.30885201692581177,-0.8259995579719543
1732873144354525200,4.998525146484375,11.425130844116211,-0.035913024097681046,-0.8092401623725891
1732873144364504600,5.008504638671875,11.84650993347168,-0.15083470940589905,-0.7254431247711182
1732873144374514200,5.01851416015625,12.052411079406738,-0.038307227194309235,-0.569819986820221
1732873144384524000,5.02852392578125,11.750741958618164,0.22026655077934265,-0.4836287498474121
1732873144394503200,5.038503173828125,10.8505220413208,0.6057330369949341,-0.3663128614425659
1732873144404513000,5.048512939453125,9.947908401489258,0.9744400978088379,-0.2513911724090576
1732873144414522600,5.058522705078125,9.107542991638184,1.2545616626739502,-0.1604115068912506
1732873144424502000,5.068501953125,8.724471092224121,1.4700398445129395,-0.14365209639072418
1732873144434511600,5.07851171875,8.559270858764648,1.4700398445129395,-0.44771572947502136
1732873144444521500,5.088521484375,8.908824920654297,1.4628572463989258,-0.5003881454467773
1732873144454500900,5.0985009765625,9.107542991638184,1.4915876388549805,-0.8523358106613159
1732873144464510500,5.108510498046875,9.294290542602539,1.3311761617660522,-1.036689281463623
1732873144474520300,5.118520263671875,9.53849983215332,1.1348515748977661,-0.9576807022094727
1732873144484530200,5.1285302734375,9.816226959228516,0.9433154463768005,-0.993593692779541
1732873144494509600,5.138509521484375,10.14902114868164,1.0055646896362305,-1.1635819673538208
1732873144504519200,5.148519287109375,10.405200958251953,0.7158663272857666,-0.6847416758537292
1732873144514528800,5.15852880859375,10.426748275756836,0.5674257874488831,-0.5123591423034668
1732873144524508200,5.168508056640625,9.80904483795166,0.28730419278144836,-1.0773907899856567
1732873144534517800,5.178517822265625,9.928754806518555,0.3878606855869293,-0.17956513166427612
1732873144544527600,5.188527587890625,9.90241813659668,0.30885201692581177,0.4165911078453064
1732873144554507000,5.198507080078125,9.593565940856934,0.545877993106842,0.028730420395731926
1732873144564516600,5.2085166015625,9.210494041442871,0.5889736413955688,-0.1867477297782898
1732873144574526500,5.2185263671875,8.700529098510742,0.7924807667732239,0.05267243832349777
1732873144584505900,5.228505859375,8.482656478881836,1.0271124839782715,0.0933738648891449
1732873144594515500,5.238515380859375,8.695740699768066,1.194706678390503,0.016759412363171577
1732873144604525000,5.248525146484375,8.901641845703125,1.2521674633026123,-0.18914192914962769
1732873144614504400,5.25850439453125,9.255983352661133,1.1851298809051514,-0.3519476354122162
1732873144624514000,5.26851416015625,9.57201862335205,1.0845733880996704,-0.6727706789970398
1732873144634524000,5.27852392578125,9.86889934539795,1.0821791887283325,-0.4189853072166443
1732873144644503300,5.28850341796875,10.093954086303711,1.0342950820922852,0.5626373887062073
1732873144654513000,5.298512939453125,10.204087257385254,0.9361328482627869,1.3694833517074585
1732873144664522800,5.308522705078125,10.591948509216309,0.9672574996948242,1.3718775510787964
1732873144674502100,5.318502197265625,10.879252433776855,0.9840168952941895,0.4692635238170624
1732873144684511700,5.32851171875,11.133037567138672,1.1492167711257935,-0.047884032130241394
1732873144694521600,5.338521484375,11.221623420715332,1.048660397529602,-0.1604115068912506
1732873144704500700,5.348500732421875,11.57596492767334,0.6057330369949341,-0.24420857429504395
1732873144714510300,5.35851025390625,11.851298332214355,0.19393034279346466,-0.5937620401382446
1732873144724520200,5.368520263671875,12.466608047485352,-0.10534487664699554,-1.2401964664459229
1732873144734530000,5.378530029296875,12.509703636169434,-0.009576806798577309,-1.625662922859192
1732873144744509400,5.388509521484375,11.389217376708984,0.5913678407669067,-1.4317326545715332
1732873144754519000,5.39851904296875,9.452308654785156,1.479616641998291,-1.3263877630233765
1732873144764529000,5.40852880859375,8.13789176940918,2.118868589401245,-1.2617442607879639
1732873144774508000,5.418508056640625,7.319074630737305,2.6671407222747803,-1.4532804489135742
1732873144784518000,5.428517822265625,7.184999465942383,3.093308687210083,-1.7166426181793213
1732873144794527700,5.43852783203125,6.7708024978637695,3.1675288677215576,-3.1866824626922607
1732873144804507000,5.4485068359375,6.871358871459961,3.512293815612793,-2.655169725418091
1732873144814516500,5.4585166015625,7.757213592529297,3.335123062133789,-1.6687586307525635
1732873144824526300,5.4685263671875,9.17936897277832,2.9903578758239746,-0.9983820915222168
1732873144834505500,5.47850537109375,11.085153579711914,2.4899697303771973,-0.5650315880775452
1732873144844515300,5.488515380859375,12.569559097290039,2.0422539710998535,-0.4118026793003082
1732873144854525200,5.498525146484375,13.409923553466797,1.599326729774475,-0.5219359993934631
1732873144864504600,5.508504638671875,13.249512672424316,1.2689268589019775,-1.194706678390503
1732873144874514200,5.51851416015625,12.6365966796875,1.0845733880996704,-1.5131354331970215
1732873144884524000,5.52852392578125,11.791443824768066,1.0582371950149536,-1.8698714971542358
1732873144894503200,5.538503173828125,10.939107894897461,1.2018892765045166,-1.9704279899597168
1732873144904513000,5.548512939453125,9.454702377319336,1.2761094570159912,-1.824381709098816
1732873144914522600,5.558522705078125,8.439560890197754,1.3934253454208374,-1.5083470344543457
1732873144924502000,5.568501953125,7.501033782958984,1.7166426181793213,-1.256955862045288
1732873144934511600,5.57851171875,6.691793918609619,1.922544002532959,-1.0295066833496094
1732873144944521500,5.588521484375,6.086060523986816,2.1954829692840576,-0.7158663272857666
1732873144954500900,5.5985009765625,5.705382823944092,2.4660277366638184,-0.37828385829925537
1732873144964510500,5.608510498046875,5.592854976654053,2.698265314102173,-0.23702596127986908
1732873144974520300,5.618520263671875,5.834669589996338,2.75812029838562,-0.26096799969673157
1732873144984530200,5.6285302734375,6.308721542358398,2.7222073078155518,-0.3758896589279175
1732873144994509300,5.63850927734375,7.1490864753723145,2.513911724090576,-0.5650315880775452
1732873145004519200,5.648519287109375,8.178592681884766,2.2026655673980713,-0.7469909191131592
1732873145014529000,5.658529052734375,9.327810287475586,1.9512743949890137,-0.7781155705451965
1732873145024508000,5.6685078125,10.15141487121582,1.7860745191574097,-0.5985504388809204
1732873145034517800,5.678517822265625,10.752359390258789,1.7717092037200928,-0.524330198764801
1732873145044527600,5.688527587890625,10.915165901184082,1.8076223134994507,-0.6057330369949341
1732873145054507000,5.698507080078125,10.828974723815918,1.9512743949890137,-0.7852981686592102
1732873145064516600,5.7085166015625,10.596736907958984,2.118868589401245,-0.7445967197418213
1732873145074526500,5.7185263671875,9.892841339111328,2.3487119674682617,-0.569819986820221
1732873145084505600,5.728505615234375,9.059659004211426,2.559401512145996,-0.1867477297782898
1732873145094515500,5.738515380859375,8.482656478881836,2.671929121017456,0.2322375625371933
1732873145104525300,5.748525390625,8.276755332946777,2.717418909072876,0.5386953949928284
1732873145114504400,5.75850439453125,8.473079681396484,2.6455929279327393,0.6368576288223267
1732873145124514000,5.76851416015625,8.734047889709473,2.408566951751709,0.6512228846549988
1732873145134524000,5.77852392578125,9.136273384094238,2.161964178085327,0.6727706789970398
1732873145144503300,5.78850341796875,9.749189376831055,1.9297266006469727,0.7469909191131592
1732873145154513000,5.798512939453125,10.232817649841309,1.7836803197860718,0.950498104095459
1732873145164522800,5.808522705078125,10.108319282531738,1.7573440074920654,0.8954314589500427
1732873145174502100,5.818502197265625,9.914389610290527,1.6903064250946045,1.0199298858642578
1732873145184511700,5.82851171875,9.646238327026367,1.647210717201233,1.259350061416626
1732873145194521600,5.838521484375,9.5624418258667,1.455674648284912,1.7310078144073486
1732873145204500700,5.848500732421875,9.818621635437012,1.1659762859344482,2.169146776199341
1732873145214510300,5.85851025390625,10.342951774597168,0.6655880808830261,2.513911724090576
1732873145224520200,5.868520263671875,11.125855445861816,0.2825157940387726,2.719813108444214
1732873145234530000,5.878530029296875,12.088324546813965,-0.3519476354122162,2.7078421115875244
1732873145244509200,5.88850927734375,13.194445610046387,-0.7757213711738586,2.674323320388794
1732873145254519000,5.89851904296875,14.501679420471191,-0.6584054827690125,2.099714994430542
1732873145264529000,5.90852880859375,15.114595413208008,-0.44532153010368347,1.3934253454208374
1732873145274508300,5.91850830078125,14.58308219909668,-0.08858546614646912,0.629675030708313
1732873145284518000,5.928517822265625,12.883199691772461,0.27054479718208313,0.090979665517807
1732873145294527500,5.938527587890625,10.199298858642578,0.49559974670410156,-0.09816227108240128
1732873145304507000,5.9485068359375,8.214506149291992,0.6320692300796509,-0.1149216815829277
1732873145314516500,5.9585166015625,7.062894821166992,0.9888052940368652,-0.6033388376235962
1732873145324526300,5.9685263671875,6.555324077606201,1.091755986213684,-1.161187767982483
1732873145334505700,5.978505615234375,6.785167694091797,1.0797849893569946,-1.4437036514282227
1732873145344515300,5.988515380859375,7.9846625328063965,0.8427590131759644,-1.6903064250946045
1732873145354525200,5.998525146484375,9.53849983215332,0.19632454216480255,-1.8722656965255737
1732873145364504600,6.008504638671875,11.362881660461426,-0.4405331015586853,-2.1380221843719482
1732873145374514200,6.01851416015625,12.789825439453125,-0.790086567401886,-2.540247917175293
1732873145384524000,6.02852392578125,13.139378547668457,-0.8092401623725891,-2.4875755310058594
1732873145394503200,6.038503173828125,12.227188110351562,-0.2298433631658554,-1.6950948238372803
1732873145404513000,6.048512939453125,10.647014617919922,0.42616790533065796,-0.6607996821403503
1732873145414522600,6.058522705078125,9.334992408752441,0.9050082564353943,0.009576806798577309
1732873145424502000,6.068501953125,8.647856712341309,1.2545616626739502,0.29209262132644653
1732873145434511600,6.07851171875,8.355764389038086,1.4915876388549805,0.35673606395721436
1732873145444521500,6.088521484375,8.528146743774414,1.6065093278884888,0.4118026793003082
1732873145454500900,6.0985009765625,8.880094528198242,1.656787633895874,0.40222588181495667
1732873145464510500,6.108510498046875,9.10993766784668,1.6065093278884888,0.4908113479614258
1732873145474520300,6.118520263671875,9.05487060546875,1.4891934394836426,0.6919242739677429
1732873145484530200,6.1285302734375,8.81784439086914,1.4221558570861816,0.7757213711738586
1732873145494509600,6.138509521484375,8.523358345031738,1.335964560508728,0.7805097699165344
1732873145504519200,6.148519287109375,8.214506149291992,1.2713210582733154,0.5219359993934631
1732873145514528800,6.15852880859375,8.099584579467773,1.1085153818130493,0.05506663769483566
1732873145524508200,6.168508056640625,8.214506149291992,1.0079588890075684,-0.33039984107017517
1732873145534517800,6.178517822265625,8.434772491455078,0.9576807022094727,-0.5147533416748047
1732873145544527600,6.188527587890625,8.796297073364258,0.8978256583213806,-0.4836287498474121
1732873145554507000,6.198507080078125,9.02135181427002,0.8307880163192749,-0.3663128614425659
1732873145564516600,6.2085166015625,9.028534889221191,0.7852981686592102,-0.1867477297782898
1732873145574526500,6.2185263671875,8.987833023071289,0.849941611289978,-0.019153613597154617
1732873145584505900,6.228505859375,9.308655738830566,0.8236053586006165,0.15801730751991272
1732873145594515500,6.238515380859375,9.787496566772461,0.7422025203704834,0.2298433631658554
1732873145604525000,6.248525146484375,10.17296314239502,0.6512228846549988,0.3519476354122162
1732873145614504400,6.25850439453125,10.32858657836914,0.5291185975074768,0.23942017555236816
1732873145624514000,6.26851416015625,10.395624160766602,0.3974374830722809,0.05027823522686958
1732873145634524000,6.27852392578125,10.469843864440918,0.4405331015586853,-0.043095629662275314
1732873145644503300,6.28850341796875,10.54406452178955,0.507570743560791,0.12928688526153564
1732873145654513000,6.298512939453125,10.08437728881836,0.6248866319656372,0.43095630407333374
1732873145664522800,6.308522705078125,9.605537414550781,0.8188169598579407,0.7613561153411865
1732873145674502100,6.318502197265625,9.078812599182129,0.9002198576927185,1.0414776802062988
1732873145684511700,6.32851171875,8.932766914367676,0.9552865028381348,1.1444283723831177
1732873145694521600,6.338521484375,9.097966194152832,1.036689281463623,1.1085153818130493
1732873145704500700,6.348500732421875,9.370905876159668,0.9888052940368652,1.0247182846069336
1732873145714510300,6.35851025390625,9.773131370544434,0.8259995579719543,0.9289502501487732
1732873145724520200,6.368520263671875,10.211270332336426,0.7613561153411865,0.8954314589500427
1732873145734530000,6.378530029296875,10.551246643066406,0.7038952708244324,0.9983820915222168
1732873145744509400,6.388509521484375,10.587160110473633,0.6847416758537292,0.9959878921508789
1732873145754519000,6.39851904296875,10.493785858154297,0.7852981686592102,0.9265560507774353
1732873145764529000,6.40852880859375,10.251971244812012,0.790086567401886,0.8547300100326538
1732873145774508000,6.418508056640625,10.235212326049805,0.727837324142456,0.6392518281936646
1732873145784518000,6.428517822265625,10.472238540649414,0.8523358106613159,0.5530605912208557
1732873145794527700,6.43852783203125,10.752359390258789,1.0773907899856567,0.4596867263317108
1732873145804507000,6.4485068359375,11.08754825592041,1.434126853942871,0.47644615173339844
1732873145814516500,6.4585166015625,11.116278648376465,1.764526605606079,0.5985504388809204
1732873145824526300,6.4685263671875,10.72841739654541,1.9273324012756348,0.6655880808830261
1732873145834505500,6.47850537109375,10.496180534362793,1.8579005002975464,0.49559974670410156
1732873145844515300,6.488515380859375,10.469843864440918,1.460463047027588,0.021547814831137657
1732873145854525200,6.498525146484375,10.65898609161377,0.8834604024887085,-0.828393816947937
1732873145864504600,6.508504638671875,10.81460952758789,0.7110779285430908,-1.7477672100067139
1732873145874514200,6.51851416015625,10.536881446838379,0.9145850539207458,-2.410961151123047
1732873145884524000,6.52852392578125,9.706093788146973,1.2449848651885986,-2.669534921646118
1732873145894503200,6.538503173828125,8.47786808013916,1.7884687185287476,-2.7078421115875244
1732873145904513000,6.548512939453125,7.108384609222412,2.2673089504241943,-2.734178304672241
1732873145914522600,6.558522705078125,5.5545477867126465,2.808398485183716,-2.6001031398773193
1732873145924502000,6.568501953125,4.6734819412231445,3.3207578659057617,-2.205059766769409
1732873145934511600,6.57851171875,4.501099109649658,3.754108190536499,-1.3910311460494995
1732873145944521500,6.588521484375,5.073313236236572,3.936067581176758,-0.7398083209991455
1732873145954500900,6.5985009765625,6.36378812789917,3.7445313930511475,-0.016759412363171577
1732873145964510500,6.608510498046875,8.288725852966309,3.24414324760437,0.4812345504760742
1732873145974520300,6.618520263671875,9.988609313964844,2.6192567348480225,0.524330198764801
1732873145984530200,6.6285302734375,12.157755851745605,1.7118542194366455,0.11252748221158981
1732873145994509300,6.63850927734375,14.053963661193848,0.8427590131759644,-0.7110779285430908
1732873146004519200,6.648519287109375,15.935806274414062,0.12210428714752197,-1.7166426181793213
1732873146014529000,6.658529052734375,16.577451705932617,-0.1604115068912506,-2.322375535964966
1732873146024508000,6.6685078125,15.468936920166016,-0.15322890877723694,-2.389413356781006
1732873146034517800,6.678517822265625,13.225569725036621,0.21547815203666687,-1.946485996246338
1732873146044527600,6.688527587890625,10.594342231750488,0.7781155705451965,-1.0869675874710083
1732873146054507000,6.698507080078125,8.580819129943848,1.3958195447921753,-0.40222588181495667
1732873146064516600,6.7085166015625,6.89530086517334,2.097320795059204,0.004788403399288654
1732873146074526500,6.7185263671875,5.781997203826904,2.631227731704712,0.24181437492370605
1732873146084505600,6.728505615234375,5.2480902671813965,2.889801502227783,0.3471592366695404
1732873146094515500,6.738515380859375,5.0900726318359375,3.0095114707946777,0.40222588181495667
1732873146104525300,6.748525390625,5.595249176025391,2.875436305999756,0.38067805767059326
1732873146114504400,6.75850439453125,6.445190906524658,2.5737667083740234,0.2513911724090576
1732873146124514000,6.76851416015625,7.3023152351379395,2.2170307636260986,0.10773907601833344
1732873146134524000,6.77852392578125,8.274360656738281,1.8531121015548706,-0.08858546614646912
1732873146144503300,6.78850341796875,9.117119789123535,1.6184803247451782,-0.3016694188117981
1732873146154513000,6.798512939453125,9.931148529052734,1.436521053314209,-0.5434837937355042
1732873146164522800,6.808522705078125,10.42195987701416,1.359906554222107,-0.4429273009300232
1732873146174502100,6.818502197265625,10.96544361114502,1.403002142906189,-0.3926490843296051
1732873146184511700,6.82851171875,10.96544361114502,1.5514427423477173,-0.4620809257030487
1732873146194521600,6.838521484375,10.560823440551758,1.764526605606079,-0.4213795065879822
1732873146204500700,6.848500732421875,10.002974510192871,1.9823989868164062,-0.19393034279346466
1732873146214510300,6.85851025390625,9.536105155944824,2.1739351749420166,0.20111294090747833
1732873146224520200,6.868520263671875,9.349357604980469,2.1787235736846924,0.768538773059845
1732873146234530000,6.878530029296875,9.466673851013184,2.1930887699127197,1.0630255937576294
1732873146244509200,6.88850927734375,9.871294021606445,2.097320795059204,1.3287819623947144
1732873146254519000,6.89851904296875,10.211270332336426,1.968033790588379,1.4724340438842773
1732873146264529000,6.90852880859375,10.503362655639648,1.9153614044189453,1.4508862495422363
1732873146274508300,6.91850830078125,10.680533409118652,1.845929503440857,1.3934253454208374
1732873146284518000,6.928517822265625,10.620678901672363,1.968033790588379,1.1899182796478271
1732873146294527500,6.938527587890625,10.177751541137695,2.0877439975738525,0.9983820915222168
1732873146304507000,6.9485068359375,9.785101890563965,2.1930887699127197,0.871489405632019
1732873146314516500,6.9585166015625,9.452308654785156,2.1380221843719482,1.0031704902648926
1732873146324526300,6.9685263671875,9.732429504394531,1.8794482946395874,1.0989385843276978
1732873146334505700,6.978505615234375,10.558429718017578,0.9864110946655273,1.335964560508728
1732873146344515300,6.988515380859375,12.076353073120117,-0.19871874153614044,1.5729905366897583
1732873146354525200,6.998525146484375,14.772224426269531,-1.6089035272598267,0.849941611289978
1732873146364504600,7.008504638671875,17.0203800201416,-2.3295583724975586,-0.933738648891449
1732873146374514200,7.01851416015625,18.025943756103516,-2.322375535964966,-3.047818660736084
1732873146384524000,7.02852392578125,16.383522033691406,-1.9129672050476074,-3.794809579849243
1732873146394503200,7.038503173828125,12.495338439941406,-1.2521674633026123,-3.1962592601776123
1732873146404513000,7.048512939453125,8.53532886505127,-0.24660277366638184,-1.7717092037200928
1732873146414523000,7.05852294921875,5.504269599914551,0.849941611289978,-0.9050082564353943
1732873146424502000,7.068501953125,3.248931646347046,1.764526605606079,0.19153612852096558
1732873146434511600,7.07851171875,2.7557260990142822,2.274491548538208,1.094150185585022
1732873146444521500,7.088521484375,3.44765043258667,2.2625205516815186,1.4844050407409668
1732873146454500900,7.0985009765625,5.224148273468018,1.8531121015548706,1.3120225667953491
1732873146464510500,7.108510498046875,7.7763671875,1.2330138683319092,0.8595184087753296
1732873146474520300,7.118520263671875,9.667786598205566,0.47165772318840027,0.2992752194404602
1732873146484530200,7.1285302734375,11.489773750305176,-0.19632454216480255,-0.31364041566848755
1732873146494509600,7.138509521484375,12.710816383361816,-0.6009446382522583,-0.6200982332229614
1732873146504519200,7.148519287109375,13.227964401245117,-0.7541735172271729,-0.7972691655158997
1732873146514528800,7.15852880859375,12.890381813049316,-0.6607996821403503,-0.8619126081466675
1732873146524508200,7.168508056640625,11.93748950958252,-0.37828385829925537,-0.7230489253997803
1732873146534517800,7.178517822265625,10.536881446838379,0.038307227194309235,-0.5793967843055725
1732873146544527600,7.188527587890625,9.466673851013184,0.3758896589279175,-0.33279404044151306
1732873146554507000,7.198507080078125,8.652645111083984,0.8523358106613159,-0.14844051003456116
1732873146564516600,7.2085166015625,8.101978302001953,1.0773907899856567,-0.016759412363171577
1732873146574526500,7.2185263671875,7.5417351722717285,1.1803414821624756,0.15322890877723694
1732873146584505900,7.228505859375,7.29034423828125,1.1659762859344482,0.26815059781074524
1732873146594515500,7.238515380859375,7.309497833251953,0.9768342971801758,0.24660277366638184
1732873146604525000,7.248525146484375,7.642292022705078,0.8523358106613159,0.19632454216480255
1732873146614504400,7.25850439453125,8.133103370666504,0.7206547260284424,-0.004788403399288654
1732873146624514000,7.26851416015625,8.5903959274292,0.569819986820221,-0.2059013396501541
1732873146634524000,7.27852392578125,8.944737434387207,0.49559974670410156,-0.3016694188117981
1732873146644503300,7.28850341796875,9.208099365234375,0.5027823448181152,-0.1149216815829277
1732873146654513000,7.298512939453125,9.27034854888916,0.45250412821769714,0.07422025501728058
1732873146664522800,7.308522705078125,9.32541561126709,0.40222588181495667,0.22026655077934265
1732873146674502100,7.318502197265625,9.442731857299805,0.3519476354122162,0.45489832758903503
1732873146684511700,7.32851171875,9.591172218322754,0.2968810200691223,0.545877993106842
1732873146694521600,7.338521484375,9.806650161743164,0.2825157940387726,0.5123591423034668
1732873146704500700,7.348500732421875,9.99100399017334,0.35913026332855225,0.47405192255973816
1732873146714510300,7.35851025390625,9.976638793945312,0.47165772318840027,0.2968810200691223
1732873146724520200,7.368520263671875,9.940725326538086,0.6368576288223267,0.06464344263076782
1732873146734530000,7.378530029296875,9.871294021606445,0.7996633648872375,-0.16759411990642548
1732873146744509400,7.388509521484375,9.914389610290527,0.730231523513794,-0.28730419278144836
1732873146754519000,7.39851904296875,10.163386344909668,0.6105214357376099,-0.5219359993934631
1732873146764529000,7.40852880859375,10.304644584655762,0.5578489899635315,-0.9145850539207458
1732873146774508000,7.418508056640625,10.441113471984863,0.5051765441894531,-1.0893617868423462
1732873146784518000,7.428517822265625,10.42195987701416,0.7924807667732239,-1.1420341730117798
1732873146794527700,7.43852783203125,10.249577522277832,1.2976573705673218,-0.9169792532920837
1732873146804507000,7.4485068359375,9.639056205749512,1.7884687185287476,-0.5003881454467773
1732873146814516500,7.4585166015625,8.851364135742188,2.1475989818573,-0.15083470940589905
1732873146824526300,7.4685263671875,8.853757858276367,2.1356279850006104,0.43095630407333374
1732873146834505500,7.47850537109375,9.780313491821289,1.6089035272598267,0.42856210470199585
1732873146844515300,7.488515380859375,11.69806957244873,0.6177040338516235,-0.507570743560791
1732873146854525200,7.498525146484375,13.594277381896973,-0.49320554733276367,-1.6160861253738403
1732873146864504600,7.508504638671875,14.788984298706055,-0.8667010068893433,-2.477998733520508
1732873146874514200,7.51851416015625,14.532804489135742,-0.6320692300796509,-2.580949544906616
1732873146884524000,7.52852392578125,12.662932395935059,-0.009576806798577309,-2.2577321529388428
1732873146894503200,7.538503173828125,10.465055465698242,0.7876923680305481,-1.766920804977417
1732873146904513000,7.548512939453125,7.977479934692383,1.8315643072128296,-1.2880805730819702
1732873146914523000,7.55852294921875,6.138733386993408,2.738966703414917,-1.1563993692398071
1732873146924502000,7.568501953125,4.881777286529541,3.5721490383148193,-1.3287819623947144
1732873146934511600,7.57851171875,4.264073371887207,4.235342979431152,-1.8171991109848022
1732873146944521500,7.588521484375,4.106055736541748,4.663905143737793,-2.33913516998291
1732873146954500900,7.5985009765625,4.675876140594482,4.656722068786621,-2.612074136734009
1732873146964510500,7.608510498046875,6.133944988250732,4.268861770629883,-2.7246015071868896
1732873146974520300,7.618520263671875,8.197746276855469,3.5266590118408203,-2.5043349266052246
1732873146984530200,7.6285302734375,10.050858497619629,2.75812029838562,-2.0829553604125977
1732873146994509300,7.63850927734375,12.176909446716309,1.86508309841156,-1.6663644313812256
1732873147004519200,7.648519287109375,13.752294540405273,1.1109095811843872,-1.3742717504501343
1732873147014529000,7.658529052734375,14.748282432556152,0.363918662071228,-1.5538369417190552
1732873147024508000,7.6685078125,15.049951553344727,-0.019153613597154617,-1.7980455160140991
1732873147034517800,7.678517822265625,14.652514457702637,-0.1364694982767105,-2.0374655723571777
1732873147044527600,7.688527587890625,13.48653793334961,0.004788403399288654,-2.1715409755706787
1732873147054507000,7.698507080078125,11.75553035736084,0.304063618183136,-1.8818424940109253
1732873147064516600,7.7085166015625,10.132261276245117,0.7613561153411865,-1.335964560508728
1732873147074526500,7.7185263671875,8.398859977722168,1.357512354850769,-0.8403648138046265
1732873147084505600,7.728505615234375,6.936002254486084,1.946485996246338,-0.5602431893348694
1732873147094515500,7.738515380859375,5.906495571136475,2.3511061668395996,-0.2968810200691223
1732873147104525300,7.748525390625,5.015852451324463,2.6862943172454834,-0.08140286058187485
1732873147114504400,7.75850439453125,4.656722068786621,2.937685489654541,-0.15801730751991272
1732873147124514000,7.76851416015625,4.764461517333984,3.021482467651367,-0.4189853072166443
1732873147134524000,7.77852392578125,5.171475887298584,2.956839084625244,-0.7230489253997803
1732873147144503300,7.78850341796875,5.96874475479126,2.674323320388794,-0.9217676520347595
1732873147154513000,7.798512939453125,7.005434036254883,2.3295583724975586,-1.0773907899856567
1732873147164522800,7.808522705078125,8.458714485168457,2.0374655723571777,-1.3024457693099976
1732873147174502100,7.818502197265625,9.81143856048584,1.8076223134994507,-1.5107412338256836
1732873147184511700,7.82851171875,11.149797439575195,1.6352397203445435,-1.6879122257232666
1732873147194521600,7.838521484375,11.908759117126465,1.3886369466781616,-1.6735470294952393
1732873147204500700,7.848500732421875,12.327744483947754,1.2641384601593018,-1.6328455209732056
1732873147214510300,7.85851025390625,12.445060729980469,1.290474772453308,-1.4676456451416016
1732873147224520200,7.868520263671875,12.00452709197998,1.3886369466781616,-1.158793568611145
1732873147234530000,7.878530029296875,11.219228744506836,1.5418659448623657,-0.7158663272857666
1732873147244509200,7.88850927734375,10.591948509216309,1.7549498081207275,-0.22026655077934265
1732873147254519000,7.89851904296875,10.053253173828125,1.8962076902389526,0.10055647045373917
1732873147264529000,7.90852880859375,9.797073364257812,1.9369091987609863,0.24660277366638184
1732873147274508300,7.91850830078125,9.708487510681152,1.8315643072128296,0.29209262132644653
1732873147284518000,7.928517822265625,9.742006301879883,1.6950948238372803,0.29209262132644653
1732873147294527500,7.938527587890625,9.873687744140625,1.8100165128707886,0.5482721924781799
1732873147304507000,7.9485068359375,10.017339706420898,1.778891921043396,0.2513911724090576
1732873147314516500,7.9585166015625,9.77791976928711,1.8507179021835327,-0.15322890877723694
1732873147324526300,7.9685263671875,9.619902610778809,2.013523578643799,-0.026336219161748886
1732873147334505700,7.978505615234375,9.9000244140625,1.9608511924743652,0.9361328482627869
1732873147344515300,7.988515380859375,10.524910926818848,1.4221558570861816,2.540247917175293
1732873147354525200,7.998525146484375,11.580753326416016,0.5267243981361389,3.957615375518799
1732873147364504600,8.008504638671875,13.168108940124512,-0.47165772318840027,3.9193081855773926
1732873147374514200,8.01851416015625,14.513650894165039,-1.1492167711257935,3.098097085952759
1732873147384524000,8.02852392578125,15.459360122680664,-1.599326729774475,1.213860273361206
1732873147394503200,8.038503173828126,15.222334861755371,-1.53707754611969,-0.9744400978088379
1732873147404513000,8.048512939453126,13.412318229675293,-1.3096283674240112,-2.9496564865112305
1732873147414523000,8.05852294921875,10.515334129333496,-0.5578489899635315,-3.8307228088378906
1732873147424502000,8.068501953125,7.556100368499756,0.21787235140800476,-3.8810009956359863
1732873147434511600,8.07851171875,4.592078685760498,1.2976573705673218,-3.77565598487854
1732873147444521500,8.088521484375,2.7078421115875244,2.212242364883423,-3.7852327823638916
1732873147454500900,8.0985009765625,1.9129672050476074,2.786850690841675,-3.1914708614349365
1732873147464510500,8.108510498046876,2.7317841053009033,2.7772738933563232,-2.3104045391082764
1732873147474520300,8.118520263671876,4.929661273956299,2.207453966140747,-2.300827741622925
1732873147484530200,8.1285302734375,7.295132637023926,1.778891921043396,-2.188300371170044
1732873147494509600,8.138509521484375,10.216058731079102,1.278503656387329,-1.1324573755264282
1732873147504519200,8.148519287109375,12.11705493927002,0.7924807667732239,-1.601720929145813
1732873147514528800,8.15852880859375,13.508086204528809,0.2825157940387726,-1.920149803161621
1732873147524508200,8.168508056640626,14.111424446105957,-0.08858546614646912,-1.7621324062347412
1732873147534517800,8.178517822265626,14.051569938659668,-0.20111294090747833,-1.5538369417190552
1732873147544527600,8.188527587890626,13.127408027648926,-0.14365209639072418,-1.5514427423477173
1732873147554507000,8.198507080078125,11.892000198364258,-0.0454898327589035,-1.6687586307525635
1732873147564516600,8.2085166015625,10.651803016662598,0.05506663769483566,-1.941697597503662
1732873147574526500,8.2185263671875,9.907206535339355,0.13407529890537262,-1.9943699836730957
1732873147584505900,8.228505859375,9.512163162231445,0.28969839215278625,-1.6328455209732056
1732873147594515500,8.238515380859376,9.454702377319336,0.38546648621559143,-1.1180921792984009
1732873147604525000,8.248525146484376,9.739612579345703,0.4405331015586853,-0.181959331035614
1732873147614504400,8.25850439453125,10.012551307678223,0.42377370595932007,0.5626373887062073
1732873147624514000,8.26851416015625,9.718064308166504,0.4692635238170624,1.0869675874710083
1732873147634524000,8.27852392578125,9.121908187866211,0.5506663918495178,1.3287819623947144
1732873147644503300,8.28850341796875,8.710105895996094,0.5937620401382446,1.4077905416488647
1732873147654513000,8.298512939453126,8.425195693969727,0.6272808313369751,1.4389152526855469
1732873147664522800,8.308522705078126,8.44434928894043,0.7015010714530945,1.4101848602294922
1732873147674502100,8.318502197265625,8.829815864562988,0.6967126727104187,1.6903064250946045
1732873147684511700,8.32851171875,9.354146003723145,0.3016694188117981,2.185906171798706
1732873147694521600,8.338521484375,9.531316757202148,0.12689268589019775,2.0853497982025146
1732873147704500700,8.348500732421876,9.555258750915527,-0.0454898327589035,1.9177556037902832
1732873147714510300,8.35851025390625,9.576807022094727,-0.20350714027881622,1.7070658206939697
1732873147724520200,8.368520263671876,9.792284965515137,-0.33279404044151306,1.5203180313110352
1732873147734530000,8.378530029296876,10.067618370056152,-0.395043283700943,1.3838485479354858
1732873147744509400,8.388509521484375,10.101137161254883,-0.5315127968788147,1.4221558570861816
1732873147754519000,8.39851904296875,10.342951774597168,-0.3447650372982025,1.4197616577148438
1732873147764529000,8.40852880859375,10.38844108581543,-0.05985504388809204,1.4245500564575195
1732873147774508000,8.418508056640626,10.170568466186523,0.026336219161748886,1.580173134803772
1732873147784518000,8.428517822265626,9.830592155456543,0.08379705995321274,1.4915876388549805
1732873147794527700,8.43852783203125,9.306262016296387,0.12210428714752197,1.0558429956436157
1732873147804507000,8.4485068359375,8.59997272491455,0.17238251864910126,0.33279404044151306
1732873147814516500,8.4585166015625,8.379706382751465,0.21787235140800476,-0.10055647045373917
1732873147824526300,8.4685263671875,8.054094314575195,0.4620809257030487,-0.8690952062606812
1732873147834505500,8.47850537109375,8.288725852966309,0.8092401623725891,-1.256955862045288
1732873147844515300,8.488515380859376,9.057265281677246,1.2090718746185303,-1.3886369466781616
1732873147854525200,8.498525146484376,9.751583099365234,1.702277421951294,-1.2306196689605713
1732873147864504600,8.508504638671875,9.981427192687988,2.094926595687866,-1.1516109704971313
1732873147874514200,8.51851416015625,9.983820915222168,2.276885747909546,-0.8379706144332886
1732873147884524000,8.52852392578125,9.660603523254395,2.3535003662109375,-0.7541735172271729
1732873147894503200,8.538503173828126,9.239224433898926,2.2361843585968018,-0.950498104095459
1732873147904513000,8.548512939453126,8.707711219787598,1.9081788063049316,-1.4101848602294922
1732873147914523000,8.55852294921875,8.252813339233398,1.5155296325683594,-2.10210919380188
1732873147924502000,8.568501953125,8.504204750061035,1.5083470344543457,-2.2673089504241943
1732873147934511600,8.57851171875,8.765172004699707,1.280897855758667,-2.7676970958709717
1732873147944521500,8.588521484375,9.040505409240723,1.158793568611145,-3.114856481552124
1732873147954500900,8.5985009765625,9.01895809173584,1.237802267074585,-3.4308910369873047
1732873147964510500,8.608510498046876,9.047688484191895,1.170764684677124,-3.313575267791748
1732873147974520300,8.618520263671876,9.083600997924805,1.1971008777618408,-2.9520506858825684
1732873147984530200,8.6285302734375,8.995016098022461,1.400607943534851,-2.346317768096924
1732873147994509300,8.63850927734375,8.923190116882324,1.5610195398330688,-1.8602946996688843
1732873148004519200,8.648519287109375,8.83939266204834,1.7884687185287476,-1.3718775510787964
1732873148014529000,8.658529052734375,8.791508674621582,2.075772762298584,-1.3862427473068237
1732873148024508000,8.6685078125,8.87051773071289,1.9991583824157715,-1.4293384552001953
1732873148034517800,8.678517822265626,9.361329078674316,1.9943699836730957,-1.460463047027588
1732873148044527600,8.688527587890626,9.988609313964844,1.8818424940109253,-1.4269442558288574
1732873148054507000,8.698507080078125,10.299856185913086,1.7046716213226318,-1.534683346748352
1732873148064516600,8.7085166015625,10.472238540649414,1.5753847360610962,-1.4676456451416016
1732873148074526500,8.7185263671875,10.541669845581055,1.4389152526855469,-1.4173674583435059
1732873148084505600,8.728505615234376,10.47942066192627,1.259350061416626,-1.5514427423477173
1732873148094515500,8.738515380859376,10.376470565795898,1.170764684677124,-1.482010841369629
1732873148104525300,8.748525390625,10.074800491333008,1.0845733880996704,-1.460463047027588
1732873148114504400,8.75850439453125,9.588777542114258,0.8140285611152649,-1.482010841369629
1732873148124514000,8.76851416015625,9.38048267364502,0.6847416758537292,-1.4053963422775269
1732873148134524000,8.77852392578125,9.399636268615723,0.6153098344802856,-1.292868971824646
1732873148144503300,8.78850341796875,9.418789863586426,0.6607996821403503,-1.1037269830703735
1732873148154513000,8.798512939453126,9.313444137573242,0.6177040338516235,-1.1204863786697388
1732873148164522800,8.808522705078126,9.232041358947754,0.6703764796257019,-1.2449848651885986
1732873148174502100,8.818502197265625,9.11233139038086,0.871489405632019,-1.4628572463989258
1732873148184511700,8.82851171875,9.332598686218262,1.0103530883789062,-1.4221558570861816
1732873148194521600,8.838521484375,9.859322547912598,0.8667010068893433,-0.9552865028381348
1732873148204500700,8.848500732421876,11.729193687438965,0.4381389021873474,0.5674257874488831
1732873148214510300,8.85851025390625,11.832144737243652,0.5099649429321289,-0.05267243832349777
1732873148224520200,8.868520263671876,11.645397186279297,0.45250412821769714,-0.5482721924781799
1732873148234530000,8.878530029296876,11.389217376708984,0.2944868206977844,-0.6631938815116882
1732873148244509400,8.888509521484375,11.05642318725586,0.05027823522686958,-0.9600749015808105
1732873148254519000,8.89851904296875,11.0300874710083,-0.1628057211637497,-1.534683346748352
1732873148264529000,8.90852880859375,11.27190113067627,-0.569819986820221,-2.070984363555908
1732873148274508300,8.91850830078125,11.63342571258545,-0.7852981686592102,-2.408566951751709
1732873148284518000,8.928517822265626,11.99255657196045,-0.8331822156906128,-2.473210334777832
1732873148294527500,8.938527587890626,12.0021333694458,-0.8427590131759644,-2.3343467712402344
1732873148304507000,8.9485068359375,11.870451927185059,-0.7805097699165344,-1.8171991109848022
1732873148314516500,8.9585166015625,11.5065336227417,-0.5171475410461426,-1.2234370708465576
1732873148324526300,8.9685263671875,10.967838287353516,-0.24899697303771973,-0.8403648138046265
1732873148334505700,8.978505615234376,10.204087257385254,0.1149216815829277,-0.4357447028160095
1732873148344515300,8.988515380859376,9.548076629638672,0.5051765441894531,-0.10055647045373917
1732873148354525200,8.998525146484376,8.832210540771484,0.7445967197418213,0.49799394607543945
1732873148364504600,9.008504638671875,8.336610794067383,0.9074024558067322,0.8930372595787048
1732873148374514200,9.01851416015625,7.623138427734375,1.01753568649292,1.1109095811843872
1732873148384524000,9.02852392578125,7.16584587097168,0.9289502501487732,1.3551181554794312
1732873148394503200,9.038503173828126,7.173028469085693,0.6655880808830261,1.316810965538025
1732873148404513000,9.048512939453126,7.568071365356445,0.4836287498474121,0.7326257228851318
1732873148414523000,9.05852294921875,7.999027729034424,0.4405331015586853,0.023942016065120697
1732873148424502000,9.068501953125,8.355764389038086,0.40222588181495667,-0.5770025849342346
1732873148434511600,9.07851171875,8.686163902282715,0.40940847992897034,-0.5578489899635315
1732873148444521500,9.088521484375,8.884882926940918,0.45489832758903503,-0.3208230137825012
1732873148454500900,9.0985009765625,8.882488250732422,0.5961562395095825,-0.11252748221158981
1732873148464510500,9.108510498046876,9.028534889221191,0.9768342971801758,-0.1604115068912506
1732873148474520300,9.118520263671876,9.050082206726074,1.1037269830703735,0.2753331959247589
1732873148484530200,9.1285302734375,8.875306129455566,1.5155296325683594,0.8403648138046265
1732873148494509300,9.13850927734375,9.071630477905273,1.721431016921997,0.8068459630012512
1732873148504519200,9.148519287109375,9.591172218322754,1.6687586307525635,0.45250412821769714
1732873148514529000,9.158529052734375,10.201693534851074,1.6519991159439087,0.21308395266532898
1732873148524508000,9.1685078125,10.76193618774414,1.7046716213226318,0.07661445438861847
1732873148534517800,9.178517822265626,11.33654499053955,1.6160861253738403,0.026336219161748886
1732873148544527600,9.188527587890626,11.762712478637695,1.6089035272598267,-0.3280056416988373
1732873148554507000,9.198507080078125,12.143390655517578,1.4891934394836426,-0.7733271718025208
1732873148564516600,9.2085166015625,12.552799224853516,1.434126853942871,-0.9217676520347595
1732873148574526500,9.2185263671875,12.70602798461914,1.455674648284912,-0.9576807022094727
1732873148584505600,9.228505615234376,12.627019882202148,1.5705963373184204,-0.8834604024887085
1732873148594515500,9.238515380859376,12.222399711608887,1.721431016921997,-0.7733271718025208
1732873148604525300,9.248525390625,11.57596492767334,1.7836803197860718,-0.7038952708244324
1732873148614504400,9.25850439453125,10.69489860534668,1.7717092037200928,-0.545877993106842
1732873148624514000,9.26851416015625,10.053253173828125,1.8076223134994507,-0.6607996821403503
1732873148634524000,9.27852392578125,9.720458984375,1.7405846118927002,-0.7637503147125244
1732873148644503300,9.28850341796875,9.715670585632324,1.4676456451416016,-0.5889736413955688
1732873148654513000,9.298512939453126,9.983820915222168,1.216254472732544,-0.2298433631658554
1732873148664522800,9.308522705078126,10.158597946166992,0.912190854549408,0.002394201699644327
1732873148674502100,9.318502197265625,9.847352027893066,0.7374141216278076,0.05746084079146385
1732873148684511700,9.32851171875,9.220070838928223,0.7182605266571045,0.5267243981361389
1732873148694521600,9.338521484375,8.607154846191406,0.6224924325942993,0.6512228846549988
1732873148704500700,9.348500732421876,8.039729118347168,0.5889736413955688,0.6488286852836609
1732873148714510300,9.35851025390625,7.453149795532227,0.5315127968788147,0.16519992053508759
1732873148724520200,9.368520263671876,7.1921820640563965,0.5291185975074768,0.38546648621559143
1732873148734530000,9.378530029296876,7.096413612365723,0.6177040338516235,0.5530605912208557
1732873148744509400,9.388509521484375,7.309497833251953,0.768538773059845,0.9648633003234863
1732873148754519000,9.39851904296875,7.955932140350342,0.667982280254364,1.5682021379470825
1732873148764529000,9.40852880859375,8.868123054504395,0.42377370595932007,1.8100165128707886
1732873148774508300,9.41850830078125,9.871294021606445,0.3232172429561615,1.525106430053711
1732873148784518000,9.428517822265626,10.776301383972168,0.5434837937355042,1.4245500564575195
1732873148794527500,9.438527587890626,11.195286750793457,0.40940847992897034,1.0606313943862915
1732873148804507000,9.4485068359375,10.90558910369873,-0.13407529890537262,0.3663128614425659
1732873148814516500,9.4585166015625,10.429142951965332,-0.23702596127986908,-0.35913026332855225
1732873148824526300,9.4685263671875,10.340557098388672,-0.38307225704193115,-0.8834604024887085
1732873148834505700,9.478505615234376,10.204087257385254,-0.811634361743927,-1.7190368175506592
1732873148844515300,9.488515380859376,10.323798179626465,-1.1085153818130493,-2.559401512145996
1732873148854525200,9.498525146484376,11.065999984741211,-1.1540051698684692,-2.4899697303771973
1732873148864504600,9.508504638671875,11.918335914611816,-1.1492167711257935,-1.7717092037200928
1732873148874514200,9.51851416015625,12.217611312866211,-0.912190854549408,-1.1875240802764893
1732873148884524000,9.52852392578125,11.860875129699707,-0.7134721279144287,-0.5267243981361389
1732873148894503400,9.53850341796875,10.99656867980957,-0.4812345504760742,-0.45489832758903503
1732873148904513000,9.548512939453126,9.782708168029785,-0.35673606395721436,-0.7637503147125244
1732873148914523000,9.55852294921875,8.71728801727295,-0.1388636976480484,-1.2880805730819702
1732873148924502000,9.568501953125,7.9846625328063965,-0.13407529890537262,-1.6376339197158813
1732873148934511600,9.57851171875,7.441178798675537,-0.5123591423034668,-1.4269442558288574
1732873148944521500,9.588521484375,7.50582218170166,-0.5195417404174805,-1.3072341680526733
1732873148954500900,9.5985009765625,8.549694061279297,0.002394201699644327,-0.9289502501487732
1732873148964510500,9.608510498046876,9.44752025604248,0.4884171485900879,-0.5171475410461426
1732873148974520300,9.618520263671876,9.619902610778809,0.7805097699165344,-0.47405192255973816
1732873148984530200,9.6285302734375,9.23443603515625,1.091755986213684,-0.45010992884635925
1732873148994509300,9.63850927734375,8.310274124145508,1.3455413579940796,-0.4644751250743866
1732873149004519200,9.648519287109375,7.702147006988525,1.6903064250946045,-0.42616790533065796
1732873149014529000,9.658529052734375,7.682993412017822,2.212242364883423,-0.4213795065879822
1732873149024508000,9.6685078125,7.63989782333374,2.205059766769409,-0.730231523513794
1732873149034517800,9.678517822265626,8.169015884399414,2.2002713680267334,-0.7781155705451965
1732873149044527600,9.688527587890626,8.904036521911621,1.8770540952682495,-1.235408067703247
1732873149054507000,9.698507080078125,10.682928085327148,1.5298948287963867,-1.0271124839782715
1732873149064516600,9.7085166015625,12.368446350097656,0.7781155705451965,-0.5793967843055725
1732873149074526500,9.7185263671875,13.594277381896973,0.24181437492370605,-0.5051765441894531
1732873149084505600,9.728505615234376,14.719552040100098,-0.1173158809542656,-0.7038952708244324
1732873149094515500,9.738515380859376,15.614983558654785,-0.2106897532939911,-0.8906430602073669
1732873149104525300,9.748525390625,15.895105361938477,-0.08858546614646912,-1.0223240852355957
1732873149114504400,9.75850439453125,14.935029983520508,0.13168109953403473,-0.849941611289978
1732873149124514000,9.76851416015625,12.856863021850586,0.42856210470199585,-0.6392518281936646
1732873149134524000,9.77852392578125,10.884040832519531,0.7445967197418213,-0.6248866319656372
1732873149144503300,9.78850341796875,9.478644371032715,1.1899182796478271,-0.7182605266571045
1732873149154513000,9.798512939453126,8.35097599029541,1.113303780555725,-0.9241618514060974
1732873149164522800,9.808522705078126,7.577648162841797,1.0773907899856567,-1.2521674633026123
1732873149174502100,9.818502197265625,7.304709434509277,1.0845733880996704,-1.3910311460494995
1732873149184511700,9.82851171875,7.2568254470825195,0.9576807022094727,-1.3958195447921753
1732873149194521600,9.838521484375,7.247248649597168,0.8451532125473022,-1.5275006294250488
1732873149204500700,9.848500732421876,7.2568254470825195,0.8044517636299133,-1.6041151285171509
1732873149214510300,9.85851025390625,7.2783732414245605,0.7206547260284424,-1.623268723487854
1732873149224520200,9.868520263671876,7.4100542068481445,0.7038952708244324,-1.6950948238372803
1732873149234530000,9.878530029296876,7.785943984985352,0.6967126727104187,-1.721431016921997
1732873149244509400,9.888509521484375,8.281543731689453,0.6368576288223267,-1.745373010635376
1732873149254519000,9.89851904296875,8.80587387084961,0.3734954595565796,-1.7334020137786865
1732873149264529000,9.90852880859375,9.23682975769043,0.11971008777618408,-1.7381904125213623
1732873149274508300,9.91850830078125,9.871294021606445,-0.13168109953403473,-1.8818424940109253
1732873149284518000,9.928517822265626,10.639832496643066,-0.3423708379268646,-2.0805611610412598
1732873149294527500,9.938527587890626,11.224017143249512,-0.40940847992897034,-2.2409727573394775
1732873149304507000,9.9485068359375,11.473014831542969,-0.4572925269603729,-2.2577321529388428
1732873149314516500,9.9585166015625,11.30063247680664,-0.3734954595565796,-2.1739351749420166
1732873149324526300,9.9685263671875,11.039664268493652,-0.16759411990642548,-1.9800047874450684
1732873149334505700,9.978505615234376,10.826580047607422,0.06464344263076782,-1.7932571172714233
1732873149344515300,9.988515380859376,10.35252857208252,0.24420857429504395,-1.5849615335464478
1732873149354525200,9.998525146484376,9.921571731567383,0.3208230137825012,-1.316810965538025
1732873149364504600,10.008504638671875,9.373299598693848,0.3758896589279175,-1.0678139925003052
1732873149374514200,10.01851416015625,8.853757858276367,0.3758896589279175,-0.8738836050033569
1732873149384524000,10.02852392578125,8.643068313598633,0.304063618183136,-0.6344634294509888
1732873149394503400,10.03850341796875,8.47547435760498,0.42616790533065796,-0.5602431893348694
1732873149404513000,10.048512939453126,8.269572257995605,0.5027823448181152,-0.5003881454467773
1732873149414523000,10.05852294921875,8.236053466796875,0.6607996821403503,-0.24899697303771973
1732873149424502000,10.068501953125,8.044517517089844,0.730231523513794,0.021547814831137657
1732873149434511600,10.07851171875,7.920019149780273,0.8762778043746948,0.07661445438861847
1732873149444521500,10.088521484375,8.008605003356934,0.8020575642585754,-0.05027823522686958
1732873149454500900,10.0985009765625,8.38688850402832,0.608127236366272,-0.19632454216480255
1732873149464510500,10.108510498046876,9.002198219299316,0.5602431893348694,-0.1604115068912506
1732873149474520300,10.118520263671876,9.823410034179688,0.4836287498474121,0.14844051003456116
1732873149484530200,10.1285302734375,10.723628997802734,0.4213795065879822,0.569819986820221
1732873149494509300,10.13850927734375,11.508927345275879,0.5841852426528931,0.8690952062606812
1732873149504519200,10.148519287109375,11.97100830078125,0.8331822156906128,1.094150185585022
1732873149514529000,10.158529052734375,11.985373497009277,1.1516109704971313,1.256955862045288
1732873149524508000,10.1685078125,11.468226432800293,1.6376339197158813,1.1851298809051514
1732873149534517800,10.178517822265626,10.608707427978516,2.164358377456665,1.1348515748977661
1732873149544527600,10.188527587890626,9.330204010009766,2.4684219360351562,1.2665326595306396
1732873149554507000,10.198507080078125,8.418013572692871,2.8610711097717285,1.1276689767837524
1732873149564516600,10.2085166015625,7.797914981842041,3.117250680923462,0.9265560507774353
1732873149574526500,10.2185263671875,7.860164165496826,2.9017724990844727,0.9792284965515137
1732873149584505600,10.228505615234376,8.652645111083984,2.4468741416931152,1.2617442607879639
1732873149594515500,10.238515380859376,10.002974510192871,2.140416383743286,1.5203180313110352
1732873149604525300,10.248525390625,11.338939666748047,1.558625340461731,1.5682021379470825
1732873149614504400,10.25850439453125,13.120224952697754,1.3239935636520386,1.656787633895874
1732873149624514000,10.26851416015625,14.290989875793457,1.1516109704971313,1.3503297567367554
1732873149634524000,10.27852392578125,14.566323280334473,1.094150185585022,1.0438719987869263
1732873149644503300,10.28850341796875,13.599065780639648,1.01753568649292,1.0007762908935547
1732873149654513000,10.298512939453126,11.745953559875488,1.0989385843276978,0.9768342971801758
1732873149664522800,10.308522705078126,10.137049674987793,1.1994950771331787,0.9552865028381348
1732873149674502100,10.318502197265625,8.75080680847168,1.235408067703247,0.9528923034667969
1732873149684511700,10.32851171875,8.010998725891113,1.2258312702178955,0.9385270476341248
1732873149694521600,10.338521484375,7.352593421936035,1.2617442607879639,0.5339069962501526
1732873149704500700,10.348500732421876,7.007828235626221,1.2617442607879639,0.2777273952960968
1732873149714510300,10.35851025390625,7.024587631225586,1.237802267074585,0.3471592366695404
1732873149724520200,10.368520263671876,7.321468830108643,1.3072341680526733,0.5051765441894531
1732873149734530000,10.378530029296876,7.572859764099121,1.45806884765625,0.4692635238170624
1732873149744509400,10.388509521484375,7.694964408874512,1.53707754611969,0.5770025849342346
1732873149754519000,10.39851904296875,7.7213006019592285,1.5466543436050415,0.6584054827690125
1732873149764529000,10.40852880859375,7.738059997558594,1.5634137392044067,0.6536170840263367
1732873149774508300,10.41850830078125,7.836222171783447,1.4867992401123047,0.7182605266571045
1732873149784518000,10.428517822265626,8.255207061767578,1.460463047027588,0.6799532771110535
1732873149794527500,10.438527587890626,8.549694061279297,1.4293384552001953,0.5363011956214905
1732873149804507000,10.4485068359375,9.006986618041992,1.2713210582733154,0.4572925269603729
1732873149814516500,10.4585166015625,9.35893440246582,1.1252747774124146,0.33039984107017517
1732873149824526300,10.4685263671875,9.914389610290527,0.871489405632019,0.2082955539226532
1732873149834505700,10.478505615234376,10.529699325561523,0.7086837291717529,0.043095629662275314
1732873149844515300,10.488515380859376,10.790667533874512,0.9217676520347595,-0.5147533416748047
1732873149854525200,10.498525146484376,11.08754825592041,0.7230489253997803,-0.1388636976480484
1732873149864504600,10.508504638671875,11.070788383483887,0.871489405632019,-0.22505496442317963
1732873149874514200,10.51851416015625,10.596736907958984,1.235408067703247,-0.6392518281936646
1732873149884524000,10.52852392578125,9.378087997436523,1.2330138683319092,-0.8786720037460327
1732873149894503400,10.53850341796875,7.829039573669434,1.2497732639312744,-0.9433154463768005
1732873149904513000,10.548512939453126,6.670246124267578,1.1755530834197998,-1.1659762859344482
1732873149914523000,10.55852294921875,6.078877925872803,0.8571242094039917,-1.6400281190872192
1732873149924502000,10.568501953125,6.53377628326416,0.5123591423034668,-1.8818424940109253
1732873149934511600,10.57851171875,8.44434928894043,0.3495534360408783,-1.5753847360610962
1732873149944521500,10.588521484375,10.623072624206543,0.16998831927776337,-1.0893617868423462
1732873149954500900,10.5985009765625,12.562376022338867,0.3232172429561615,-0.4429273009300232
1732873149964510500,10.608510498046876,13.510479927062988,0.6703764796257019,-0.0071826050989329815
1732873149974520300,10.618520263671876,13.381193161010742,1.1420341730117798,0.5003881454467773
1732873149984530200,10.6285302734375,12.033257484436035,1.3551181554794312,0.8092401623725891
1732873149994509300,10.63850927734375,10.563218116760254,1.522712230682373,0.8259995579719543
1732873150004519200,10.648519287109375,9.282320022583008,1.8770540952682495,0.43335050344467163
1732873150014529000,10.658529052734375,8.635885238647461,1.9536685943603516,-0.023942016065120697
1732873150024508000,10.6685078125,8.49941635131836,1.7764976024627686,-0.3280056416988373
1732873150034517800,10.678517822265626,8.939949035644531,1.577778935432434,-0.5722141861915588
1732873150044527600,10.688527587890626,9.928754806518555,1.2952631711959839,-0.8236053586006165
1732873150054507000,10.698507080078125,10.96544361114502,0.9002198576927185,-0.8810662031173706
1732873150064516600,10.7085166015625,12.428300857543945,0.9361328482627869,-0.45010992884635925
1732873150074526500,10.7185263671875,13.977349281311035,0.9361328482627869,-0.10773907601833344
1732873150084505600,10.728505615234376,14.85123348236084,0.9624691009521484,0.12449848651885986
1732873150094515500,10.738515380859376,14.92066478729248,1.0103530883789062,0.3471592366695404
1732873150104525300,10.748525390625,14.044386863708496,1.072602391242981,0.5051765441894531
1732873150114504400,10.75850439453125,12.411541938781738,1.1659762859344482,0.5626373887062073
1732873150124514000,10.76851416015625,10.735600471496582,1.3072341680526733,0.27054479718208313
1732873150134524000,10.77852392578125,8.947132110595703,1.41257905960083,-0.26815059781074524
1732873150144503300,10.78850341796875,7.857769966125488,1.5442601442337036,-0.768538773059845
1732873150154513000,10.798512939453126,7.079654216766357,1.6136919260025024,-1.0797849893569946
1732873150164522800,10.808522705078126,6.756437301635742,1.6160861253738403,-1.1013327836990356
1732873150174502100,10.818502197265625,6.7277069091796875,1.4652514457702637,-1.0869675874710083
1732873150184511700,10.82851171875,7.321468830108643,1.1228805780410767,-0.7733271718025208
1732873150194521600,10.838521484375,8.382100105285645,0.7805097699165344,-0.48602294921875
1732873150204500700,10.848500732421876,9.674968719482422,0.5291185975074768,-0.4644751250743866
1732873150214510300,10.85851025390625,10.5344877243042,0.2585737705230713,-0.507570743560791
1732873150224520200,10.868520263671876,10.915165901184082,0.011971008032560349,-0.608127236366272
1732873150234530000,10.878530029296876,10.81460952758789,-0.1173158809542656,-0.6177040338516235
1732873150244509400,10.888509521484375,10.216058731079102,-0.014365210197865963,-0.9074024558067322
1732873150254519000,10.89851904296875,9.299078941345215,0.14844051003456116,-1.1540051698684692
1732873150264529000,10.90852880859375,8.398859977722168,0.3711012601852417,-1.338358759880066
1732873150274508300,10.91850830078125,7.965508937835693,0.5626373887062073,-1.5466543436050415
1732873150284518000,10.928517822265626,7.999027729034424,0.7493851184844971,-1.5705963373184204
1732873150294527500,10.938527587890626,8.35336971282959,0.8331822156906128,-1.4532804489135742
1732873150304507000,10.9485068359375,8.705317497253418,0.8619126081466675,-1.259350061416626
1732873150314516500,10.9585166015625,9.011775016784668,0.9911994934082031,-1.1324573755264282
1732873150324526300,10.9685263671875,8.858546257019043,0.9241618514060974,-1.2617442607879639
1732873150334505700,10.978505615234376,8.616731643676758,0.8858546018600464,-1.0654197931289673
1732873150344515300,10.988515380859376,8.398859977722168,0.933738648891449,-0.9672574996948242
1732873150354525200,10.998525146484376,8.195352554321289,0.871489405632019,-0.9433154463768005
1732873150364504600,11.008504638671875,8.238448143005371,0.7852981686592102,-0.8978256583213806
1732873150374514200,11.01851416015625,8.367734909057617,0.727837324142456,-0.9696516990661621
1732873150384524000,11.02852392578125,8.401253700256348,0.768538773059845,-1.0893617868423462
1732873150394503400,11.03850341796875,8.339004516601562,0.811634361743927,-1.2114660739898682
1732873150404513000,11.048512939453126,8.360552787780762,0.8403648138046265,-1.3455413579940796
1732873150414523000,11.05852294921875,8.592789649963379,0.828393816947937,-1.3766659498214722
1732873150424502000,11.068501953125,9.042900085449219,0.8738836050033569,-1.0773907899856567
1732873150434511600,11.07851171875,9.50498104095459,0.8403648138046265,-0.6847416758537292
1732873150444521500,11.088521484375,10.062829971313477,0.790086567401886,-0.3256114423274994
1732873150454500900,11.0985009765625,10.611102104187012,0.706289529800415,0.047884032130241394
1732873150464510500,11.108510498046876,11.504138946533203,0.7541735172271729,0.6488286852836609
1732873150474520300,11.118520263671876,12.229581832885742,0.7852981686592102,0.7709329724311829
1732873150484530200,11.1285302734375,12.720393180847168,1.1683704853057861,1.2018892765045166
1732873150494509300,11.13850927734375,12.433089256286621,1.4269442558288574,1.4460978507995605
1732873150504519200,11.148519287109375,11.45146656036377,1.6280571222305298,1.3886369466781616
1732873150514529000,11.158529052734375,10.11789608001709,1.845929503440857,0.871489405632019
1732873150524508000,11.1685078125,9.184157371520996,1.9321208000183105,0.5841852426528931
1732873150534517800,11.178517822265626,8.678980827331543,1.7741034030914307,0.7230489253997803
1732873150544527600,11.188527587890626,9.02135181427002,1.4867992401123047,0.9983820915222168
1732873150554507000,11.198507080078125,10.237606048583984,1.0534487962722778,1.2401964664459229
1732873150564516600,11.2085166015625,11.686098098754883,0.8403648138046265,1.1875240802764893
1732873150574526500,11.2185263671875,13.096282958984375,0.5530605912208557,1.1755530834197998
1732873150584505600,11.228505615234376,13.73074722290039,0.6033388376235962,0.9385270476341248
1732873150594515500,11.238515380859376,13.67807388305664,0.9097966551780701,0.6967126727104187
1732873150604525300,11.248525390625,12.830527305603027,1.1851298809051514,0.629675030708313
1732873150614504400,11.25850439453125,11.346121788024902,1.5921441316604614,0.7805097699165344
1732873150624514000,11.26851416015625,9.892841339111328,2.0231003761291504,0.7589619159698486
1732873150634524000,11.27852392578125,8.999804496765137,2.360682964324951,0.6799532771110535
1732873150644503300,11.28850341796875,8.62391471862793,2.762908697128296,0.7661445140838623
1732873150654513000,11.298512939453126,8.224082946777344,2.7437551021575928,0.4884171485900879
1732873150664522800,11.308522705078126,7.967903137207031,2.6431987285614014,0.33997663855552673
1732873150674502100,11.318502197265625,7.8529815673828125,2.403778553009033,0.4429273009300232
1732873150684511700,11.32851171875,8.178592681884766,2.1954829692840576,0.5051765441894531
1732873150694521600,11.338521484375,8.47786808013916,1.9800047874450684,0.2825157940387726
1732873150704500700,11.348500732421876,8.53532886505127,1.702277421951294,-0.0694318488240242
1732873150714510300,11.35851025390625,8.31985092163086,1.5442601442337036,-0.12210428714752197
1732873150724520200,11.368520263671876,8.164227485656738,1.3766659498214722,-0.028730420395731926
1732873150734530000,11.378530029296876,8.195352554321289,1.2306196689605713,-0.040701430290937424
1732873150744509400,11.388509521484375,8.432378768920898,1.1228805780410767,-0.047884032130241394
1732873150754519000,11.39851904296875,8.884882926940918,0.950498104095459,0.14844051003456116
1732873150764529000,11.40852880859375,9.390059471130371,0.8643068075180054,0.47165772318840027
1732873150774508300,11.41850830078125,9.830592155456543,0.8092401623725891,0.730231523513794
1732873150784518000,11.428517822265626,9.947908401489258,0.8068459630012512,0.8810662031173706
1732873150794527500,11.438527587890626,9.84495735168457,0.9265560507774353,0.8667010068893433
1732873150804507000,11.4485068359375,9.50498104095459,1.0414776802062988,0.9097966551780701
1732873150814516700,11.458516845703125,9.023746490478516,1.1348515748977661,0.9193734526634216
1732873150824526300,11.4685263671875,8.765172004699707,1.2114660739898682,0.8355764150619507
1732873150834505700,11.478505615234376,8.62630844116211,1.1875240802764893,0.7829039692878723
1732873150844515300,11.488515380859376,8.662221908569336,1.1492167711257935,0.6847416758537292
1732873150854525200,11.498525146484376,8.769960403442383,1.1540051698684692,0.7206547260284424
1732873150864504600,11.508504638671875,8.731653213500977,1.2234370708465576,0.7182605266571045
1732873150874514200,11.51851416015625,8.53532886505127,1.3670891523361206,0.730231523513794
1732873150884524000,11.52852392578125,8.29830265045166,1.556231141090393,0.8595184087753296
1732873150894503400,11.53850341796875,8.008605003356934,1.7693150043487549,0.7589619159698486
1732873150904513000,11.548512939453126,7.558494567871094,1.886630892753601,0.5961562395095825
1732873150914523000,11.55852294921875,7.134721279144287,1.8195933103561401,0.44771572947502136
1732873150924502000,11.568501953125,7.024587631225586,1.5298948287963867,0.1867477297782898
1732873150934511600,11.57851171875,7.362170219421387,1.0199298858642578,0.009576806798577309
1732873150944521500,11.588521484375,8.465897560119629,0.21547815203666687,0.08619125932455063
1732873150954500900,11.5985009765625,10.290278434753418,-0.3280056416988373,0.14844051003456116
1732873150964510500,11.608510498046876,12.057199478149414,-0.3232172429561615,-0.10773907601833344
1732873150974520300,11.618520263671876,13.256694793701172,-0.0694318488240242,-0.363918662071228
1732873150984530200,11.6285302734375,13.03403377532959,0.47165772318840027,-0.6320692300796509
1732873150994509600,11.638509521484375,11.224017143249512,1.2449848651885986,-0.9217676520347595
1732873151004519200,11.648519287109375,9.196128845214844,1.745373010635376,-0.9528923034667969
1732873151014529000,11.658529052734375,7.180211067199707,2.365471363067627,-1.1516109704971313
1732873151024508000,11.6685078125,6.172252178192139,2.779668092727661,-1.4748282432556152
1732873151034517800,11.678517822265626,6.157886981964111,2.449268341064453,-1.2856862545013428
1732873151044527600,11.688527587890626,7.508216381072998,1.699883222579956,-0.9888052940368652
1732873151054507000,11.698507080078125,9.914389610290527,0.6847416758537292,-0.6991068720817566
1732873151064516600,11.7085166015625,13.007698059082031,-0.38307225704193115,-0.5291185975074768
1732873151074526500,11.7185263671875,15.986084938049316,-0.9265560507774353,-0.6368576288223267
1732873151084505600,11.728505615234376,18.11931800842285,-1.0678139925003052,-0.8762778043746948
1732873151094515500,11.738515380859376,19.115306854248047,-0.5722141861915588,-0.933738648891449
1732873151104525300,11.748525390625,17.671602249145508,-0.016759412363171577,-0.7781155705451965
1732873151114504400,11.75850439453125,14.982913970947266,0.5195417404174805,-0.768538773059845
1732873151124514000,11.76851416015625,11.836933135986328,0.9097966551780701,-0.3495534360408783
1732873151134524000,11.77852392578125,9.72285270690918,1.4700398445129395,-0.3471592366695404
1732873151144503300,11.78850341796875,8.29830265045166,2.056619167327881,-0.5937620401382446
1732873151154513000,11.798512939453126,7.441178798675537,1.8770540952682495,-0.6607996821403503
1732873151164522800,11.808522705078126,7.3238630294799805,1.6376339197158813,-0.7781155705451965
1732873151174502100,11.818502197265625,7.527369976043701,1.3910311460494995,-0.9720458984375
1732873151184511700,11.82851171875,7.623138427734375,1.0319008827209473,-1.0462661981582642
1732873151194521600,11.838521484375,7.838616371154785,0.6200982332229614,-0.9552865028381348
1732873151204500700,11.848500732421876,7.979874134063721,0.3902548849582672,-1.0462661981582642
1732873151214510300,11.85851025390625,8.20732307434082,0.19153612852096558,-1.1037269830703735
1732873151224520200,11.868520263671876,8.40843677520752,0.08379705995321274,-1.091755986213684
1732873151234530000,11.878530029296876,8.53293514251709,0.014365210197865963,-1.0582371950149536
1732873151244509400,11.888509521484375,8.640673637390137,0.028730420395731926,-1.015141487121582
1732873151254519000,11.89851904296875,8.588001251220703,0.14844051003456116,-1.0534487962722778
1732873151264529000,11.90852880859375,8.489839553833008,0.2513911724090576,-1.1994950771331787
1732873151274508300,11.91850830078125,8.530540466308594,0.33279404044151306,-1.4245500564575195
1732873151284518000,11.928517822265626,8.98543930053711,0.3471592366695404,-1.599326729774475
1732873151294527500,11.938527587890626,9.5624418258667,0.38067805767059326,-1.7501614093780518
1732873151304507000,11.9485068359375,10.362105369567871,0.4644751250743866,-1.7094600200653076
1732873151314516700,11.958516845703125,10.958261489868164,0.5147533416748047,-1.5849615335464478
1732873151324526300,11.9685263671875,11.188104629516602,0.5339069962501526,-1.3766659498214722
1732873151334505700,11.978505615234376,11.001357078552246,0.6057330369949341,-1.216254472732544
1732873151344515300,11.988515380859376,10.371682167053223,0.6344634294509888,-1.0079588890075684
1732873151354525200,11.998525146484376,9.634267807006836,0.7015010714530945,-0.8307880163192749
1732873151364504600,12.008504638671875,8.995016098022461,0.8259995579719543,-0.7805097699165344
1732873151374514200,12.01851416015625,8.793902397155762,0.9672574996948242,-0.7038952708244324
1732873151384327200,12.0283271484375,8.880094528198242,1.1085153818130493,-0.5195417404174805
1732873151394306300,12.038306396484375,9.131484985351562,1.2234370708465576,-0.19153612852096558
1732873151404316000,12.04831591796875,9.346963882446289,1.1420341730117798,0.08619125932455063
1732873151414325800,12.05832568359375,9.567230224609375,1.036689281463623,0.36152446269989014
1732873151424305200,12.06830517578125,9.86889934539795,0.9217676520347595,0.4141969084739685
1732873151434314800,12.078314697265625,10.32858657836914,0.6775590777397156,0.524330198764801
1732873151444324600,12.08832470703125,10.802638053894043,0.6631938815116882,0.45010992884635925
1732873151454304000,12.098303955078125,10.989385604858398,0.7445967197418213,0.42377370595932007
1732873151464313600,12.108313720703125,10.776301383972168,0.8164227604866028,0.5363011956214905
1732873151474323500,12.118323486328125,10.26394271850586,1.0678139925003052,0.790086567401886
1732873151484333000,12.1283330078125,9.59835433959961,1.3120225667953491,0.8882488012313843
1732873151494312200,12.138312255859375,8.901641845703125,1.556231141090393,0.9002198576927185
1732873151504322000,12.148322021484375,8.508993148803711,1.7932571172714233,0.9528923034667969
1732873151514332000,12.158331787109375,8.413225173950195,2.049436569213867,0.912190854549408
1732873151524311000,12.16831103515625,8.374917984008789,2.2864625453948975,0.9576807022094727
1732873151534321000,12.17832080078125,8.310274124145508,2.3582887649536133,0.9600749015808105
1732873151544330800,12.188330810546875,8.44434928894043,2.252943754196167,0.9097966551780701
1732873151554310100,12.19831005859375,8.937555313110352,1.922544002532959,0.912190854549408
1732873151564319700,12.20831982421875,9.734824180603027,1.4389152526855469,0.7948749661445618
1732873151574329600,12.21832958984375,10.795455932617188,0.9433154463768005,0.7374141216278076
1732873151584308500,12.22830859375,12.533645629882812,0.5985504388809204,0.43095630407333374
1732873151594318300,12.238318359375,14.113819122314453,0.5339069962501526,0.3064578175544739
1732873151604328200,12.248328125,14.913482666015625,0.7493851184844971,0.1604115068912506
1732873151614307600,12.2583076171875,14.058752059936523,1.1348515748977661,0.07661445438861847
1732873151624317200,12.268317138671875,12.224793434143066,1.5873557329177856,0.014365210197865963
1732873151634327000,12.2783271484375,10.022128105163574,2.032677173614502,0.20111294090747833
1732873151644306400,12.288306396484375,8.607154846191406,2.425326347351074,0.5363011956214905
1732873151654316000,12.29831591796875,7.680599212646484,2.7317841053009033,0.7829039692878723
1732873151664326000,12.308325927734375,7.38132381439209,2.5330653190612793,1.0845733880996704
1732873151674305000,12.318304931640625,7.709329605102539,2.233790159225464,1.2617442607879639
1732873151684314600,12.328314697265625,8.341399192810059,1.8555063009262085,1.235408067703247
1732873151694324500,12.338324462890625,8.992621421813965,1.3335703611373901,1.1851298809051514
1732873151704303900,12.348303955078125,9.406818389892578,0.9888052940368652,1.1061211824417114
1732873151714313500,12.3583134765625,9.742006301879883,0.6368576288223267,1.158793568611145
1732873151724323300,12.3683232421875,9.734824180603027,0.45250412821769714,1.0845733880996704
1732873151734333200,12.378333251953125,9.658209800720215,0.3280056416988373,0.9576807022094727
1732873151744312600,12.3883125,9.509769439697266,0.3208230137825012,0.9145850539207458
1732873151754322200,12.398322265625,9.406818389892578,0.5506663918495178,0.7038952708244324
1732873151764331800,12.408331787109375,9.423578262329102,0.7326257228851318,0.47644615173339844
1732873151774311200,12.418311279296875,9.737217903137207,0.9624691009521484,0.395043283700943
1732873151784320800,12.42832080078125,10.266336441040039,0.9768342971801758,0.40462008118629456
1732873151794330600,12.43833056640625,10.673351287841797,0.9552865028381348,0.6799532771110535
1732873151804310000,12.44831005859375,10.860098838806152,1.01753568649292,0.8643068075180054
1732873151814319600,12.458319580078125,10.737994194030762,1.0845733880996704,0.9241618514060974
1732873151824329500,12.46832958984375,10.44350814819336,0.9385270476341248,1.3239935636520386
1732873151834308900,12.478308837890625,10.029311180114746,0.8547300100326538,1.7190368175506592
1732873151844318500,12.488318359375,9.50737476348877,0.9457096457481384,1.900996208190918
1732873151854328300,12.498328369140625,8.856152534484863,0.9289502501487732,1.9057846069335938
1732873151864307700,12.5083076171875,8.305485725402832,0.9983820915222168,1.8626888990402222
1732873151874317300,12.5183173828125,7.773972988128662,1.3694833517074585,1.2473790645599365
1732873151884327200,12.5283271484375,7.558494567871094,1.556231141090393,0.7829039692878723
1732873151894306300,12.538306396484375,7.422025203704834,1.556231141090393,0.43095630407333374
1732873151904316000,12.54831591796875,7.46033239364624,1.5155296325683594,0.26096799969673157
1732873151914325800,12.55832568359375,7.608773231506348,1.5682021379470825,-0.0454898327589035
1732873151924305200,12.56830517578125,7.795520782470703,1.53707754611969,-0.2968810200691223
1732873151934314800,12.578314697265625,8.154650688171387,1.381454348564148,-0.569819986820221
1732873151944324600,12.58832470703125,8.705317497253418,1.1276689767837524,-0.6512228846549988
1732873151954304000,12.598303955078125,9.557653427124023,0.933738648891449,-0.5913678407669067
1732873151964313600,12.608313720703125,10.845733642578125,0.9433154463768005,-0.4381389021873474
1732873151974323500,12.618323486328125,12.148179054260254,1.0031704902648926,-0.22505496442317963
1732873151984333000,12.6283330078125,13.390769958496094,1.1971008777618408,-0.11013327538967133
1732873151994312200,12.638312255859375,13.761871337890625,1.4724340438842773,-0.31124621629714966
1732873152004322000,12.648322021484375,13.060370445251465,1.8842366933822632,-0.5602431893348694
1732873152014332000,12.658331787109375,11.365275382995605,2.31758713722229,-1.0271124839782715
1732873152024311000,12.66831103515625,8.702922821044922,2.7700912952423096,-1.699883222579956
1732873152034321000,12.67832080078125,6.354211330413818,3.117250680923462,-2.3558945655822754
1732873152044330800,12.688330810546875,4.089296340942383,3.1100680828094482,-3.093308687210083
1732873152054310100,12.69831005859375,3.536235809326172,2.279279947280884,-2.7485435009002686
1732873152064319700,12.70831982421875,5.1810526847839355,2.0207061767578125,-1.1037269830703735
1732873152074329600,12.71832958984375,7.230489253997803,1.7693150043487549,-0.8164227604866028
1732873152084308500,12.72830859375,8.932766914367676,1.6424223184585571,-1.4891934394836426
1732873152094318300,12.738318359375,11.240777015686035,1.659181833267212,-1.9105730056762695
1732873152104328200,12.748328125,12.830527305603027,1.7812861204147339,-1.8914192914962769
1732873152114307600,12.7583076171875,13.623007774353027,1.8986018896102905,-1.6687586307525635
1732873152124317200,12.768317138671875,13.259089469909668,1.8291701078414917,-1.5298948287963867
1732873152134327000,12.7783271484375,12.289437294006348,1.8148049116134644,-1.8148049116134644
1732873152144306400,12.788306396484375,11.221623420715332,1.8698714971542358,-1.7549498081207275
1732873152154316000,12.79831591796875,9.940725326538086,1.6950948238372803,-1.721431016921997
1732873152164326000,12.808325927734375,8.822632789611816,1.3646949529647827,-1.867477297782898
1732873152174305000,12.818304931640625,8.20732307434082,1.0773907899856567,-1.920149803161621
1732873152184314600,12.828314697265625,7.987056732177734,0.9792284965515137,-1.845929503440857
1732873152194324500,12.838324462890625,8.066065788269043,0.8882488012313843,-1.580173134803772
1732873152204304000,12.848303955078125,8.288725852966309,0.6392518281936646,-1.048660397529602
1732873152214313500,12.8583134765625,8.487444877624512,0.45010992884635925,-0.16998831927776337
1732873152224323300,12.8683232421875,8.528146743774414,0.6200982332229614,0.44771572947502136
1732873152234333200,12.878333251953125,8.389283180236816,0.26096799969673157,1.5490485429763794
1732873152244312600,12.8883125,8.145073890686035,0.9169792532920837,1.1444283723831177
1732873152254322200,12.898322265625,7.91283655166626,1.482010841369629,-0.23702596127986908
1732873152264331800,12.908331787109375,7.5417351722717285,1.53707754611969,-2.013523578643799
1732873152274311200,12.918311279296875,7.503427982330322,1.5107412338256836,-3.112462282180786
1732873152284320800,12.92832080078125,8.224082946777344,1.845929503440857,-3.5386300086975098
1732873152294330600,12.93833056640625,9.277531623840332,1.9536685943603516,-3.3423056602478027
1732873152304310000,12.94831005859375,10.201693534851074,1.8052281141281128,-2.7317841053009033
1732873152314319600,12.958319580078125,10.986991882324219,1.2042834758758545,-1.7381904125213623
1732873152324329500,12.96832958984375,10.81460952758789,0.6129156351089478,-1.072602391242981
1732873152334308900,12.978308837890625,9.907206535339355,0.3256114423274994,-0.7996633648872375
1732873152344318500,12.988318359375,8.793902397155762,0.44532153010368347,-0.9457096457481384
1732873152354328300,12.998328369140625,7.608773231506348,0.646434485912323,-1.4484920501708984
1732873152364307700,13.0083076171875,6.885724067687988,0.7805097699165344,-1.7046716213226318
1732873152374317300,13.0183173828125,6.672640323638916,0.9672574996948242,-1.6903064250946045
1732873152384327200,13.0283271484375,7.347805023193359,1.3072341680526733,-1.1994950771331787
1732873152394306300,13.038306396484375,8.154650688171387,1.5634137392044067,-0.5841852426528931
1732873152404316000,13.04831591796875,9.30386734008789,1.6089035272598267,-0.45489832758903503
1732873152414325800,13.05832568359375,9.974244117736816,1.4293384552001953,-0.6320692300796509
1732873152424305200,13.06830517578125,10.369287490844727,1.259350061416626,-0.7541735172271729
1732873152434314800,13.078314697265625,10.618284225463867,1.0582371950149536,-0.4213795065879822
1732873152444324600,13.08832470703125,11.063606262207031,1.2952631711959839,0.14365209639072418
1732873152454304000,13.098303955078125,11.647790908813477,1.9321208000183105,1.0031704902648926
1732873152464313600,13.108313720703125,11.386823654174805,2.5689783096313477,2.1140801906585693
1732873152474323500,13.118323486328125,10.898406028747559,2.9712042808532715,1.9967641830444336
1732873152484333000,13.1283330078125,10.931924819946289,2.9544448852539062,1.742978811264038
1732873152494312200,13.138312255859375,11.27190113067627,2.542642116546631,1.7501614093780518
1732873152504322000,13.148322021484375,11.70046329498291,2.0590133666992188,1.4963760375976562
1732873152514332000,13.158331787109375,11.927912712097168,1.036689281463623,1.723825216293335
1732873152524311000,13.16831103515625,12.476184844970703,0.040701430290937424,1.235408067703247
1732873152534321000,13.17832080078125,13.989320755004883,-0.26336219906806946,1.41257905960083
1732873152544330800,13.188330810546875,14.800954818725586,-0.12689268589019775,1.7166426181793213
1732873152554310100,13.19831005859375,14.45619010925293,0.06464344263076782,1.8411411046981812
1732873152564319700,13.20831982421875,13.407529830932617,0.3663128614425659,1.8507179021835327
1732873152574329600,13.21832958984375,11.458649635314941,0.7254431247711182,1.8171991109848022
1732873152584308500,13.22830859375,9.641449928283691,1.1252747774124146,1.6759412288665771
1732873152594318300,13.238318359375,8.245630264282227,1.623268723487854,1.4676456451416016
1732873152604328200,13.248328125,7.287950038909912,1.9129672050476074,1.4317326545715332
1732873152614307600,13.2583076171875,7.074865818023682,2.030282974243164,1.625662922859192
1732873152624317200,13.268317138671875,7.438784599304199,1.7980455160140991,2.0374655723571777
1732873152634327000,13.2783271484375,8.300697326660156,1.50355863571167,2.274491548538208
1732873152644306400,13.288306396484375,9.708487510681152,1.070208191871643,1.9943699836730957
1732873152654316000,13.29831591796875,10.917559623718262,0.5602431893348694,1.7190368175506592
1732873152664326000,13.308325927734375,11.836933135986328,0.023942016065120697,1.6879122257232666
1732873152674305000,13.318304931640625,11.741165161132812,-0.22026655077934265,1.5682021379470825
1732873152684314600,13.328314697265625,10.81460952758789,-0.14844051003456116,1.0630255937576294
1732873152694324500,13.338324462890625,9.849745750427246,-0.05985504388809204,0.6775590777397156
1732873152704303900,13.348303955078125,8.916007041931152,0.10055647045373917,0.30885201692581177
1732873152714313500,13.3583134765625,8.463502883911133,0.37828385829925537,0.3064578175544739
1732873152724323300,13.3683232421875,8.307879447937012,0.5913678407669067,0.6248866319656372
1732873152734333200,13.378333251953125,8.451532363891602,0.6272808313369751,0.9050082564353943
1732873152744312600,13.3883125,8.913613319396973,0.5841852426528931,0.993593692779541
1732873152754322200,13.398322265625,9.543288230895996,0.5267243981361389,0.7493851184844971
1732873152764331800,13.408331787109375,9.837775230407715,0.42377370595932007,0.6512228846549988
1732873152774311200,13.418311279296875,10.036493301391602,0.3016694188117981,0.6033388376235962
