time,seconds_elapsed,z,y,x
1732873206531964200,0.184964111328125,0.46794700622558594,0.06239128112792969,-0.01794964075088501
1732873206542139100,0.19513916015625,0.5698671340942383,0.07429957389831543,0.02827933430671692
1732873206552246000,0.20524609375,0.5771255493164062,0.08083951473236084,0.024052858352661133
1732873206562256000,0.215255859375,0.5292301177978516,0.08531546592712402,0.03944864869117737
1732873206572235000,0.225235107421875,0.36728477478027344,0.11079573631286621,0.06671899557113647
1732873206582244900,0.235244873046875,0.22588539123535156,0.14863502979278564,0.06649219989776611
1732873206592254500,0.24525439453125,0.11434364318847656,0.17126250267028809,0.07168260216712952
1732873206602233900,0.25523388671875,-0.07794475555419922,0.16775286197662354,0.09517820179462433
1732873206612243700,0.26524365234375,-0.33183860778808594,0.1393529176712036,0.04155164957046509
1732873206622253300,0.27525341796875,-0.42101287841796875,0.17126250267028809,-0.02585884928703308
1732873206632232400,0.285232421875,-0.3196229934692383,0.14122843742370605,-0.02832496166229248
1732873206642242300,0.2952421875,-0.1586132049560547,0.08576583862304688,0.019345760345458984
1732873206652252200,0.305252197265625,0.054795265197753906,0.06181788444519043,0.0032666027545928955
1732873206662231300,0.315231201171875,0.11723613739013672,-0.021158695220947266,-0.012850970029830933
1732873206672241200,0.3252412109375,0.16722869873046875,-0.0694504976272583,-0.03315290808677673
1732873206682251000,0.3352509765625,0.21266555786132812,-0.0640486478805542,-0.049372851848602295
1732873206692260900,0.3452607421875,0.19373607635498047,0.011923074722290039,-0.13302794098854065
1732873206702240000,0.355239990234375,0.07883358001708984,0.048615336418151855,-0.20200708508491516
1732873206712249600,0.36524951171875,0.035065650939941406,0.04011130332946777,-0.1046292781829834
1732873206722259500,0.375259521484375,-0.10532665252685547,0.005912184715270996,0.056020885705947876
1732873206732238600,0.385238525390625,-0.1499776840209961,0.024808526039123535,0.021900594234466553
1732873206742248400,0.39524853515625,-0.16220760345458984,0.05477261543273926,0.033320605754852295
1732873206752258300,0.40525830078125,-0.15784168243408203,0.06364357471466064,0.07047131657600403
1732873206762237400,0.415237548828125,-0.14766502380371094,0.09621727466583252,0.08992797136306763
1732873206772247300,0.425247314453125,-0.11957645416259766,0.12589764595031738,0.05958715081214905
1732873206782257200,0.435257080078125,-0.16996479034423828,0.0677872896194458,0.09756705164909363
1732873206792236300,0.445236328125,-0.17739391326904297,0.05718660354614258,0.07756882905960083
1732873206802246000,0.455245849609375,-0.10044479370117188,0.04098331928253174,-0.015141516923904419
1732873206812255700,0.465255859375,-0.0046787261962890625,0.0003954172134399414,0.014094829559326172
1732873206822235000,0.47523486328125,0.13153362274169922,-0.040884971618652344,0.027559399604797363
1732873206832244700,0.48524462890625,0.33465003967285156,-0.10271549224853516,0.006086498498916626
1732873206842254600,0.495254638671875,0.4276857376098633,-0.13100981712341309,0.06272932887077332
1732873206852233700,0.505233642578125,0.43232059478759766,-0.12456166744232178,0.04715988039970398
1732873206862243600,0.51524365234375,0.36061573028564453,-0.12238931655883789,0.015992462635040283
1732873206872253400,0.52525341796875,0.1623525619506836,-0.10318601131439209,0.0032994449138641357
1732873206882232600,0.535232666015625,0.04100990295410156,-0.061948180198669434,0.021245449781417847
1732873206892242400,0.545242431640625,-0.06343650817871094,-0.062232375144958496,0.08931347727775574
1732873206902252000,0.555251953125,-0.10802745819091797,-0.02655661106109619,0.07130938768386841
1732873206912231200,0.565231201171875,-0.15276622772216797,-0.03772544860839844,0.046936362981796265
1732873206922241000,0.575240966796875,-0.11390113830566406,-0.02637159824371338,0.1055564284324646
1732873206932251000,0.5852509765625,-0.04408836364746094,-0.02366030216217041,0.08946052193641663
1732873206942260500,0.595260498046875,-0.07973575592041016,-0.025060534477233887,0.02552923560142517
1732873206952239900,0.605239990234375,-0.09154605865478516,-0.04266762733459473,0.006767541170120239
1732873206962249700,0.615249755859375,-0.014881134033203125,-0.026130199432373047,0.0142802894115448
1732873206972259600,0.625259521484375,-0.007666587829589844,-0.04038810729980469,0.039617568254470825
1732873206982238700,0.63523876953125,-0.0961599349975586,-0.04759323596954346,0.08743396401405334
1732873206992248300,0.645248291015625,-0.13661670684814453,-0.003200531005859375,0.03869721293449402
1732873207002258200,0.655258056640625,-0.20102405548095703,-0.04743349552154541,0.12832118570804596
1732873207012237300,0.6652373046875,-0.232025146484375,-0.062383055686950684,0.13134880363941193
1732873207022247200,0.6752470703125,-0.24411869049072266,-0.07143831253051758,0.04666188359260559
1732873207032257000,0.685257080078125,-0.07935523986816406,-0.09792971611022949,0.0309620201587677
1732873207042236200,0.695236083984375,0.08038902282714844,-0.110892653465271,0.008979946374893188
1732873207052246000,0.70524609375,0.2087564468383789,-0.13915777206420898,-0.07776749134063721
1732873207062255900,0.715255859375,0.2843160629272461,-0.18588364124298096,-0.0070608556270599365
1732873207072235000,0.725235107421875,0.35991859436035156,-0.20174479484558105,0.0419822633266449
1732873207082244900,0.735244873046875,0.3997669219970703,-0.1586824655532837,0.004775017499923706
1732873207092254700,0.745254638671875,0.37277984619140625,-0.1288924217224121,-0.0210019052028656
1732873207102233900,0.75523388671875,0.28382110595703125,-0.09841275215148926,-0.004002660512924194
1732873207112243500,0.765243408203125,0.1162576675415039,-0.03675341606140137,-0.013060569763183594
1732873207122253300,0.77525341796875,-0.015057563781738281,-0.01038217544555664,-0.01872602105140686
1732873207132232400,0.785232421875,-0.12939167022705078,0.031697988510131836,-0.023197174072265625
1732873207142242300,0.7952421875,-0.1815938949584961,0.026501893997192383,-0.0353052020072937
1732873207152252200,0.805252197265625,-0.19569778442382812,0.02718830108642578,-0.08637553453445435
1732873207162231300,0.815231201171875,-0.11903667449951172,0.026762843132019043,-0.14213445782661438
1732873207172241200,0.8252412109375,-0.06887435913085938,0.044213294982910156,-0.16125109791755676
1732873207182251000,0.8352509765625,-0.08337974548339844,-0.0027306079864501953,-0.13435399532318115
1732873207192260600,0.845260498046875,-0.07394599914550781,-0.061684489250183105,-0.06947490572929382
1732873207202240000,0.855239990234375,-0.06929874420166016,-0.0871734619140625,-0.052641481161117554
1732873207212249600,0.86524951171875,-0.11264991760253906,-0.11445248126983643,-0.10318747162818909
1732873207222259500,0.875259521484375,-0.0005502700805664062,-0.13825666904449463,-0.04574534296989441
1732873207232238600,0.885238525390625,0.12809181213378906,-0.12251782417297363,0.05937093496322632
1732873207242248400,0.89524853515625,0.21103668212890625,-0.1151505708694458,0.015817344188690186
1732873207252258300,0.90525830078125,0.2317047119140625,-0.10295689105987549,0.00038823485374450684
1732873207262237400,0.915237548828125,0.24771404266357422,-0.1156085729598999,-0.006193935871124268
1732873207272247300,0.925247314453125,0.24237728118896484,-0.07191777229309082,-0.06502705812454224
1732873207282257200,0.935257080078125,0.0768899917602539,-0.04389333724975586,-0.034060269594192505
1732873207292419300,0.94541943359375,0.04581260681152344,-0.03139805793762207,-0.04945087432861328
1732873207302246100,0.95524609375,0.0868072509765625,-0.0002689361572265625,0.042395591735839844
1732873207312255700,0.965255859375,0.10390186309814453,0.04756629467010498,0.08948099613189697
1732873207322235000,0.97523486328125,0.1306324005126953,0.018631577491760254,0.16355404257774353
1732873207332244700,0.98524462890625,0.17421531677246094,-0.0516352653503418,0.31607678532600403
1732873207342254600,0.995254638671875,0.16756343841552734,-0.04147756099700928,0.2355937659740448
1732873207352233700,1.005233642578125,0.026823997497558594,-0.08502960205078125,0.27739420533180237
1732873207362243600,1.01524365234375,-0.03004169464111328,-0.06947457790374756,0.4615549147129059
1732873207372253400,1.02525341796875,-0.1011972427368164,0.0028017759323120117,0.5535377264022827
1732873207382232600,1.035232666015625,-0.22992515563964844,0.06492877006530762,0.6784974932670593
1732873207392242400,1.045242431640625,-0.3060789108276367,0.160056471824646,0.8032561540603638
1732873207402252000,1.055251953125,-0.28213024139404297,0.17520606517791748,1.0486533641815186
1732873207412231200,1.065231201171875,-0.2061767578125,0.16680645942687988,1.2993311882019043
1732873207422241000,1.075240966796875,-0.09502029418945312,0.053843140602111816,1.6956231594085693
1732873207432251000,1.0852509765625,0.03218841552734375,0.037798404693603516,1.9904272556304932
1732873207442260700,1.0952607421875,0.15424251556396484,0.026006698608398438,2.088021993637085
1732873207452240000,1.105239990234375,0.24077796936035156,-0.0012034177780151367,2.217498779296875
1732873207462249700,1.115249755859375,0.34163856506347656,-0.06893885135650635,2.366772174835205
1732873207472259600,1.125259521484375,0.3660240173339844,-0.13259339332580566,2.3722453117370605
1732873207482238700,1.13523876953125,0.38118934631347656,-0.22449254989624023,2.402790069580078
1732873207492248300,1.145248291015625,0.29388999938964844,-0.35734784603118896,2.483551025390625
1732873207502258200,1.155258056640625,0.293548583984375,-0.39630234241485596,2.523012161254883
1732873207512237300,1.1652373046875,0.314971923828125,-0.4268537759780884,2.5162484645843506
1732873207522247200,1.1752470703125,0.34362220764160156,-0.48163652420043945,2.4565324783325195
1732873207532257000,1.185257080078125,0.29327392578125,-0.5510709285736084,2.458909034729004
1732873207542236200,1.195236083984375,0.20945358276367188,-0.5708780288696289,2.4641246795654297
1732873207552246000,1.20524609375,0.09215450286865234,-0.62479567527771,2.440239667892456
1732873207562256000,1.215255859375,-0.0010843276977539062,-0.6173635721206665,2.480820655822754
1732873207572235000,1.225235107421875,-0.1013784408569336,-0.615623950958252,2.523512363433838
1732873207582244900,1.235244873046875,-0.1968555450439453,-0.5730257034301758,2.636004686355591
1732873207592254700,1.245254638671875,-0.24199581146240234,-0.5253889560699463,2.6850173473358154
1732873207602233900,1.25523388671875,-0.28693580627441406,-0.4639624357223511,2.7218849658966064
1732873207612243700,1.26524365234375,-0.3483877182006836,-0.3771960735321045,2.72965931892395
1732873207622253300,1.27525341796875,-0.5341396331787109,-0.2743566036224365,2.6221983432769775
1732873207632232400,1.285232421875,-0.6384553909301758,-0.2549631595611572,2.4306633472442627
1732873207642242300,1.2952421875,-0.6855316162109375,-0.3655456304550171,2.2169196605682373
1732873207652252200,1.305252197265625,-0.5874166488647461,-0.4803807735443115,1.9726330041885376
1732873207662231300,1.315231201171875,-0.2219686508178711,-0.6450936794281006,1.68384850025177
1732873207672241200,1.3252412109375,0.2001180648803711,-0.8022560477256775,1.3706214427947998
1732873207682251000,1.3352509765625,0.5881290435791016,-0.9321297407150269,1.0176159143447876
1732873207692260900,1.3452607421875,0.8396205902099609,-0.9663364887237549,0.8159727454185486
1732873207702240000,1.355239990234375,0.8617019653320312,-0.9728131890296936,0.7398974895477295
1732873207712249600,1.36524951171875,0.5733366012573242,-0.9156439304351807,0.6692027449607849
1732873207722259500,1.375259521484375,0.1737194061279297,-0.5953224301338196,0.2368525266647339
1732873207732238600,1.385238525390625,-0.1475076675415039,-0.25984013080596924,-0.12886369228363037
1732873207742248400,1.39524853515625,-0.42372894287109375,-0.1331552267074585,-0.29390937089920044
1732873207752258300,1.40525830078125,-0.5809650421142578,-0.16061395406723022,-0.2679121494293213
1732873207762237400,1.415237548828125,-0.5269222259521484,-0.2557416558265686,-0.26716721057891846
1732873207772247300,1.425247314453125,-0.2593669891357422,-0.3620622754096985,-0.2459375262260437
1732873207782257200,1.435257080078125,0.20924949645996094,-0.3746366500854492,-0.2620037794113159
1732873207792236300,1.445236328125,0.7789154052734375,-0.331798791885376,-0.20660358667373657
1732873207802246000,1.455245849609375,1.1417818069458008,-0.24852561950683594,-0.19964313507080078
1732873207812255700,1.465255859375,1.266016960144043,-0.1798321008682251,-0.3686491847038269
1732873207822235000,1.47523486328125,1.1629819869995117,-0.2769692540168762,-0.7481877207756042
1732873207832244700,1.48524462890625,1.0697431564331055,-0.48287442326545715,-1.0866262912750244
1732873207842254600,1.495254638671875,1.022420883178711,-0.7317053079605103,-1.2907105684280396
1732873207852233700,1.505233642578125,1.2621440887451172,-0.845982551574707,-1.4179576635360718
1732873207862243600,1.51524365234375,1.512251853942871,-1.0740026235580444,-1.7518054246902466
1732873207872253400,1.52525341796875,1.8477106094360352,-1.2505006790161133,-2.035438060760498
1732873207882232600,1.535232666015625,2.1220502853393555,-1.4963700771331787,-2.3567376136779785
1732873207892242400,1.545242431640625,2.1580753326416016,-1.815133810043335,-2.6850829124450684
1732873207902252000,1.555251953125,1.8770465850830078,-2.1445040702819824,-3.036602735519409
1732873207912231200,1.565231201171875,1.5088462829589844,-2.284029006958008,-3.2592086791992188
1732873207922241000,1.575240966796875,1.1657171249389648,-2.269562244415283,-3.1509957313537598
1732873207932251000,1.5852509765625,0.7681770324707031,-2.1598172187805176,-2.9242985248565674
1732873207942260500,1.595260498046875,0.41625499725341797,-2.0685219764709473,-2.729426383972168
1732873207952239900,1.605239990234375,0.02343463897705078,-1.8810092210769653,-2.606991767883301
1732873207962249700,1.615249755859375,-0.4170808792114258,-1.5228413343429565,-2.3170952796936035
1732873207972259600,1.625259521484375,-1.0308952331542969,-0.9853973984718323,-1.770185947418213
1732873207982238700,1.63523876953125,-1.5393590927124023,-0.3128821849822998,-1.0361613035202026
1732873207992248300,1.645248291015625,-1.7960395812988281,0.09457924962043762,-0.5816536545753479
1732873208002258200,1.655258056640625,-1.7480077743530273,0.2756161093711853,-0.35923027992248535
1732873208012237300,1.6652373046875,-1.462508201599121,0.38753533363342285,-0.29787737131118774
1732873208022247200,1.6752470703125,-1.0651931762695312,0.35258471965789795,-0.24524277448654175
1732873208032257000,1.685257080078125,-0.729619026184082,0.19477063417434692,-0.15063542127609253
1732873208042236200,1.695236083984375,-0.34336090087890625,0.029653146862983704,-0.00821012258529663
1732873208052246000,1.70524609375,-0.07655906677246094,-0.09709715843200684,0.03630143404006958
1732873208062255900,1.715255859375,0.17122173309326172,-0.29144489765167236,-0.016879379749298096
1732873208072235000,1.725235107421875,0.19890499114990234,-0.30385810136795044,-0.13338446617126465
1732873208082244900,1.735244873046875,0.29140281677246094,-0.3264876902103424,-0.2914521098136902
1732873208092254700,1.745254638671875,0.42488765716552734,-0.299267053604126,-0.45871224999427795
1732873208102233900,1.75523388671875,0.5598793029785156,-0.25591254234313965,-0.4594374895095825
1732873208112243500,1.765243408203125,0.5322055816650391,-0.20473462343215942,-0.5024703145027161
1732873208122253300,1.77525341796875,0.3760805130004883,-0.07837888598442078,-0.6109299659729004
1732873208132232400,1.785232421875,0.09626579284667969,0.17348724603652954,-0.6742933988571167
1732873208142242300,1.7952421875,-0.3079833984375,0.3933190703392029,-0.8045539855957031
1732873208152252200,1.805252197265625,-0.7001333236694336,0.5848223567008972,-0.8733692169189453
1732873208162231300,1.815231201171875,-1.0251693725585938,0.738091230392456,-0.9370772838592529
1732873208172241200,1.8252412109375,-1.1752328872680664,0.8630478382110596,-1.0327523946762085
1732873208182251000,1.8352509765625,-1.2436704635620117,0.9270461797714233,-1.1258713006973267
1732873208192260600,1.845260498046875,-1.0700311660766602,0.8771706819534302,-1.1861047744750977
1732873208202240000,1.855239990234375,-0.6959648132324219,0.6449242830276489,-1.0105384588241577
1732873208212249600,1.86524951171875,-0.2914085388183594,0.44325965642929077,-0.7105914354324341
1732873208222259500,1.875259521484375,0.059317588806152344,0.3389301002025604,-0.64351487159729
1732873208232238600,1.885238525390625,0.5444803237915039,0.3675750494003296,-0.5937252044677734
1732873208242248400,1.89524853515625,0.9945735931396484,0.48680514097213745,-0.5772718191146851
1732873208252258300,1.90525830078125,1.191441535949707,0.6310943365097046,-0.6981980800628662
1732873208262237400,1.915237548828125,1.111088752746582,0.7673885822296143,-0.8091075420379639
1732873208272247300,1.925247314453125,0.8778257369995117,0.8459509015083313,-0.9209856986999512
1732873208282257200,1.935257080078125,0.6447343826293945,0.9619340896606445,-1.0984585285186768
1732873208292236300,1.945236328125,0.5936050415039062,0.9846580624580383,-1.1966551542282104
1732873208302246100,1.95524609375,0.6878948211669922,0.8160530924797058,-1.0857293605804443
1732873208312255700,1.965255859375,0.8203630447387695,0.7651855945587158,-1.1565769910812378
1732873208322235000,1.97523486328125,0.9665040969848633,0.8326136469841003,-1.196863055229187
1732873208332244700,1.98524462890625,1.0064010620117188,0.9124745726585388,-1.0835554599761963
1732873208342254600,1.995254638671875,0.8632802963256836,0.9941340088844299,-0.7146481275558472
1732873208352233700,2.005233642578125,0.6617202758789062,1.182441234588623,-0.4223686456680298
1732873208362243600,2.01524365234375,0.48822689056396484,1.3151919841766357,-0.19280672073364258
1732873208372253400,2.02525341796875,0.30494022369384766,1.5167629718780518,-0.07739496231079102
1732873208382232600,2.035232666015625,0.21761226654052734,1.746190071105957,0.04016923904418945
1732873208392242400,2.045242431640625,0.11398792266845703,1.869673728942871,0.07404088973999023
1732873208402252000,2.055251953125,-0.000423431396484375,1.5590410232543945,0.12415874004364014
1732873208412231200,2.065231201171875,-0.17439746856689453,1.5983635187149048,0.0410158634185791
1732873208422241000,2.075240966796875,-0.2567787170410156,1.5209511518478394,-0.10288643836975098
1732873208432251000,2.0852509765625,-0.2883472442626953,1.4580538272857666,-0.48340487480163574
1732873208442260700,2.0952607421875,-0.09689617156982422,1.423332929611206,-0.8008006811141968
1732873208452240000,2.105239990234375,0.0804758071899414,1.5018048286437988,-1.2403522729873657
1732873208462249700,2.115249755859375,0.06655406951904297,1.5405387878417969,-1.5745849609375
1732873208472259600,2.125259521484375,-0.08378791809082031,1.5302928686141968,-1.6540663242340088
1732873208482238700,2.13523876953125,-0.3179893493652344,1.5995185375213623,-1.9777785539627075
1732873208492248300,2.145248291015625,-0.6889524459838867,1.5879487991333008,-2.1385271549224854
1732873208502258200,2.155258056640625,-1.1753416061401367,1.5152984857559204,-1.9899753332138062
1732873208512237600,2.165237548828125,-1.4565620422363281,1.506567120552063,-1.9012356996536255
1732873208522247200,2.1752470703125,-1.1972131729125977,1.6529030799865723,-1.746354341506958
1732873208532257000,2.185257080078125,-0.7009668350219727,1.7014168500900269,-1.5726858377456665
1732873208542236200,2.195236083984375,0.004031181335449219,1.8270862102508545,-1.1779037714004517
1732873208552246000,2.20524609375,0.6320981979370117,2.060238838195801,-0.764371395111084
1732873208562256000,2.215255859375,1.1226158142089844,2.4056835174560547,-0.370846152305603
1732873208572235000,2.225235107421875,1.3870782852172852,2.573897361755371,-0.17295444011688232
1732873208582244900,2.235244873046875,1.6119909286499023,2.6632490158081055,0.0154951810836792
1732873208592254700,2.245254638671875,1.477956771850586,2.5289738178253174,0.48150956630706787
1732873208602233900,2.25523388671875,1.060521125793457,2.3436970710754395,0.7504496574401855
1732873208612243700,2.26524365234375,0.6639919281005859,2.0399768352508545,0.8400715589523315
1732873208622253300,2.27525341796875,0.5092973709106445,1.8827494382858276,0.6045171618461609
1732873208632232400,2.285232421875,0.45772647857666016,1.8092787265777588,0.2861694097518921
1732873208642242300,2.2952421875,0.28176212310791016,1.7401789426803589,0.08076047897338867
1732873208652252200,2.305252197265625,-0.016180992126464844,1.7063149213790894,0.09877848625183105
1732873208662231300,2.315231201171875,-0.30434608459472656,1.7149567604064941,0.3574867844581604
1732873208672241200,2.3252412109375,-0.6955041885375977,1.7941644191741943,0.8808082938194275
1732873208682251000,2.3352509765625,-1.1307687759399414,1.1151421070098877,1.3126212358474731
1732873208692260900,2.3452607421875,-1.3916740417480469,1.2722251415252686,1.9666608572006226
1732873208702240000,2.355239990234375,-1.5431461334228516,1.3956522941589355,2.5455541610717773
1732873208712249600,2.36524951171875,-1.7338132858276367,1.5324325561523438,2.8791046142578125
1732873208722259500,2.375259521484375,-1.8314061164855957,1.4393192529678345,2.910048246383667
1732873208732238600,2.385238525390625,-1.9309673309326172,1.424377679824829,2.9340176582336426
1732873208742248400,2.39524853515625,-1.9098825454711914,1.4439865350723267,2.8606693744659424
1732873208752258300,2.40525830078125,-1.681924819946289,1.518736481666565,2.7360892295837402
1732873208762237400,2.415237548828125,-1.4491767883300781,1.605580449104309,2.4377894401550293
1732873208772247300,2.425247314453125,-1.299783706665039,1.8380221128463745,2.2037222385406494
1732873208782257200,2.435257080078125,-1.2430963516235352,2.137669086456299,1.9906350374221802
1732873208792236300,2.445236328125,-1.3078365325927734,2.3911633491516113,1.820430040359497
1732873208802246000,2.455245849609375,-1.4727630615234375,2.606093645095825,1.920736312866211
1732873208812255700,2.465255859375,-1.724161148071289,2.8282885551452637,1.9751992225646973
1732873208822235000,2.47523486328125,-1.8266563415527344,2.8435938358306885,2.081760883331299
1732873208832244700,2.48524462890625,-1.4859180450439453,2.643153190612793,2.4683456420898438
1732873208842254600,2.495254638671875,-0.7785568237304688,2.1746253967285156,2.046112298965454
1732873208852233700,2.505233642578125,0.5661277770996094,2.055642604827881,1.5122857093811035
1732873208862243600,2.51524365234375,1.5581941604614258,2.299920082092285,2.1782195568084717
1732873208872253400,2.52525341796875,2.4190664291381836,2.0182948112487793,2.41182804107666
1732873208882232600,2.535232666015625,2.9622583389282227,1.8825730085372925,1.833930253982544
1732873208892242400,2.545242431640625,3.135995864868164,2.051055431365967,1.450182318687439
1732873208902252000,2.555251953125,2.7607994079589844,2.21052885055542,1.3295414447784424
1732873208912231200,2.565231201171875,1.873666763305664,2.1980526447296143,1.0496553182601929
1732873208922241000,2.575240966796875,0.9482059478759766,2.191317319869995,0.4659307599067688
1732873208932251000,2.5852509765625,0.32160472869873047,2.1708319187164307,0.10564407706260681
1732873208942260700,2.5952607421875,-0.2987489700317383,2.036095380783081,0.04222238063812256
1732873208952239900,2.605239990234375,-0.7386360168457031,1.8905389308929443,-0.05433511734008789
1732873208962249700,2.615249755859375,-1.0632829666137695,1.7363497018814087,-0.26618492603302
1732873208972259600,2.625259521484375,-1.110518455505371,1.5466668605804443,-0.5431104898452759
1732873208982238700,2.63523876953125,-0.8163528442382812,1.3238131999969482,-0.9575319290161133
1732873208992248300,2.645248291015625,-0.3918313980102539,1.2309669256210327,-1.023982286453247
1732873209002258200,2.655258056640625,0.1181039810180664,1.2061445713043213,-0.9851743578910828
1732873209012237600,2.665237548828125,0.43424415588378906,1.4278360605239868,-1.175384521484375
1732873209022247200,2.6752470703125,0.5956592559814453,1.794193983078003,-1.4250891208648682
1732873209032257000,2.685257080078125,0.5780401229858398,1.870134711265564,-1.3677806854248047
1732873209042236200,2.695236083984375,0.5825939178466797,1.4561731815338135,-0.9485331177711487
1732873209052246000,2.70524609375,1.077077865600586,0.842654824256897,-0.34785789251327515
1732873209062255900,2.715255859375,2.2230615615844727,0.28733694553375244,-0.31921547651290894
1732873209072235000,2.725235107421875,3.7580432891845703,-0.23421573638916016,-1.0047659873962402
1732873209082244900,2.735244873046875,5.006390571594238,-0.5072482824325562,-1.833633303642273
1732873209092254700,2.745254638671875,5.460838317871094,-0.5279721617698669,-2.4855456352233887
1732873209102233900,2.75523388671875,4.6281280517578125,-0.3699261546134949,-2.6574816703796387
1732873209112243500,2.765243408203125,2.8640546798706055,-0.2313057780265808,-2.4044156074523926
1732873209122253300,2.77525341796875,0.8569507598876953,-0.4002004861831665,-1.7592840194702148
1732873209132232400,2.785232421875,-1.6735420227050781,-0.37155234813690186,-1.1558732986450195
1732873209142242300,2.7952421875,-3.5195579528808594,-0.35228025913238525,-0.5664169192314148
1732873209152252200,2.805252197265625,-4.305284023284912,-0.44017863273620605,-0.17458975315093994
1732873209162231300,2.815231201171875,-4.6082892417907715,-0.46203505992889404,-0.0011088848114013672
1732873209172241200,2.8252412109375,-4.266350746154785,-0.42627716064453125,-0.09332019090652466
1732873209182251000,2.8352509765625,-3.5995535850524902,-0.47767162322998047,-0.41426098346710205
1732873209192260600,2.845260498046875,-2.863509178161621,-0.5055526494979858,-0.5778191685676575
1732873209202240000,2.855239990234375,-1.917701244354248,-0.5205075740814209,-0.6280179619789124
1732873209212249600,2.86524951171875,-1.1174135208129883,-0.48746979236602783,-0.5047554969787598
1732873209222259500,2.875259521484375,-0.7267293930053711,-0.38841140270233154,-0.486380398273468
1732873209232238600,2.885238525390625,-0.6837968826293945,-0.32325124740600586,-0.244123637676239
1732873209242248400,2.89524853515625,-0.7001638412475586,-0.1000434160232544,0.14714425802230835
1732873209252258300,2.90525830078125,-0.9405050277709961,0.062191128730773926,0.3662956953048706
1732873209262237400,2.915237548828125,-1.1047344207763672,0.14138853549957275,0.5127310752868652
1732873209272247300,2.925247314453125,-1.2767333984375,0.27884984016418457,0.47355520725250244
1732873209282257200,2.935257080078125,-1.4424171447753906,0.3874514102935791,0.4323999881744385
1732873209292236300,2.945236328125,-1.5255231857299805,0.5403485298156738,0.3047829866409302
1732873209302246100,2.95524609375,-1.5098562240600586,0.759124755859375,0.23423242568969727
1732873209312255700,2.965255859375,-1.3096113204956055,1.0170046091079712,0.23119816184043884
1732873209322235000,2.97523486328125,-1.0543289184570312,1.1857986450195312,0.23404565453529358
1732873209332244700,2.98524462890625,-0.8709163665771484,1.408625602722168,0.12118104100227356
1732873209342254600,2.995254638671875,-0.7663745880126953,1.5931694507598877,0.012241065502166748
1732873209352233700,3.005233642578125,-0.7764091491699219,1.6192381381988525,-0.07209187746047974
1732873209362243600,3.01524365234375,-0.6541910171508789,1.4933604001998901,-0.28424787521362305
1732873209372253400,3.02525341796875,-0.3682708740234375,1.2163137197494507,-0.45169633626937866
1732873209382232600,3.035232666015625,-0.0013637542724609375,0.8322716951370239,-0.6292500495910645
1732873209392242400,3.045242431640625,0.40589332580566406,0.399463415145874,-0.7062713503837585
1732873209402252000,3.055251953125,0.8545265197753906,0.12932825088500977,-0.6724056601524353
1732873209412231200,3.065231201171875,1.0319175720214844,0.0099029541015625,-0.6146906018257141
1732873209422241000,3.075240966796875,0.8226261138916016,0.002978086471557617,-0.5183150768280029
1732873209432251000,3.0852509765625,0.3737754821777344,0.12745141983032227,-0.43784213066101074
1732873209442260700,3.0952607421875,-0.4135141372680664,0.2631046772003174,-0.22755563259124756
1732873209452240000,3.105239990234375,-0.9469404220581055,0.2247006893157959,-0.11352145671844482
1732873209462249700,3.115249755859375,-0.7226848602294922,0.4877011775970459,-0.25616103410720825
1732873209472259600,3.125259521484375,-1.0369377136230469,0.08833527565002441,-0.06365543603897095
1732873209482238700,3.13523876953125,-1.3086719512939453,-0.2483503818511963,0.2789442539215088
1732873209492248300,3.145248291015625,-0.8104591369628906,0.23328900337219238,-0.0774010419845581
1732873209502258200,3.155258056640625,-0.4306983947753906,0.341310977935791,-0.24071913957595825
1732873209512237600,3.165237548828125,-0.18124961853027344,-0.019541501998901367,0.12420570850372314
1732873209522247200,3.1752470703125,-0.08840751647949219,0.08253765106201172,0.13957858085632324
1732873209532257000,3.185257080078125,0.12566089630126953,0.06468653678894043,0.1967703104019165
1732873209542236200,3.195236083984375,0.5799465179443359,-0.13861465454101562,0.6557660102844238
1732873209552246000,3.20524609375,1.5649995803833008,-0.25385892391204834,1.416452407836914
1732873209562256000,3.215255859375,2.6017627716064453,-0.30021166801452637,1.3883816003799438
1732873209572235000,3.225235107421875,3.542616844177246,-0.3815265893936157,0.8945169448852539
1732873209582244900,3.235244873046875,4.321745872497559,-0.699268102645874,0.806713342666626
1732873209592254700,3.245254638671875,4.914884567260742,-1.03409743309021,1.126678466796875
1732873209602233900,3.25523388671875,5.582225799560547,-1.324869990348816,1.6996922492980957
1732873209612243700,3.26524365234375,5.859553337097168,-1.3833204507827759,2.0206196308135986
1732873209622253300,3.27525341796875,5.811224937438965,-1.364434003829956,2.366982936859131
1732873209632232400,3.285232421875,5.538446426391602,-1.2769277095794678,2.5435993671417236
1732873209642242300,3.2952421875,4.900577545166016,-1.2171730995178223,2.3029227256774902
1732873209652252200,3.305252197265625,4.3018293380737305,-1.292015790939331,1.9838019609451294
1732873209662231300,3.315231201171875,3.773789405822754,-1.5484576225280762,1.8184478282928467
1732873209672241200,3.3252412109375,3.31026554107666,-1.7395780086517334,1.718737006187439
1732873209682251000,3.3352509765625,2.28048038482666,-2.107851505279541,2.053393602371216
1732873209692260900,3.3452607421875,1.5164384841918945,-2.3467977046966553,1.022591471672058
1732873209702240000,3.355239990234375,0.8722333908081055,-2.620522975921631,1.1108753681182861
1732873209712249600,3.36524951171875,-0.06299686431884766,-2.615996837615967,1.6834410429000854
1732873209722259500,3.375259521484375,-1.1254758834838867,-2.516464948654175,2.1792078018188477
1732873209732238600,3.385238525390625,-2.652122974395752,-2.402357816696167,2.3319056034088135
1732873209742248400,3.39524853515625,-3.984891414642334,-2.3616409301757812,2.2537319660186768
1732873209752258300,3.40525830078125,-4.988827705383301,-2.0343313217163086,1.9622604846954346
1732873209762237400,3.415237548828125,-5.5622148513793945,-1.6251037120819092,1.54036545753479
1732873209772247300,3.425247314453125,-5.423906326293945,-1.4443511962890625,1.4729828834533691
1732873209782257200,3.435257080078125,-4.511256694793701,-1.533159852027893,1.7338862419128418
1732873209792236300,3.445236328125,-2.3423070907592773,-2.3567709922790527,2.2895853519439697
1732873209802246000,3.455245849609375,-0.5922784805297852,-2.7475790977478027,1.619667649269104
1732873209812255700,3.465255859375,0.1766204833984375,-2.722738027572632,1.120154619216919
1732873209822235000,3.47523486328125,0.5258588790893555,-2.652672529220581,1.0643248558044434
1732873209832244700,3.48524462890625,0.3575315475463867,-2.287886619567871,1.7976504564285278
1732873209842254600,3.495254638671875,-0.13844776153564453,-2.2510437965393066,1.7424931526184082
1732873209852233700,3.505233642578125,-0.3541879653930664,-2.1035497188568115,0.548318088054657
1732873209862243600,3.51524365234375,-0.5886383056640625,-1.78746497631073,-1.0832360982894897
1732873209872253400,3.52525341796875,-0.8112154006958008,-1.4604082107543945,-1.9439094066619873
1732873209882232600,3.535232666015625,-1.2020158767700195,-1.0139490365982056,-2.194640636444092
1732873209892242400,3.545242431640625,-1.5196990966796875,-0.4710749387741089,-1.383965253829956
1732873209902252000,3.555251953125,-1.613473892211914,-0.11778426170349121,-0.11822032928466797
1732873209912231200,3.565231201171875,-1.5853042602539062,-0.17261719703674316,0.12975341081619263
1732873209922241000,3.575240966796875,-1.5634326934814453,-0.06829357147216797,0.07338720560073853
1732873209932251000,3.5852509765625,-1.7175102233886719,0.012682914733886719,0.20776867866516113
1732873209942260500,3.595260498046875,-1.9047799110412598,0.0075397491455078125,0.5047946572303772
1732873209952239900,3.605239990234375,-2.2051782608032227,-0.1277918815612793,0.794553279876709
1732873209962147300,3.615147216796875,-2.126460075378418,-0.26896119117736816,0.8847635388374329
1732873209972157200,3.6251572265625,-1.5237278938293457,-0.4008373022079468,0.9352617263793945
1732873209982136300,3.63513623046875,-0.5818281173706055,-0.5036613941192627,0.8925749063491821
1732873209992146200,3.645146240234375,0.6139755249023438,-0.6138464212417603,0.7816216945648193
1732873210002155800,3.65515576171875,1.557621955871582,-0.5861791372299194,0.7392590641975403
1732873210012135200,3.66513525390625,2.3136987686157227,-0.6118820905685425,0.8243405818939209
1732873210022144800,3.675144775390625,2.6152687072753906,-0.7517522573471069,0.7710372805595398
1732873210032154600,3.685154541015625,2.664242744445801,-0.8146089315414429,0.7537938356399536
1732873210042133800,3.6951337890625,2.740248680114746,-0.7769025564193726,0.8730285167694092
1732873210052143600,3.7051435546875,2.726472854614258,-0.701453685760498,1.0115375518798828
1732873210062153500,3.715153564453125,2.578579902648926,-0.6903254985809326,1.097989559173584
1732873210072132600,3.725132568359375,2.6311044692993164,-0.7387485504150391,1.1656293869018555
1732873210082142500,3.735142578125,2.736452102661133,-0.7586212158203125,1.1735942363739014
1732873210092152300,3.74515234375,2.910470962524414,-0.7907199859619141,1.083679437637329
1732873210102131500,3.75513134765625,3.185840606689453,-0.7488943338394165,0.9973828196525574
1732873210112141000,3.76514111328125,3.4063329696655273,-0.6893478631973267,0.8245643377304077
1732873210122151000,3.77515087890625,3.663344383239746,-0.5706921815872192,0.8024628162384033
1732873210132130000,3.785130126953125,3.6304216384887695,-0.5382469892501831,0.7549847960472107
1732873210142140000,3.795139892578125,3.3655033111572266,-0.44629764556884766,0.5786330103874207
1732873210152149800,3.805149658203125,2.8421010971069336,-0.13665413856506348,0.14158785343170166
1732873210162129000,3.81512890625,2.1633453369140625,0.07538247108459473,0.0700610876083374
1732873210172138800,3.825138671875,1.256535530090332,0.05733489990234375,0.26859915256500244
1732873210182148600,3.835148681640625,0.6992092132568359,-0.41932225227355957,0.9246629476547241
1732873210192158200,3.845158203125,0.6054830551147461,-1.4504873752593994,1.49396812915802
1732873210202137600,3.8551376953125,1.1464948654174805,-2.2491860389709473,0.7034124732017517
1732873210212147200,3.865147216796875,2.351564407348633,-2.8228232860565186,-0.04700589179992676
1732873210222157000,3.875156982421875,3.437223434448242,-3.121547222137451,-0.7037500143051147
1732873210232136200,3.88513623046875,3.571208953857422,-2.9875543117523193,-1.4883158206939697
1732873210242146000,3.89514599609375,2.5279712677001953,-2.5229694843292236,-1.9631743431091309
1732873210252156000,3.905156005859375,0.9176797866821289,-1.7910082340240479,-2.3759567737579346
1732873210262135000,3.915135009765625,-1.2601823806762695,-1.4240663051605225,-2.3208956718444824
1732873210272145000,3.925144775390625,-3.4234275817871094,-1.4879002571105957,-1.554248332977295
1732873210282154800,3.93515478515625,-5.569005966186523,-1.566143274307251,-0.38671040534973145
1732873210292134000,3.9451337890625,-6.887463569641113,-1.6940693855285645,0.271259069442749
1732873210302143700,3.955143798828125,-7.2610344886779785,-1.872317910194397,0.49963539838790894
1732873210312153300,3.9651533203125,-6.4167375564575195,-2.113503932952881,0.4322763681411743
1732873210322132500,3.975132568359375,-4.429172992706299,-2.5018928050994873,0.3759470582008362
1732873210332142300,3.985142333984375,-2.203392505645752,-2.695103168487549,0.29525041580200195
1732873210342152200,3.995152099609375,-0.1355724334716797,-2.7567543983459473,0.05909121036529541
1732873210352131300,4.00513134765625,1.155257225036621,-2.691514253616333,-0.198619544506073
1732873210362141200,4.01514111328125,1.8114643096923828,-2.505465030670166,-0.47225308418273926
1732873210372151000,4.025151123046875,2.0855655670166016,-2.126068592071533,-0.5700327157974243
1732873210382130200,4.035130126953125,1.7945032119750977,-1.7819702625274658,-0.48768067359924316
1732873210392140000,4.04514013671875,0.7400007247924805,-1.5207152366638184,-0.09950745105743408
1732873210402149600,4.055149658203125,-0.3337087631225586,-1.2917733192443848,0.24049919843673706
1732873210412128800,4.065128662109375,-1.264023780822754,-0.9727820158004761,0.6524404883384705
1732873210422138600,4.075138671875,-1.6616358757019043,-0.6889610290527344,0.9128687381744385
1732873210432148500,4.0851484375,-1.7419366836547852,-0.4039151668548584,1.0596046447753906
1732873210442158300,4.095158447265625,-1.6346755027770996,-0.26291799545288086,1.0348570346832275
1732873210452137500,4.105137451171875,-1.3555116653442383,-0.003591775894165039,0.7483594417572021
1732873210462147300,4.115147216796875,-1.0639324188232422,0.08228898048400879,0.7466012835502625
1732873210472157200,4.1251572265625,-0.9478225708007812,0.2045457363128662,0.584990382194519
1732873210482136300,4.13513623046875,-0.7194814682006836,0.21821999549865723,0.46711158752441406
1732873210492146200,4.145146240234375,-0.5033473968505859,0.16415071487426758,0.46613046526908875
1732873210502155800,4.15515576171875,-0.07198143005371094,0.11439371109008789,0.4010505676269531
1732873210512135200,4.16513525390625,0.4260997772216797,-0.0762631893157959,0.3702631890773773
1732873210522144800,4.175144775390625,1.0128955841064453,-0.3299851417541504,0.274442195892334
1732873210532154600,4.185154541015625,1.5984106063842773,-0.6056883335113525,0.1441948413848877
1732873210542133800,4.1951337890625,2.0991458892822266,-0.7014148235321045,-0.11029958724975586
1732873210552143600,4.2051435546875,2.266798973083496,-0.6139405965805054,-0.21947678923606873
1732873210562153500,4.215153564453125,2.148135185241699,-0.6016780138015747,-0.10891339182853699
1732873210572132600,4.225132568359375,1.7684650421142578,-0.6085854768753052,0.22149749100208282
1732873210582142500,4.235142578125,1.3526802062988281,-0.5825233459472656,0.6294111013412476
1732873210592152300,4.24515234375,0.8335762023925781,-0.49408531188964844,0.913605809211731
1732873210602131500,4.25513134765625,0.569061279296875,-0.22099995613098145,1.017263412475586
1732873210612141300,4.265141357421875,0.4070091247558594,0.2225053310394287,0.9555568695068359
1732873210622151000,4.27515087890625,0.1650991439819336,0.45240211486816406,0.8233830332756042
1732873210632130000,4.285130126953125,-0.29364871978759766,0.05123019218444824,0.9887356162071228
1732873210642140000,4.295139892578125,-0.5389804840087891,-0.6610472202301025,1.4782917499542236
1732873210652149800,4.305149658203125,-0.01708507537841797,-1.0666779279708862,1.8401848077774048
1732873210662129000,4.31512890625,0.9274806976318359,-1.2255339622497559,1.7602936029434204
1732873210672138800,4.325138671875,2.444631576538086,-1.5359185934066772,1.5604002475738525
1732873210682148600,4.335148681640625,3.9946374893188477,-2.2124857902526855,1.6411055326461792
1732873210692158500,4.345158447265625,5.06239128112793,-3.142810583114624,1.79007887840271
1732873210702137600,4.3551376953125,6.05778694152832,-3.703601837158203,1.5802875757217407
1732873210712147200,4.365147216796875,6.679295539855957,-3.807185649871826,0.9834164381027222
1732873210722157000,4.375156982421875,6.732573509216309,-3.694300651550293,0.21483361721038818
1732873210732136200,4.38513623046875,5.916540145874023,-3.5416600704193115,-0.038573384284973145
1732873210742146000,4.39514599609375,3.9430580139160156,-3.2136261463165283,0.48645877838134766
1732873210752156000,4.405156005859375,1.8038616180419922,-2.808760166168213,1.0674744844436646
1732873210762135000,4.415135009765625,-0.4791259765625,-2.457728147506714,1.695539951324463
1732873210772145000,4.425144775390625,-2.3710689544677734,-2.1581971645355225,1.9784774780273438
1732873210782154800,4.43515478515625,-4.038072109222412,-1.7395739555358887,2.070383310317993
1732873210792134000,4.4451337890625,-4.91018009185791,-1.399939775466919,2.163025379180908
1732873210802143500,4.4551435546875,-5.248076438903809,-1.2151005268096924,2.019019365310669
1732873210812153300,4.4651533203125,-4.804447650909424,-1.1724365949630737,1.8266370296478271
1732873210822132500,4.475132568359375,-3.833446502685547,-1.2737574577331543,1.636033058166504
1732873210832142300,4.485142333984375,-2.6851119995117188,-1.4885447025299072,1.305065393447876
1732873210842152200,4.495152099609375,-1.711031436920166,-1.7173950672149658,1.064427375793457
1732873210852131300,4.50513134765625,-0.8530187606811523,-1.9454569816589355,0.7703433036804199
1732873210862141200,4.51514111328125,-0.25457191467285156,-2.007770538330078,0.5006057620048523
1732873210872151000,4.525151123046875,0.1748371124267578,-1.965590238571167,0.1718260943889618
1732873210882130200,4.535130126953125,0.3799257278442383,-1.8863427639007568,-0.04293948411941528
1732873210892140000,4.54514013671875,0.3583345413208008,-1.75920832157135,-0.15997499227523804
1732873210902149600,4.555149658203125,0.196258544921875,-1.5415934324264526,-0.12647545337677002
1732873210912129000,4.56512890625,-0.051476478576660156,-1.211624264717102,-0.05069547891616821
1732873210922138600,4.575138671875,-0.5571403503417969,-0.8872644901275635,0.03643488883972168
1732873210932148500,4.5851484375,-1.0958747863769531,-0.67143714427948,0.12586891651153564
1732873210942158000,4.595157958984375,-1.5896735191345215,-0.4367704391479492,0.19820624589920044
1732873210952137500,4.605137451171875,-1.905836582183838,-0.31775832176208496,0.2702934145927429
1732873210962147300,4.615147216796875,-1.9714064598083496,-0.19901394844055176,0.2652485966682434
1732873210972157200,4.6251572265625,-1.911600112915039,-0.19250106811523438,0.24886387586593628
1732873210982136300,4.63513623046875,-1.6575689315795898,-0.1766505241394043,0.16266101598739624
1732873210992146200,4.645146240234375,-1.266942024230957,-0.06718134880065918,0.12327653169631958
1732873211002155800,4.65515576171875,-0.7152690887451172,-0.03981494903564453,0.19800066947937012
1732873211012135200,4.66513525390625,-0.4276914596557617,-0.11433744430541992,0.2933047115802765
1732873211022144800,4.675144775390625,-0.18566131591796875,-0.22887372970581055,0.6094328165054321
1732873211032154600,4.685154541015625,0.15243244171142578,-0.34221363067626953,1.0130046606063843
1732873211042133800,4.6951337890625,0.4283170700073242,-0.37032580375671387,1.1641156673431396
1732873211052143600,4.7051435546875,0.8072357177734375,-0.325930118560791,1.1998752355575562
1732873211062153500,4.715153564453125,0.9686679840087891,-0.17533636093139648,0.9223371744155884
1732873211072132600,4.725132568359375,0.9340629577636719,0.0482630729675293,0.6456556916236877
1732873211082142500,4.735142578125,0.7847661972045898,0.27005982398986816,0.42424309253692627
1732873211092152300,4.74515234375,0.5948238372802734,0.4555988311767578,0.4650927484035492
1732873211102131500,4.75513134765625,0.3987541198730469,0.4320855140686035,0.5829837322235107
1732873211112141000,4.76514111328125,0.3467369079589844,0.32552099227905273,0.606657862663269
1732873211122151000,4.77515087890625,0.6530790328979492,0.2247323989868164,0.4371784031391144
1732873211132130000,4.785130126953125,1.1993217468261719,-0.0042781829833984375,0.29802989959716797
1732873211142140000,4.795139892578125,1.9348430633544922,-0.2427511215209961,-0.008233392611145973
1732873211152149800,4.805149658203125,2.615631103515625,-0.45551133155822754,-0.27767834067344666
1732873211162129000,4.81512890625,3.237421989440918,-0.7283811569213867,-0.5173230767250061
1732873211172138800,4.825138671875,3.4858169555664062,-0.9461867809295654,-0.7112194895744324
1732873211182148600,4.835148681640625,3.451014518737793,-0.8647360801696777,-1.133913516998291
1732873211192158200,4.845158203125,3.511782646179199,-0.6684086322784424,-1.2747844457626343
1732873211202137600,4.8551376953125,3.2684688568115234,-0.6863439083099365,-1.2680429220199585
1732873211212147200,4.865147216796875,2.6492080688476562,-1.1362640857696533,-1.0763373374938965
1732873211222157000,4.875156982421875,1.8188190460205078,-1.9203262329101562,-0.8865999579429626
1732873211232136200,4.88513623046875,1.5420475006103516,-2.4382426738739014,-0.9324885010719299
1732873211242146000,4.89514599609375,1.906698226928711,-2.580130100250244,-1.257509708404541
1732873211252156000,4.905156005859375,2.6854114532470703,-2.301413059234619,-1.8347704410552979
1732873211262135000,4.915135009765625,2.9555978775024414,-2.0285818576812744,-2.231044054031372
1732873211272145000,4.925144775390625,2.1263628005981445,-1.8941636085510254,-2.028120994567871
1732873211282154800,4.93515478515625,0.9395322799682617,-1.9016703367233276,-1.638801097869873
1732873211292134000,4.9451337890625,-0.41802501678466797,-2.0362772941589355,-1.050804615020752
1732873211302143700,4.955143798828125,-1.4089326858520508,-2.2266714572906494,-0.5325751900672913
1732873211312153300,4.9651533203125,-1.9733247756958008,-2.3810558319091797,-0.2779017686843872
1732873211322132500,4.975132568359375,-1.9048047065734863,-2.4083361625671387,-0.3782530725002289
1732873211332142300,4.985142333984375,-1.3493375778198242,-2.2026772499084473,-0.6487070918083191
1732873211342152200,4.995152099609375,-0.7781238555908203,-1.9809846878051758,-0.9072367548942566
1732873211352131300,5.00513134765625,-0.23800277709960938,-1.7186012268066406,-0.8802105188369751
1732873211362141200,5.01514111328125,-0.18675613403320312,-1.482822299003601,-0.8180956840515137
1732873211372151000,5.025151123046875,-0.46181678771972656,-1.275211215019226,-0.6369083523750305
1732873211382130200,5.035130126953125,-0.9876012802124023,-1.0511939525604248,-0.32558122277259827
1732873211392140000,5.04514013671875,-1.485243797302246,-0.8610122203826904,-0.13977712392807007
1732873211402149600,5.055149658203125,-1.8847808837890625,-0.684971809387207,0.014404453337192535
1732873211412129000,5.06512890625,-2.1637325286865234,-0.5481144189834595,0.0867549255490303
1732873211422138600,5.075138671875,-2.4113802909851074,-0.3829193115234375,0.052793875336647034
1732873211432148500,5.0851484375,-2.5204482078552246,-0.24981045722961426,-0.12083795666694641
1732873211442158300,5.095158447265625,-2.5680394172668457,-0.1565241813659668,-0.3117833733558655
1732873211452137500,5.105137451171875,-2.5738368034362793,-0.14654898643493652,-0.4176551103591919
1732873211462147300,5.115147216796875,-2.4382433891296387,-0.20193004608154297,-0.40955159068107605
1732873211472157200,5.1251572265625,-2.146225929260254,-0.2799251079559326,-0.4197695255279541
1732873211482136300,5.13513623046875,-1.8437719345092773,-0.3544735908508301,-0.46205082535743713
1732873211492146200,5.145146240234375,-1.3942089080810547,-0.44295430183410645,-0.5715475082397461
1732873211502155800,5.15515576171875,-1.0128488540649414,-0.5243866443634033,-0.7386614084243774
1732873211512135200,5.16513525390625,-0.610539436340332,-0.5601991415023804,-0.8867847323417664
1732873211522145000,5.17514501953125,-0.344757080078125,-0.6123412847518921,-1.0276832580566406
1732873211532154600,5.185154541015625,-0.19340991973876953,-0.716515302658081,-1.139732837677002
1732873211542133800,5.1951337890625,-0.2178363800048828,-0.7565182447433472,-1.1147880554199219
1732873211552143600,5.2051435546875,-0.09661293029785156,-0.7790416479110718,-1.0062146186828613
1732873211562153500,5.215153564453125,0.059256553649902344,-0.636605978012085,-0.8684462308883667
1732873211572132600,5.225132568359375,0.09096145629882812,-0.3093838691711426,-0.6271697282791138
1732873211582142500,5.235142578125,-0.19885635375976562,-0.0038979053497314453,-0.2752605676651001
1732873211592152300,5.24515234375,-0.4033050537109375,0.1424853801727295,-0.014289289712905884
1732873211602131500,5.25513134765625,-0.3341083526611328,0.3819761276245117,0.21255169808864594
1732873211612141300,5.265141357421875,-0.17441558837890625,0.2893640995025635,0.3319142460823059
1732873211622151000,5.27515087890625,0.3701486587524414,0.42316222190856934,0.29487210512161255
1732873211632130000,5.285130126953125,1.1319808959960938,0.4745321273803711,0.4348282814025879
1732873211642140000,5.295139892578125,1.9115610122680664,0.6289098262786865,0.33695095777511597
1732873211652149800,5.305149658203125,2.5763092041015625,0.3388650417327881,0.34454935789108276
1732873211662129000,5.31512890625,2.9834375381469727,-0.2607595920562744,0.8316981792449951
1732873211672138800,5.325138671875,3.193221092224121,-0.5617778301239014,1.2672147750854492
1732873211682148600,5.335148681640625,3.5552549362182617,-0.5527621507644653,1.2447314262390137
1732873211692158500,5.345158447265625,4.087458610534668,-0.4460170269012451,0.8725337982177734
1732873211702137600,5.3551376953125,4.583388328552246,-0.7131824493408203,0.8770320415496826
1732873211712147200,5.365147216796875,4.820639610290527,-1.487236738204956,1.1886873245239258
1732873211722157000,5.375156982421875,4.881112098693848,-2.3155078887939453,1.4501265287399292
1732873211732136200,5.38513623046875,5.067234039306641,-3.0051627159118652,1.3376507759094238
1732873211742146000,5.39514599609375,5.403697967529297,-3.179417133331299,0.904715895652771
1732873211752156000,5.405156005859375,4.881430625915527,-2.975076198577881,0.7906623482704163
1732873211762135000,5.415135009765625,3.5274181365966797,-2.512760639190674,0.6602556109428406
1732873211772145000,5.425144775390625,1.5701866149902344,-1.8798657655715942,0.7632354497909546
1732873211782154800,5.43515478515625,-0.4126853942871094,-1.5613093376159668,1.2296403646469116
1732873211792134000,5.4451337890625,-2.6811580657958984,-1.4122689962387085,1.8355683088302612
1732873211802143500,5.4551435546875,-4.526519775390625,-1.2585859298706055,2.164517879486084
1732873211812153300,5.4651533203125,-5.500761032104492,-1.2575534582138062,2.528254508972168
1732873211822132500,5.475132568359375,-5.822772026062012,-1.3656808137893677,2.588785409927368
1732873211832142300,5.485142333984375,-5.243036270141602,-1.5445691347122192,2.4240550994873047
1732873211842152200,5.495152099609375,-3.7041234970092773,-1.8204394578933716,1.938748836517334
1732873211852131300,5.50513134765625,-2.249028205871582,-1.9586873054504395,1.4429409503936768
1732873211862141200,5.51514111328125,-1.0323600769042969,-1.9695706367492676,0.9008868336677551
1732873211872151000,5.525151123046875,-0.41952037811279297,-1.8120094537734985,0.5241691470146179
1732873211882130200,5.535130126953125,-0.3923301696777344,-1.660656452178955,0.18784064054489136
1732873211892140000,5.54514013671875,-0.8741607666015625,-1.5358316898345947,0.048327311873435974
1732873211902149600,5.555149658203125,-1.7187671661376953,-1.3914192914962769,-0.11988836526870728
1732873211912129000,5.56512890625,-2.4110207557678223,-1.2252180576324463,-0.16517242789268494
1732873211922138600,5.575138671875,-2.751980781555176,-1.026238203048706,-0.11256861686706543
1732873211932148500,5.5851484375,-2.8297481536865234,-0.6650775671005249,-0.16197848320007324
1732873211942158000,5.595157958984375,-2.722294807434082,-0.3952287435531616,-0.33362647891044617
1732873211952137500,5.605137451171875,-2.4231834411621094,-0.19018769264221191,-0.381131112575531
1732873211962147300,5.615147216796875,-2.08602237701416,0.0060694217681884766,-0.42480164766311646
1732873211972157200,5.6251572265625,-1.674461841583252,0.07434368133544922,-0.5008531808853149
1732873211982136300,5.63513623046875,-1.3219013214111328,0.15387272834777832,-0.5105753540992737
1732873211992146200,5.645146240234375,-0.7777843475341797,0.21478641033172607,-0.35154181718826294
1732873212002155800,5.65515576171875,-0.3388338088989258,0.14202558994293213,-0.2490631341934204
1732873212012135200,5.66513525390625,0.17489051818847656,0.15664148330688477,-0.11588168144226074
1732873212022144800,5.675144775390625,0.7443027496337891,0.13866758346557617,0.0007933974266052246
1732873212032154600,5.685154541015625,1.180551528930664,0.10799479484558105,0.14195334911346436
1732873212042133800,5.6951337890625,1.5149660110473633,0.021726369857788086,0.3117992579936981
1732873212052143600,5.7051435546875,1.6551637649536133,-0.07149112224578857,0.5632604360580444
1732873212062153500,5.715153564453125,1.5359373092651367,-0.0881960391998291,0.765040397644043
1732873212072132600,5.725132568359375,1.2985467910766602,-0.0747596025466919,0.8128329515457153
1732873212082142500,5.735142578125,0.9885902404785156,0.07651245594024658,0.7425135374069214
1732873212092152300,5.74515234375,0.6972341537475586,0.3516833782196045,0.6399821043014526
1732873212102131500,5.75513134765625,0.21862030029296875,0.533806324005127,0.5611898303031921
1732873212112141000,5.76514111328125,-0.22951889038085938,0.5785307884216309,0.6309902667999268
1732873212122151000,5.77515087890625,-0.48268890380859375,0.5226880311965942,0.7697230577468872
1732873212132130000,5.785130126953125,-0.38963890075683594,0.44387733936309814,0.8729743361473083
1732873212142140000,5.795139892578125,-0.07132911682128906,0.302567720413208,0.9866683483123779
1732873212152149800,5.805149658203125,0.6556148529052734,0.039002060890197754,1.0241272449493408
1732873212162129000,5.81512890625,1.479487419128418,-0.35759270191192627,1.1581549644470215
1732873212172138800,5.825138671875,2.5728302001953125,-0.6790862083435059,1.2228679656982422
1732873212182148600,5.835148681640625,3.5652952194213867,-0.7942969799041748,0.9836452007293701
1732873212192158200,5.845158203125,4.482242584228516,-0.6976535320281982,0.6382725834846497
1732873212202137600,5.8551376953125,5.235060691833496,-0.5704278349876404,0.12749546766281128
1732873212212147200,5.865147216796875,5.655708312988281,0.1653996706008911,-0.2444990575313568
1732873212222157000,5.875156982421875,5.470471382141113,0.5991261005401611,-0.016842573881149292
1732873212232136200,5.88513623046875,4.201502799987793,0.5086135864257812,0.29857200384140015
1732873212242146000,5.89514599609375,2.6932458877563477,-0.08099091053009033,0.7120864391326904
1732873212252156000,5.905156005859375,1.7667884826660156,-1.017693281173706,0.8051040172576904
1732873212262135000,5.915135009765625,1.8163700103759766,-1.9636037349700928,0.3841143250465393
1732873212272145000,5.925144775390625,2.8689470291137695,-2.335378646850586,-0.6998851895332336
1732873212282154800,5.93515478515625,4.335294723510742,-2.2508952617645264,-1.912177324295044
1732873212292134000,5.9451337890625,4.817931175231934,-1.978651523590088,-2.5895159244537354
1732873212302143500,5.9551435546875,3.930758476257324,-1.677236795425415,-2.7926383018493652
1732873212312153300,5.9651533203125,2.4075965881347656,-1.5093430280685425,-2.740981340408325
1732873212322132500,5.975132568359375,0.1256732940673828,-1.3766977787017822,-2.1279098987579346
1732873212332142300,5.985142333984375,-1.9862351417541504,-1.38225257396698,-1.3522746562957764
1732873212342152200,5.995152099609375,-4.0660271644592285,-1.436758279800415,-0.5926952362060547
1732873212352131300,6.00513134765625,-5.696436882019043,-1.483436942100525,-0.07690286636352539
1732873212362141200,6.01514111328125,-6.304746627807617,-1.5676803588867188,0.06704294681549072
1732873212372151000,6.025151123046875,-6.217598915100098,-1.6593244075775146,0.18746012449264526
1732873212382130200,6.035130126953125,-5.406834125518799,-1.8148987293243408,-0.049450039863586426
1732873212392140000,6.04514013671875,-3.848365306854248,-1.8874893188476562,-0.39069682359695435
1732873212402149600,6.055149658203125,-2.6552529335021973,-2.00325870513916,-0.6657180190086365
1732873212412129000,6.06512890625,-1.6313848495483398,-2.1270253658294678,-0.7973060011863708
1732873212422138600,6.075138671875,-1.1723909378051758,-2.124448776245117,-0.8522749543190002
1732873212432148500,6.0851484375,-1.0344161987304688,-2.0700583457946777,-0.8243237733840942
1732873212442158000,6.095157958984375,-1.1230850219726562,-1.9511823654174805,-0.6973273754119873
1732873212452137500,6.105137451171875,-1.447662353515625,-1.766941785812378,-0.497772216796875
1732873212462147300,6.115147216796875,-1.7429404258728027,-1.5517480373382568,-0.26607149839401245
1732873212472157200,6.1251572265625,-2.103426933288574,-1.2947027683258057,-0.18842566013336182
1732873212482136300,6.13513623046875,-2.350843906402588,-1.0728371143341064,-0.08120253682136536
1732873212492146200,6.145146240234375,-2.477264404296875,-0.9180282354354858,0.0007872879505157471
1732873212502155800,6.15515576171875,-2.3872108459472656,-0.7043149471282959,0.11507207155227661
1732873212512135200,6.16513525390625,-2.2484045028686523,-0.5073878765106201,0.17109414935112
1732873212522144800,6.175144775390625,-2.0415902137756348,-0.24591755867004395,0.20211012661457062
1732873212532154600,6.185154541015625,-1.9077696800231934,-0.021225929260253906,0.1453162282705307
1732873212542133800,6.1951337890625,-1.6047959327697754,0.1034393310546875,0.17795513570308685
1732873212552143600,6.2051435546875,-1.3595514297485352,0.13091397285461426,0.27763140201568604
1732873212562153500,6.215153564453125,-0.9684419631958008,0.166398286819458,0.2815394103527069
1732873212572132600,6.225132568359375,-0.4265594482421875,0.18126749992370605,0.2260562777519226
1732873212582142500,6.235142578125,0.12281417846679688,0.027776479721069336,0.149887353181839
1732873212592152300,6.24515234375,0.8666915893554688,-0.06330275535583496,-0.01666298508644104
1732873212602131500,6.25513134765625,1.5850152969360352,-0.13165605068206787,-0.25256115198135376
1732873212612141000,6.26514111328125,2.3382482528686523,-0.13071417808532715,-0.5103698372840881
1732873212622151000,6.27515087890625,2.9829912185668945,-0.17050409317016602,-0.6316848397254944
1732873212632130000,6.285130126953125,3.550853729248047,-0.18080556392669678,-0.5806981921195984
1732873212642140000,6.295139892578125,3.822842597961426,-0.1521064043045044,-0.5223795771598816
1732873212652149800,6.305149658203125,3.8576622009277344,-0.011122584342956543,-0.4888029098510742
1732873212662129000,6.31512890625,3.782011032104492,0.11624419689178467,-0.5188075304031372
1732873212672138800,6.325138671875,3.5286169052124023,0.36103367805480957,-0.4730757176876068
1732873212682148600,6.335148681640625,3.138134002685547,0.59490966796875,-0.42157959938049316
1732873212692158200,6.345158203125,2.737363815307617,0.5655834674835205,-0.37522411346435547
1732873212702137600,6.3551376953125,2.3501052856445312,0.19339251518249512,0.014971360564231873
1732873212712147200,6.365147216796875,2.1556472778320312,0.021482467651367188,0.4445009231567383
1732873212722157000,6.375156982421875,2.339510917663574,0.013687849044799805,0.7933089137077332
1732873212732136200,6.38513623046875,2.7714691162109375,0.034055113792419434,0.8872148394584656
1732873212742146000,6.39514599609375,3.072972297668457,-0.2632296085357666,1.1032929420471191
1732873212752156000,6.405156005859375,2.796539306640625,-0.9228774905204773,1.4940922260284424
1732873212762135000,6.415135009765625,2.739222526550293,-1.8013279438018799,1.9750272035598755
1732873212772145000,6.425144775390625,3.409749984741211,-2.649223566055298,2.1012890338897705
1732873212782154800,6.43515478515625,4.125247001647949,-3.416470527648926,1.976855993270874
1732873212792134000,6.4451337890625,4.884315490722656,-3.7891929149627686,1.8046510219573975
1732873212802143500,6.4551435546875,5.219239234924316,-3.8073320388793945,1.7538173198699951
1732873212812153300,6.4651533203125,4.524886131286621,-3.480691909790039,1.7404919862747192
1732873212822132500,6.475132568359375,3.239564895629883,-3.026564121246338,1.7202670574188232
1732873212832142300,6.485142333984375,1.1177043914794922,-2.518449544906616,1.8920304775238037
1732873212842152200,6.495152099609375,-0.8925724029541016,-2.126406669616699,2.0649776458740234
1732873212852131300,6.50513134765625,-2.9825730323791504,-1.802882432937622,2.3535807132720947
1732873212862141200,6.51514111328125,-4.452457427978516,-1.6325929164886475,2.484344720840454
1732873212872151000,6.525151123046875,-5.460750579833984,-1.4457675218582153,2.4414377212524414
1732873212882130200,6.535130126953125,-5.7410430908203125,-1.384710431098938,2.296253204345703
1732873212892140000,6.54514013671875,-5.423494338989258,-1.317467212677002,1.952582597732544
1732873212902149600,6.555149658203125,-4.427372455596924,-1.2441151142120361,1.4103584289550781
1732873212912129000,6.56512890625,-3.3193631172180176,-1.3669010400772095,1.2232080698013306
1732873212922138600,6.575138671875,-2.312314987182617,-1.414322018623352,1.226513147354126
1732873212932148500,6.5851484375,-1.8124852180480957,-1.3023005723953247,1.136749029159546
1732873212942158000,6.595157958984375,-1.630444049835205,-1.0761816501617432,0.9289880990982056
1732873212952137500,6.605137451171875,-1.7238211631774902,-0.8738324642181396,0.7996969223022461
1732873212962147300,6.615147216796875,-2.080134868621826,-0.6160538196563721,0.6967635154724121
1732873212972157200,6.6251572265625,-2.4360294342041016,-0.42255187034606934,0.5523309707641602
1732873212982136300,6.63513623046875,-2.698902130126953,-0.2639038562774658,0.41366130113601685
1732873212992146200,6.645146240234375,-2.7191576957702637,-0.22672343254089355,0.17879736423492432
1732873213002155800,6.65515576171875,-2.407008647918701,-0.179732084274292,0.10277867317199707
1732873213012135200,6.66513525390625,-1.917497158050537,-0.1929769515991211,0.04408061504364014
1732873213022144800,6.675144775390625,-1.302907943725586,-0.2662012577056885,0.09993010759353638
1732873213032154600,6.685154541015625,-0.6538724899291992,-0.2619333267211914,-0.020270824432373047
1732873213042133800,6.6951337890625,-0.09918689727783203,-0.2899048328399658,0.001283407211303711
1732873213052143600,6.7051435546875,0.5631599426269531,-0.2624380588531494,-0.03304511308670044
1732873213062153500,6.715153564453125,1.075190544128418,-0.19838714599609375,0.03150749206542969
1732873213072132600,6.725132568359375,1.4235115051269531,-0.19766521453857422,0.14555585384368896
1732873213082142500,6.735142578125,1.4842796325683594,-0.10346460342407227,0.17905282974243164
1732873213092152300,6.74515234375,1.3809289932250977,-0.0903470516204834,0.39298003911972046
1732873213102131500,6.75513134765625,1.2029590606689453,-0.07364726066589355,0.5943377017974854
1732873213112141000,6.76514111328125,0.9860200881958008,-0.013777971267700195,0.8145337700843811
1732873213122151000,6.77515087890625,0.8784246444702148,0.07363104820251465,0.8489560484886169
1732873213132130000,6.785130126953125,0.7748756408691406,0.20397067070007324,0.9405907392501831
1732873213142140000,6.795139892578125,0.5128984451293945,0.2522542476654053,1.1832329034805298
1732873213152149800,6.805149658203125,-0.002044677734375,0.2504384517669678,1.3656606674194336
1732873213162129000,6.81512890625,-0.5541830062866211,0.22118663787841797,1.499403476715088
1732873213172138800,6.825138671875,-0.671574592590332,0.17793774604797363,1.4104723930358887
1732873213182148600,6.835148681640625,-0.5306577682495117,0.10838770866394043,1.4831206798553467
1732873213192158200,6.845158203125,-0.2328014373779297,0.09970974922180176,1.4848519563674927
1732873213202137600,6.8551376953125,0.22659015655517578,-0.07229828834533691,1.361957311630249
1732873213212147200,6.865147216796875,0.8330812454223633,-0.3550398349761963,1.2538294792175293
1732873213222157000,6.875156982421875,1.5781097412109375,-0.6384521722793579,0.9358087778091431
1732873213232136200,6.88513623046875,2.2527637481689453,-0.5583686828613281,0.37710118293762207
1732873213242146000,6.89514599609375,2.929793357849121,-0.09349441528320312,-0.3282874822616577
1732873213252156000,6.905156005859375,3.2567062377929688,0.2900993824005127,-0.9397926330566406
1732873213262135000,6.915135009765625,2.9929285049438477,0.23584842681884766,-0.9631343483924866
1732873213272145000,6.925144775390625,2.336933135986328,-0.4291125535964966,-0.3839998245239258
1732873213282154800,6.93515478515625,2.086491584777832,-1.5160460472106934,0.23182392120361328
1732873213292134000,6.9451337890625,2.604768753051758,-3.0688605308532715,0.6666537523269653
1732873213302143700,6.955143798828125,3.9358768463134766,-4.075748443603516,0.3791368007659912
1732873213312153300,6.9651533203125,6.4254865646362305,-4.591710090637207,-0.3111024498939514
1732873213322132500,6.975132568359375,7.879700660705566,-4.472112655639648,-0.7137488722801208
1732873213332142300,6.985142333984375,7.900228500366211,-3.5393505096435547,-1.140899896621704
1732873213342152200,6.995152099609375,6.489354133605957,-2.54868745803833,-1.3093092441558838
1732873213352131300,7.00513134765625,3.8200864791870117,-1.7273098230361938,-1.3783342838287354
1732873213362141200,7.01514111328125,0.5073099136352539,-1.3833022117614746,-1.009993076324463
1732873213372151000,7.025151123046875,-2.5486302375793457,-1.2469426393508911,-0.5782647132873535
1732873213382130200,7.035130126953125,-5.589020729064941,-0.943902850151062,-0.1442916989326477
1732873213392140000,7.04514013671875,-7.500482559204102,-0.5557637214660645,0.12986189126968384
1732873213402149600,7.055149658203125,-8.757547378540039,-0.32411670684814453,0.3388898968696594
1732873213412129000,7.06512890625,-9.02989387512207,-0.3983025550842285,0.5290813446044922
1732873213422138600,7.075138671875,-8.121830940246582,-0.8293485641479492,0.6841033697128296
1732873213432148500,7.0851484375,-6.17210578918457,-1.5507678985595703,0.5244371294975281
1732873213442158000,7.095157958984375,-3.376514434814453,-2.2572107315063477,0.3260929584503174
1732873213452137500,7.105137451171875,-0.92657470703125,-2.6857268810272217,0.07023763656616211
1732873213462147300,7.115147216796875,1.5385313034057617,-2.8219363689422607,-0.43560791015625
1732873213472157200,7.1251572265625,3.1977062225341797,-2.821014404296875,-0.7484233379364014
1732873213482136300,7.13513623046875,3.761776924133301,-2.6534945964813232,-0.9534618854522705
1732873213492146200,7.145146240234375,3.5650243759155273,-2.355210781097412,-1.0683587789535522
1732873213502155800,7.15515576171875,2.5121097564697266,-2.0781869888305664,-0.7428240776062012
1732873213512135200,7.16513525390625,0.8683567047119141,-1.6058573722839355,-0.4455997943878174
1732873213522144800,7.175144775390625,-0.3049354553222656,-1.202088713645935,-0.07131350040435791
1732873213532154600,7.185154541015625,-1.171860694885254,-0.8802187442779541,0.3991929292678833
1732873213542133800,7.1951337890625,-1.6564860343933105,-0.6820101737976074,0.660027265548706
1732873213552143600,7.2051435546875,-1.6840810775756836,-0.4807857275009155,0.7434351444244385
1732873213562153500,7.215153564453125,-1.2512941360473633,-0.30675315856933594,0.7357766628265381
1732873213572132600,7.225132568359375,-0.7836151123046875,-0.2171497344970703,0.7099759578704834
1732873213582142500,7.235142578125,-0.5317859649658203,-0.20961594581604004,0.6465150117874146
1732873213592152300,7.24515234375,-0.33197689056396484,-0.22230792045593262,0.6458551287651062
1732873213602131500,7.25513134765625,-0.022055625915527344,-0.15236949920654297,0.6793704032897949
1732873213612141000,7.26514111328125,0.20712566375732422,-0.10473895072937012,0.677648663520813
1732873213622151000,7.27515087890625,0.3296775817871094,-0.09560918807983398,0.5646366477012634
1732873213632130000,7.285130126953125,0.4323577880859375,-0.13884592056274414,0.4431118667125702
1732873213642140000,7.295139892578125,0.5799016952514648,-0.2155907154083252,0.2208889126777649
1732873213652149800,7.305149658203125,0.5711488723754883,-0.2732095718383789,0.06082332134246826
1732873213662129000,7.31512890625,0.4563713073730469,-0.3218994140625,-0.06265997886657715
1732873213672138800,7.325138671875,0.26220703125,-0.35297584533691406,-0.0955820083618164
1732873213682148600,7.335148681640625,0.023415565490722656,-0.3384871482849121,-0.16275835037231445
1732873213692158200,7.345158203125,-0.1431865692138672,-0.3125481605529785,-0.26042574644088745
1732873213702137600,7.3551376953125,-0.23571014404296875,-0.18254542350769043,-0.430794894695282
1732873213712147200,7.365147216796875,-0.36221885681152344,-0.05002403259277344,-0.5970010161399841
1732873213722157000,7.375156982421875,-0.5634546279907227,0.1172018051147461,-0.49508899450302124
1732873213732136200,7.38513623046875,-0.7309894561767578,0.20018959045410156,-0.36434346437454224
1732873213742146000,7.39514599609375,-0.9587736129760742,0.15669536590576172,-0.26873642206192017
1732873213752156000,7.405156005859375,-1.1455955505371094,0.08736801147460938,-0.18513637781143188
1732873213762135000,7.415135009765625,-1.1323442459106445,0.05684089660644531,-0.11587977409362793
1732873213772145000,7.425144775390625,-0.684046745300293,-0.013497591018676758,-0.13178759813308716
1732873213782154800,7.43515478515625,-0.07177352905273438,-0.11363792419433594,-0.10444140434265137
1732873213792134000,7.4451337890625,0.7342567443847656,-0.2816823720932007,-0.10321283340454102
1732873213802143500,7.4551435546875,1.527155876159668,-0.35460686683654785,-0.178991436958313
1732873213812153300,7.4651533203125,1.818868637084961,-0.47019970417022705,-0.2907308340072632
1732873213822132500,7.475132568359375,1.7727060317993164,-0.6100056171417236,-0.2961236238479614
1732873213832142300,7.485142333984375,1.02978515625,-0.6875811815261841,-0.5184664726257324
1732873213842152200,7.495152099609375,0.03573036193847656,-0.7643529176712036,-0.3382164239883423
1732873213852131300,7.50513134765625,-0.7089462280273438,-0.7602490186691284,0.24838769435882568
1732873213862141200,7.51514111328125,-1.3335399627685547,-0.6638519763946533,0.5906119346618652
1732873213872151000,7.525151123046875,-1.4984111785888672,-0.4101593494415283,0.7690858840942383
1732873213882130200,7.535130126953125,-1.0599565505981445,0.2389514446258545,0.7375881671905518
1732873213892140000,7.54514013671875,-0.47315406799316406,0.7199764251708984,0.7889772653579712
1732873213902149600,7.555149658203125,0.1263408660888672,0.7252399921417236,1.0398898124694824
1732873213912129000,7.56512890625,0.9260978698730469,0.026753902435302734,1.914903163909912
1732873213922138600,7.575138671875,1.7602262496948242,-0.8964351415634155,2.3515548706054688
1732873213932148500,7.5851484375,3.3923301696777344,-2.469061851501465,2.3406729698181152
1732873213942158000,7.595157958984375,5.396419525146484,-3.9014058113098145,2.1597888469696045
1732873213952137500,7.605137451171875,7.641740798950195,-5.030082702636719,1.7807464599609375
1732873213962147300,7.615147216796875,9.589004516601562,-5.268496513366699,1.8148249387741089
1732873213972157200,7.6251572265625,9.545373916625977,-4.5209059715271,2.123135566711426
1732873213982136300,7.63513623046875,7.291049957275391,-3.22977614402771,2.064054489135742
1732873213992146200,7.645146240234375,3.815011978149414,-2.1864264011383057,2.152143716812134
1732873214002156000,7.655156005859375,0.8371963500976562,-1.3532261848449707,2.582991600036621
1732873214012135200,7.66513525390625,-2.2695651054382324,-0.6532087326049805,3.0698533058166504
1732873214022144800,7.675144775390625,-4.775296211242676,-0.2470017671585083,3.5584757328033447
1732873214032154600,7.685154541015625,-6.1949849128723145,-0.037531137466430664,4.02420711517334
1732873214042133800,7.6951337890625,-6.783778190612793,-0.03307032585144043,4.259768009185791
1732873214052143600,7.7051435546875,-6.291262626647949,-0.2368084192276001,4.327099323272705
1732873214062153500,7.715153564453125,-4.170733451843262,-0.5189220905303955,4.411205291748047
1732873214072132600,7.725132568359375,-2.3467140197753906,-0.8245776891708374,4.190665245056152
1732873214082142500,7.735142578125,-0.5274810791015625,-1.301558017730713,3.8325953483581543
1732873214092152300,7.74515234375,0.5359001159667969,-1.51466703414917,3.592578887939453
1732873214102131500,7.75513134765625,1.1355915069580078,-1.5928435325622559,3.1486644744873047
1732873214112141000,7.76514111328125,1.2048664093017578,-1.4676234722137451,2.8577513694763184
1732873214122151000,7.77515087890625,0.8331928253173828,-1.2897143363952637,2.756340980529785
1732873214132130000,7.785130126953125,0.06345748901367188,-1.2928812503814697,2.8828978538513184
1732873214142140000,7.795139892578125,-0.5637636184692383,-1.3391969203948975,2.9980850219726562
1732873214152149800,7.805149658203125,-0.8966140747070312,-1.2986475229263306,3.091395854949951
1732873214162129000,7.81512890625,-1.0814151763916016,-1.2674267292022705,2.7728843688964844
1732873214172138800,7.825138671875,-0.9593896865844727,-1.3145461082458496,2.6419079303741455
1732873214182148600,7.835148681640625,-0.7088127136230469,-1.3774833679199219,2.5908966064453125
1732873214192158200,7.845158203125,-0.13855743408203125,-1.4672152996063232,2.3686084747314453
1732873214202137600,7.8551376953125,0.42292022705078125,-1.5621243715286255,2.1153037548065186
1732873214212147200,7.865147216796875,0.884490966796875,-1.5528342723846436,1.8241281509399414
1732873214222157000,7.875156982421875,1.1363792419433594,-1.4502140283584595,1.5918333530426025
1732873214232136200,7.88513623046875,1.160172462463379,-1.222589135169983,1.3379069566726685
1732873214242146000,7.89514599609375,0.861567497253418,-1.0070089101791382,1.3307774066925049
1732873214252156000,7.905156005859375,0.5638189315795898,-0.8313428163528442,1.460265040397644
1732873214262135000,7.915135009765625,0.11691093444824219,-0.18220460414886475,0.8766146898269653
1732873214272145000,7.925144775390625,-0.24202823638916016,0.11669093370437622,0.6880802512168884
1732873214282154800,7.93515478515625,-0.3809995651245117,0.34032565355300903,0.6625655889511108
1732873214292134000,7.9451337890625,-0.27486610412597656,0.32545799016952515,0.9046345949172974
1732873214302143500,7.9551435546875,-0.020377159118652344,0.31761434674263,1.2074170112609863
1732873214312153300,7.9651533203125,0.23653316497802734,0.38097095489501953,1.2758748531341553
1732873214322132500,7.975132568359375,0.6898746490478516,0.4830748736858368,1.1405513286590576
1732873214332142300,7.985142333984375,1.057267189025879,0.40417158603668213,1.1364976167678833
1732873214342152200,7.995152099609375,1.2576608657836914,0.5089316964149475,1.0317583084106445
1732873214352131300,8.00513134765625,1.298370361328125,0.6864551305770874,0.7982845306396484
1732873214362141200,8.01514111328125,1.1314163208007812,0.8947868347167969,0.427646279335022
1732873214372151000,8.025151123046875,0.7709312438964844,1.1907857656478882,0.07439112663269043
1732873214382130200,8.035130126953124,0.25265026092529297,1.4083629846572876,-0.12144976854324341
1732873214392140000,8.04514013671875,-0.19387149810791016,1.6036455631256104,-0.3350059390068054
1732873214402149600,8.055149658203124,-0.521397590637207,1.760617733001709,-0.4602334797382355
1732873214412129000,8.06512890625,-0.8950519561767578,1.5744584798812866,-0.21796280145645142
1732873214422139000,8.075138916015625,-1.1852941513061523,1.4538986682891846,-0.179265558719635
1732873214432148500,8.0851484375,-1.3345775604248047,1.258471965789795,-0.39463046193122864
1732873214442158000,8.095157958984375,-1.2352848052978516,1.0206706523895264,-0.6569093465805054
1732873214452137500,8.105137451171874,-0.9233026504516602,0.7630608081817627,-1.037097454071045
1732873214462147300,8.115147216796874,-0.49175071716308594,0.5089035630226135,-1.3637685775756836
1732873214472157200,8.1251572265625,-0.08640003204345703,0.15433913469314575,-1.5491628646850586
1732873214482136300,8.13513623046875,0.2931060791015625,-0.3339512050151825,-1.318628191947937
1732873214492146200,8.145146240234375,0.5423564910888672,-0.5552480220794678,-1.0881417989730835
1732873214502156000,8.155156005859375,0.7826662063598633,-0.44123703241348267,-1.2104532718658447
1732873214512135200,8.16513525390625,0.9419364929199219,-0.07767391204833984,-1.3396514654159546
1732873214522144800,8.175144775390624,1.087209701538086,0.5063251256942749,-1.4060084819793701
1732873214532154600,8.185154541015624,0.8473291397094727,1.0690968036651611,-1.5919067859649658
1732873214542133800,8.1951337890625,-0.014814376831054688,1.3344368934631348,-1.71159029006958
1732873214552143600,8.2051435546875,-0.2625999450683594,0.9965788125991821,-1.3320506811141968
1732873214562153500,8.215153564453125,0.21782302856445312,-0.12238556146621704,-0.4992709755897522
1732873214572132600,8.225132568359374,1.5810298919677734,-1.5924098491668701,-0.1267603039741516
1732873214582142500,8.235142578125,4.109460830688477,-3.685285806655884,-0.09497196972370148
1732873214592152300,8.24515234375,7.361276626586914,-5.1110734939575195,0.014833725988864899
1732873214602131500,8.25513134765625,9.804094314575195,-5.298966407775879,-0.5403672456741333
1732873214612141000,8.26514111328125,10.48511791229248,-4.740342617034912,-1.1523514986038208
1732873214622151000,8.27515087890625,9.357001304626465,-3.7221763134002686,-1.5168061256408691
1732873214632130000,8.285130126953124,5.99256706237793,-2.572664499282837,-2.0354580879211426
1732873214642140000,8.295139892578124,2.529078483581543,-1.7163715362548828,-1.6763447523117065
1732873214652149800,8.305149658203124,-1.3690519332885742,-0.8803176879882812,-1.1086673736572266
1732873214662129000,8.31512890625,-5.319824695587158,-1.0925536155700684,-2.1422855854034424
1732873214672138800,8.325138671875,-6.968839645385742,-0.29207801818847656,-0.5757015347480774
1732873214682148600,8.335148681640625,-7.398362159729004,0.5772846937179565,-1.3443292379379272
1732873214692158200,8.345158203125,-7.5850348472595215,1.009572982788086,-1.8682888746261597
1732873214702137600,8.3551376953125,-7.200137138366699,-0.4625343084335327,-1.3378878831863403
1732873214712147200,8.365147216796874,-6.2361226081848145,-1.6518741846084595,-0.9470196962356567
1732873214722157000,8.375156982421874,-3.8018016815185547,-2.182920455932617,-1.415672779083252
1732873214732136200,8.38513623046875,-1.2436637878417969,-2.5126841068267822,-2.4544341564178467
1732873214742146000,8.39514599609375,1.6552095413208008,-2.4879350662231445,-3.0383524894714355
1732873214752156000,8.405156005859375,3.25067138671875,-2.1724300384521484,-3.391289472579956
1732873214762135000,8.415135009765624,3.6957054138183594,-1.797876238822937,-4.028303146362305
1732873214772145000,8.425144775390624,3.573195457458496,-1.6006118059158325,-3.6812825202941895
1732873214782154800,8.43515478515625,2.116429328918457,-1.5678160190582275,-3.304417610168457
1732873214792134000,8.4451337890625,0.3425931930541992,-1.329379677772522,-3.2315170764923096
1732873214802143700,8.455143798828125,-1.024958610534668,-1.0105068683624268,-2.850498676300049
1732873214812153300,8.4651533203125,-1.795076847076416,-0.9195735454559326,-2.3248648643493652
1732873214822132500,8.475132568359374,-2.2352495193481445,-0.7929449081420898,-2.020273208618164
1732873214832142300,8.485142333984374,-2.2819743156433105,-0.5987006425857544,-1.7903306484222412
1732873214842152200,8.495152099609374,-2.234266757965088,-0.4085143804550171,-1.6217957735061646
1732873214852131300,8.50513134765625,-2.2431650161743164,-0.31794488430023193,-1.365190029144287
1732873214862141200,8.51514111328125,-2.524139881134033,-0.44714903831481934,-1.2285209894180298
1732873214872151000,8.525151123046875,-1.968843936920166,-0.31171977519989014,-0.6890182495117188
1732873214882130200,8.535130126953124,-1.5189590454101562,0.16584718227386475,-0.938040018081665
1732873214892140000,8.54514013671875,-1.939610481262207,0.050046563148498535,-0.7791619896888733
1732873214902149600,8.555149658203124,-1.7571115493774414,-0.056590914726257324,-0.3992812931537628
1732873214912129000,8.56512890625,-1.4536352157592773,0.1874479055404663,-0.746950626373291
1732873214922139000,8.575138916015625,-0.997650146484375,0.4978893995285034,-0.811988115310669
1732873214932148500,8.5851484375,-0.8125286102294922,0.5692291259765625,-0.9455639123916626
1732873214942158000,8.595157958984375,-0.5725631713867188,0.542631983757019,-1.1694365739822388
1732873214952137500,8.605137451171874,-0.21787643432617188,0.45398151874542236,-1.304280400276184
1732873214962147300,8.615147216796874,0.11612892150878906,0.3687903881072998,-1.2719628810882568
1732873214972157200,8.6251572265625,0.2718677520751953,0.20708632469177246,-1.0939055681228638
1732873214982136300,8.63513623046875,0.4170961380004883,0.04388535022735596,-0.7235255241394043
1732873214992146200,8.645146240234375,0.6133241653442383,0.025926589965820312,-0.6676356792449951
1732873215002156000,8.655156005859375,0.7456378936767578,0.11497139930725098,-0.7142797708511353
1732873215012135200,8.66513525390625,0.6705389022827148,0.25449883937835693,-0.7500396966934204
1732873215022145000,8.67514501953125,0.4123392105102539,0.3316246271133423,-0.5285343527793884
1732873215032154600,8.685154541015624,0.14639854431152344,0.4234539270401001,-0.36137670278549194
1732873215042133800,8.6951337890625,-0.1785411834716797,0.49507761001586914,-0.21550524234771729
1732873215052143600,8.7051435546875,-0.6609277725219727,0.6526902914047241,-0.2113412618637085
1732873215062153500,8.715153564453125,-0.9480838775634766,0.7151006460189819,-0.21947264671325684
1732873215072132600,8.725132568359374,-1.053232192993164,0.7210367918014526,-0.28280842304229736
1732873215082142500,8.735142578125,-0.8961677551269531,0.5761573314666748,-0.26447439193725586
1732873215092152300,8.74515234375,-0.7119846343994141,0.4149610996246338,-0.4737435579299927
1732873215102131500,8.75513134765625,-0.3656473159790039,0.2902059555053711,-0.7116420269012451
1732873215112141300,8.765141357421875,0.3030099868774414,0.17165088653564453,-0.7426496744155884
1732873215122151000,8.77515087890625,0.7013883590698242,0.09468817710876465,-0.8004424571990967
1732873215132130000,8.785130126953124,0.7773771286010742,0.06561446189880371,-0.7809733152389526
1732873215142140000,8.795139892578124,0.7227258682250977,-0.03760242462158203,-0.4944138526916504
1732873215152149800,8.805149658203124,0.8678970336914062,-0.07876205444335938,-0.2144993543624878
1732873215162129000,8.81512890625,1.2211380004882812,-0.18183684349060059,0.14118599891662598
1732873215172138800,8.825138671875,1.5625333786010742,-0.38742923736572266,0.45528924465179443
1732873215182148600,8.835148681640625,2.147578239440918,-0.6129767894744873,0.9420291781425476
1732873215192158500,8.845158447265625,2.671929359436035,-0.7122976779937744,1.2360365390777588
1732873215202137600,8.8551376953125,3.2880802154541016,-0.8254729509353638,1.3466542959213257
1732873215212147200,8.865147216796874,3.662716865539551,-0.738889217376709,1.388683557510376
1732873215222157000,8.875156982421874,3.83126163482666,-0.4525890350341797,1.3837685585021973
1732873215232136200,8.88513623046875,3.8001270294189453,-0.37337684631347656,1.5704765319824219
1732873215242146000,8.89514599609375,3.4233932495117188,-0.5239472389221191,2.057866334915161
1732873215252156000,8.905156005859375,3.0872669219970703,-0.7483007907867432,2.540597438812256
1732873215262135000,8.915135009765624,3.3599414825439453,-0.9553085565567017,2.8965091705322266
1732873215272145000,8.925144775390624,4.055521011352539,-1.3076229095458984,3.2596945762634277
1732873215282154800,8.93515478515625,4.708255767822266,-1.7728586196899414,3.521449565887451
1732873215292134000,8.9451337890625,5.395807266235352,-2.375175714492798,3.872971296310425
1732873215302143500,8.9551435546875,6.084403991699219,-2.8025193214416504,4.031571388244629
1732873215312153300,8.9651533203125,6.331487655639648,-3.3376102447509766,3.73978328704834
1732873215322132500,8.975132568359374,6.271678924560547,-3.5211992263793945,3.2522847652435303
1732873215332142300,8.985142333984374,5.38437557220459,-3.4858756065368652,2.6366994380950928
1732873215342152200,8.995152099609374,3.8486080169677734,-3.2720348834991455,2.0796003341674805
1732873215352131300,9.00513134765625,1.684647560119629,-2.883474826812744,2.0028462409973145
1732873215362141200,9.01514111328125,-0.8116340637207031,-2.672102451324463,2.366537094116211
1732873215372151000,9.025151123046875,-3.006424903869629,-2.478729486465454,2.7893261909484863
1732873215382130200,9.035130126953124,-5.090190887451172,-2.1215672492980957,3.0766539573669434
1732873215392140000,9.04514013671875,-6.420659065246582,-1.879096508026123,3.2658514976501465
1732873215402149600,9.055149658203124,-7.2427167892456055,-1.7225158214569092,3.3613338470458984
1732873215412129000,9.06512890625,-7.211770057678223,-1.7362760305404663,3.176497220993042
1732873215422139000,9.075138916015625,-6.435012340545654,-1.818841814994812,2.880183458328247
1732873215432148500,9.0851484375,-5.31695556640625,-1.8815699815750122,2.4950575828552246
1732873215442158300,9.095158447265625,-4.073125839233398,-2.056253433227539,2.095470666885376
1732873215452137500,9.105137451171874,-3.1211209297180176,-2.3665268421173096,1.7265994548797607
1732873215462147300,9.115147216796874,-2.0199179649353027,-2.6895079612731934,1.343451738357544
1732873215472157200,9.1251572265625,-0.9683418273925781,-2.9252591133117676,1.1466238498687744
1732873215482136300,9.13513623046875,-0.20570945739746094,-3.0127792358398438,1.071411371231079
1732873215492146200,9.145146240234375,0.4449024200439453,-3.0344367027282715,1.0025262832641602
1732873215502156000,9.155156005859375,0.7794103622436523,-2.940639019012451,0.8651330471038818
1732873215512135200,9.16513525390625,0.865391731262207,-2.7228519916534424,0.7328797578811646
1732873215522144800,9.175144775390624,0.5795326232910156,-2.436021327972412,0.4960840940475464
1732873215532154600,9.185154541015624,0.3681793212890625,-1.8757768869400024,0.38546884059906006
1732873215542133800,9.1951337890625,0.0036830902099609375,-1.4604694843292236,0.346508264541626
1732873215552143600,9.2051435546875,-0.46506786346435547,-1.17439866065979,0.47052526473999023
1732873215562153500,9.215153564453125,-0.7713470458984375,-0.9333741664886475,0.7218936681747437
1732873215572132600,9.225132568359374,-1.029581069946289,-0.7229330539703369,0.9569032788276672
1732873215582142500,9.235142578125,-1.0549774169921875,-0.5401933193206787,1.1464736461639404
1732873215592152300,9.24515234375,-0.9730949401855469,-0.3751661777496338,1.235302209854126
1732873215602131500,9.25513134765625,-0.837092399597168,-0.1428987979888916,1.1057453155517578
1732873215612141000,9.26514111328125,-0.6134252548217773,0.07527351379394531,1.014146089553833
1732873215622151000,9.27515087890625,-0.24837970733642578,0.3209972381591797,0.9629153609275818
1732873215632130000,9.285130126953124,-0.0039014816284179688,0.5340723991394043,0.836878776550293
1732873215642140000,9.295139892578124,0.20508861541748047,0.7187788486480713,0.8361527919769287
1732873215652149800,9.305149658203124,0.37998104095458984,0.7043704986572266,0.9360982775688171
1732873215662129000,9.31512890625,0.7110157012939453,0.5413877964019775,1.0988705158233643
1732873215672138800,9.325138671875,1.1367616653442383,0.31143689155578613,1.344839096069336
1732873215682148600,9.335148681640625,1.8583402633666992,0.1231391429901123,1.1399409770965576
1732873215692158200,9.345158203125,2.533903121948242,-0.38408398628234863,1.2400199174880981
1732873215702137600,9.3551376953125,3.2171926498413086,-0.6753442287445068,1.3783966302871704
1732873215712147200,9.365147216796874,4.026750564575195,-0.961005687713623,1.326196551322937
1732873215722157000,9.375156982421874,4.501520156860352,-1.10735285282135,1.3084955215454102
1732873215732136200,9.38513623046875,4.492152214050293,-1.114125370979309,1.17776620388031
1732873215742146000,9.39514599609375,4.026053428649902,-1.0608508586883545,1.1007213592529297
1732873215752156000,9.405156005859375,3.2711496353149414,-1.0005111694335938,1.1341421604156494
1732873215762135000,9.415135009765624,2.6286706924438477,-1.0231819152832031,1.2875021696090698
1732873215772145000,9.425144775390624,1.9078502655029297,-1.1980735063552856,1.3972609043121338
1732873215782154800,9.43515478515625,1.5302705764770508,-1.3743565082550049,1.4916467666625977
1732873215792134000,9.4451337890625,1.5988082885742188,-1.3141378164291382,1.504054069519043
1732873215802143700,9.455143798828125,1.9434309005737305,-0.9676949977874756,1.1633095741271973
1732873215812153300,9.4651533203125,1.9390182495117188,-0.6490206718444824,0.8922001123428345
1732873215822132500,9.475132568359374,1.4339675903320312,-0.5438907146453857,0.7675983905792236
1732873215832142300,9.485142333984374,0.7470035552978516,-0.9213132858276367,0.8997101783752441
1732873215842152200,9.495152099609374,0.32409191131591797,-1.8494722843170166,1.2634719610214233
1732873215852131300,9.50513134765625,0.6717443466186523,-2.923372507095337,1.4915715456008911
1732873215862141200,9.51514111328125,1.6554136276245117,-3.825566053390503,0.8292742371559143
1732873215872151000,9.525151123046875,2.8779077529907227,-4.143311977386475,-0.1562901735305786
1732873215882130200,9.535130126953124,3.7849416732788086,-3.7912840843200684,-1.340120553970337
1732873215892140000,9.54514013671875,3.6427717208862305,-3.08797287940979,-2.0996181964874268
1732873215902149600,9.555149658203124,2.3579978942871094,-2.355803966522217,-2.1286520957946777
1732873215912129000,9.56512890625,0.1864147186279297,-2.0004630088806152,-1.9012267589569092
1732873215922139000,9.575138916015625,-1.928147315979004,-1.79301917552948,-1.572630524635315
1732873215932148500,9.5851484375,-4.171041488647461,-1.6456284523010254,-1.2654829025268555
1732873215942158000,9.595157958984375,-5.721563339233398,-1.6031088829040527,-0.9147300720214844
1732873215952137500,9.605137451171874,-6.893591403961182,-1.5942473411560059,-0.5926370620727539
1732873215962147300,9.615147216796874,-7.158166885375977,-1.6894197463989258,-0.45331668853759766
1732873215972157200,9.6251572265625,-6.505856513977051,-2.0117485523223877,-0.09293842315673828
1732873215982136300,9.63513623046875,-5.079251289367676,-2.3423333168029785,-0.045548439025878906
1732873215992146200,9.645146240234375,-2.849720001220703,-2.7130203247070312,-0.421319842338562
1732873216002156000,9.655156005859375,-0.9472136497497559,-3.120757579803467,-0.6177694797515869
1732873216012135200,9.66513525390625,0.8452081680297852,-3.3420896530151367,-0.533362865447998
1732873216022145000,9.67514501953125,2.06276798248291,-3.3867344856262207,-0.6010335683822632
1732873216032154600,9.685154541015624,2.6254024505615234,-3.28857159614563,-0.5359299182891846
1732873216042133800,9.6951337890625,2.6140012741088867,-3.0954134464263916,-0.3808373212814331
1732873216052143600,9.7051435546875,2.227410316467285,-2.8183295726776123,-0.16609299182891846
1732873216062153500,9.715153564453125,1.6006975173950195,-2.4493250846862793,0.15410125255584717
1732873216072132600,9.725132568359374,1.0091915130615234,-2.042510509490967,0.4886667728424072
1732873216082142500,9.735142578125,0.3932790756225586,-1.5586153268814087,1.0018675327301025
1732873216092152300,9.74515234375,-0.08066844940185547,-1.2484443187713623,1.3208086490631104
1732873216102131500,9.75513134765625,-0.5160608291625977,-0.8266162872314453,1.3520512580871582
1732873216112141300,9.765141357421875,-0.7142801284790039,-0.4555070400238037,1.3564509153366089
1732873216122151000,9.77515087890625,-0.7445335388183594,-0.16289448738098145,1.3141632080078125
1732873216132130000,9.785130126953124,-0.5232391357421875,0.031633853912353516,1.2597787380218506
1732873216142140000,9.795139892578124,-0.40672779083251953,0.056066274642944336,1.1715717315673828
1732873216152149800,9.805149658203124,-0.20018768310546875,-0.02921891212463379,1.0986430644989014
1732873216162129000,9.81512890625,0.006442070007324219,-0.12725090980529785,1.0920227766036987
1732873216172138800,9.825138671875,0.36977672576904297,-0.2518730163574219,1.042832374572754
1732873216182148600,9.835148681640625,0.7123022079467773,-0.40488100051879883,1.0751214027404785
1732873216192158500,9.845158447265625,1.1056394577026367,-0.629601001739502,1.028458833694458
1732873216202137600,9.8551376953125,1.3995904922485352,-0.7461142539978027,0.8735730648040771
1732873216212147200,9.865147216796874,1.6000242233276367,-0.7838156223297119,0.776102602481842
1732873216222157000,9.875156982421874,1.4679241180419922,-0.79705810546875,0.8158556818962097
1732873216232136200,9.88513623046875,1.2311944961547852,-0.7755608558654785,0.8622580170631409
1732873216242146000,9.89514599609375,0.9791927337646484,-0.7480168342590332,0.9720786809921265
1732873216252156000,9.905156005859375,0.8744049072265625,-0.7191131114959717,1.174452543258667
1732873216262135000,9.915135009765624,0.8916282653808594,-0.6592884063720703,1.3912599086761475
1732873216272145000,9.925144775390624,0.9291820526123047,-0.6351666450500488,1.458280086517334
1732873216282154800,9.93515478515625,1.096527099609375,-0.5660369396209717,1.3723907470703125
1732873216292134000,9.9451337890625,1.2738494873046875,-0.5251708030700684,1.1746631860733032
1732873216302143500,9.9551435546875,1.3736248016357422,-0.5880956649780273,0.8864560127258301
1732873216312153300,9.9651533203125,1.5544824600219727,-0.9363245964050293,0.8472080230712891
1732873216322132500,9.975132568359374,2.156801223754883,-1.2824033498764038,1.2089576721191406
1732873216332142300,9.985142333984374,2.9352664947509766,-1.3745641708374023,1.3639509677886963
1732873216342152200,9.995152099609374,3.6864662170410156,-1.2987490892410278,1.229686975479126
1732873216352131300,10.00513134765625,4.129134178161621,-1.3955374956130981,1.1318906545639038
1732873216362141200,10.01514111328125,4.163883209228516,-1.9554905891418457,1.3055813312530518
1732873216372151000,10.025151123046875,3.9859161376953125,-2.901627779006958,1.6779558658599854
1732873216382130200,10.035130126953124,4.190035820007324,-3.534730911254883,1.7904771566390991
1732873216392140000,10.04514013671875,4.528263092041016,-3.835373878479004,1.193540334701538
1732873216402149600,10.055149658203124,4.466724395751953,-3.848491668701172,0.4607866406440735
1732873216412129000,10.06512890625,3.7865724563598633,-3.645662546157837,0.022613197565078735
1732873216422139000,10.075138916015625,2.569517135620117,-3.246602773666382,0.3299945294857025
1732873216432148500,10.0851484375,0.742279052734375,-2.7436163425445557,0.9138943552970886
1732873216442158300,10.095158447265625,-1.2719192504882812,-2.309368371963501,1.1206343173980713
1732873216452137500,10.105137451171874,-3.4569549560546875,-1.807999610900879,1.2312275171279907
1732873216462147300,10.115147216796874,-5.059312343597412,-1.3807213306427002,1.3982925415039062
1732873216472157200,10.1251572265625,-5.931897163391113,-1.0318472385406494,1.5373059511184692
1732873216482136300,10.13513623046875,-6.308948516845703,-1.0351619720458984,1.8294835090637207
1732873216492146200,10.145146240234375,-5.983441352844238,-1.2241880893707275,1.8591548204421997
1732873216502156000,10.155156005859375,-4.784999370574951,-1.5548560619354248,1.33082914352417
1732873216512135200,10.16513525390625,-3.177938461303711,-1.8479499816894531,0.6953414678573608
1732873216522144800,10.175144775390624,-1.2161836624145508,-2.196626663208008,0.27253472805023193
1732873216532154600,10.185154541015624,0.1910257339477539,-2.4706287384033203,0.12684333324432373
1732873216542133800,10.1951337890625,1.3159008026123047,-2.4987194538116455,-0.09750288724899292
1732873216552143600,10.2051435546875,1.8638219833374023,-2.432840585708618,-0.3304983973503113
1732873216562153500,10.215153564453125,1.9351778030395508,-2.308891773223877,-0.3813238739967346
1732873216572132600,10.225132568359374,1.4560956954956055,-1.992519736289978,-0.380379319190979
1732873216582142500,10.235142578125,0.4320211410522461,-1.6082031726837158,-0.33236950635910034
1732873216592152300,10.24515234375,-0.530146598815918,-1.2462128400802612,-0.20812642574310303
1732873216602131500,10.25513134765625,-1.1904106140136719,-1.0066237449645996,-0.09198760986328125
1732873216612141000,10.26514111328125,-1.6640472412109375,-0.7596340179443359,0.07847493886947632
1732873216622151000,10.27515087890625,-1.6610469818115234,-0.6192770004272461,0.09089016914367676
1732873216632130000,10.285130126953124,-1.230224609375,-0.5420758724212646,-0.10242480039596558
1732873216642140000,10.295139892578124,-0.5964841842651367,-0.5164144039154053,-0.18992650508880615
1732873216652149800,10.305149658203124,0.19112300872802734,-0.5410983562469482,-0.1955152153968811
1732873216662129000,10.31512890625,0.629669189453125,-0.6032593250274658,-0.13455545902252197
1732873216672138800,10.325138671875,0.9367170333862305,-0.5917601585388184,-0.03289145231246948
1732873216682148600,10.335148681640625,0.9213829040527344,-0.710376501083374,0.037832438945770264
1732873216692158200,10.345158203125,0.7507553100585938,-0.9292328357696533,0.1503833532333374
1732873216702137600,10.3551376953125,0.5292844772338867,-1.1160645484924316,0.16393065452575684
1732873216712147200,10.365147216796874,0.38785648345947266,-1.2823415994644165,0.3407707214355469
1732873216722157000,10.375156982421874,0.3096027374267578,-1.2616560459136963,0.33889245986938477
1732873216732136200,10.38513623046875,0.36147403717041016,-1.069577932357788,0.3028654456138611
1732873216742146000,10.39514599609375,0.5221309661865234,-0.7494874000549316,0.32479894161224365
1732873216752156000,10.405156005859375,0.6687088012695312,-0.5833253860473633,0.3080245852470398
1732873216762135000,10.415135009765624,0.5877237319946289,-0.4375169277191162,0.5424906015396118
1732873216772145000,10.425144775390624,0.3816986083984375,-0.28768348693847656,0.770621657371521
1732873216782154800,10.43515478515625,0.09800529479980469,0.24122929573059082,0.676268458366394
1732873216792134000,10.4451337890625,0.03420543670654297,0.4568352699279785,0.5475022196769714
1732873216802143700,10.455143798828125,0.08049583435058594,0.45873570442199707,0.5962009429931641
1732873216812153300,10.4651533203125,0.4303607940673828,0.41513776779174805,0.7115220427513123
1732873216822132500,10.475132568359374,0.870600700378418,0.3625941276550293,0.7088776230812073
1732873216832142300,10.485142333984374,1.5293092727661133,0.44844913482666016,0.45968228578567505
1732873216842152200,10.495152099609374,2.051237106323242,0.7832322120666504,-0.02326616644859314
1732873216852131300,10.50513134765625,2.3544816970825195,1.2459681034088135,-0.5761586427688599
1732873216862141200,10.51514111328125,2.251368522644043,1.350550889968872,-0.7701098918914795
1732873216872151000,10.525151123046875,1.6776800155639648,0.8295252323150635,-0.5204928517341614
1732873216882130200,10.535130126953124,1.0849180221557617,-0.30945706367492676,-0.04571640491485596
1732873216892140000,10.54514013671875,1.3182506561279297,-1.874472975730896,0.4328085780143738
1732873216902149600,10.555149658203124,2.2473649978637695,-3.1895480155944824,0.4205871820449829
1732873216912129000,10.56512890625,3.889948844909668,-3.851198196411133,-0.41841208934783936
1732873216922139000,10.575138916015625,5.99754524230957,-3.6136550903320312,-1.4177992343902588
1732873216932148500,10.5851484375,6.906497955322266,-2.8907077312469482,-1.9858193397521973
1732873216942158000,10.595157958984375,5.890244483947754,-2.0843660831451416,-2.505160093307495
1732873216952137500,10.605137451171874,3.4444503784179688,-1.6979010105133057,-2.762169361114502
1732873216962147300,10.615147216796874,0.3325166702270508,-1.419753909111023,-2.5280990600585938
1732873216972157200,10.6251572265625,-2.610210418701172,-1.2099804878234863,-2.106951951980591
1732873216982136300,10.63513623046875,-5.419157028198242,-0.9125678539276123,-1.9803341627120972
1732873216992146200,10.645146240234375,-7.134760856628418,-0.7433538436889648,-1.7887823581695557
1732873217002156000,10.655156005859375,-8.214530944824219,-0.7338848114013672,-1.3174644708633423
1732873217012135200,10.66513525390625,-8.254847526550293,-0.9888246059417725,-0.9391598105430603
1732873217022145000,10.67514501953125,-6.998117446899414,-1.282855749130249,-0.910739541053772
1732873217032154600,10.685154541015624,-4.813260078430176,-1.6893203258514404,-0.6813063621520996
1732873217042133800,10.6951337890625,-2.475069046020508,-2.117757797241211,-0.3536485433578491
1732873217052143600,10.7051435546875,0.0377197265625,-2.2271955013275146,-0.27564993500709534
1732873217062153500,10.715153564453125,1.762594223022461,-2.2075726985931396,-0.34440189599990845
1732873217072132600,10.725132568359374,2.761554718017578,-2.1519482135772705,-0.3333699405193329
1732873217082142500,10.735142578125,3.052626609802246,-2.008540630340576,-0.2519451379776001
1732873217092152300,10.74515234375,2.821681022644043,-1.6807156801223755,-0.16618697345256805
1732873217102131500,10.75513134765625,2.139683723449707,-1.231672763824463,-0.07323041558265686
1732873217112141300,10.765141357421875,0.9950761795043945,-0.7366864681243896,0.061796337366104126
1732873217122151000,10.77515087890625,-0.044857025146484375,-0.3523927927017212,0.29321804642677307
1732873217132130000,10.785130126953124,-1.0144243240356445,-0.016326904296875,0.5437511205673218
1732873217142140000,10.795139892578124,-1.6809415817260742,0.23781108856201172,0.6294799447059631
1732873217152149800,10.805149658203124,-1.9380912780761719,0.42853665351867676,0.5010862350463867
1732873217162129000,10.81512890625,-1.899557113647461,0.6450185775756836,0.3535650670528412
1732873217172138800,10.825138671875,-1.6831459999084473,0.6236848831176758,0.26885345578193665
1732873217182148600,10.835148681640625,-1.341588020324707,0.5298869609832764,0.07650282979011536
1732873217192158500,10.845158447265625,-0.9949073791503906,0.3667182922363281,-0.06513693928718567
1732873217202137600,10.8551376953125,-0.34516048431396484,0.19095778465270996,-0.13278725743293762
1732873217212147200,10.865147216796874,0.2775382995605469,0.1540381908416748,-0.24141418933868408
1732873217222157000,10.875156982421874,0.9192228317260742,0.049807071685791016,-0.3285769820213318
1732873217232136200,10.88513623046875,1.4274024963378906,-0.043410539627075195,-0.35815858840942383
1732873217242146000,10.89514599609375,1.785792350769043,-0.11559641361236572,-0.36108946800231934
1732873217252156000,10.905156005859375,1.9590892791748047,-0.08598875999450684,-0.4363615810871124
1732873217262135000,10.915135009765624,1.9367198944091797,-0.019135475158691406,-0.47420865297317505
1732873217272145000,10.925144775390624,1.7704362869262695,0.07060790061950684,-0.4303894340991974
1732873217282154800,10.93515478515625,1.5391225814819336,0.1626415252685547,-0.3296818137168884
1732873217292134000,10.9451337890625,1.2495574951171875,0.16577661037445068,-0.05929425358772278
1732873217302143700,10.955143798828125,1.0879688262939453,0.12562060356140137,0.1878950297832489
1732873217312153300,10.9651533203125,1.0968246459960938,0.22275733947753906,0.31272169947624207
1732873217322132500,10.975132568359374,1.143874168395996,0.24484658241271973,0.360874742269516
1732873217332142300,10.985142333984374,1.1090450286865234,0.330033540725708,0.4180552363395691
1732873217342152200,10.995152099609374,1.0734195709228516,0.3855865001678467,0.4803251028060913
1732873217352131300,11.00513134765625,0.9104232788085938,0.1004800796508789,0.610745370388031
1732873217362141200,11.01514111328125,0.8165006637573242,-0.3339601755142212,0.7476537227630615
1732873217372151000,11.025151123046875,1.0282716751098633,-0.44592785835266113,0.7406940460205078
1732873217382130200,11.035130126953124,1.4755897521972656,-0.21093988418579102,0.4705146253108978
1732873217392140000,11.04514013671875,1.9351940155029297,-0.09679913520812988,0.2157873511314392
1732873217402149600,11.055149658203124,2.218001365661621,-0.516082763671875,0.4919481575489044
1732873217412129000,11.06512890625,2.271428108215332,-1.263019323348999,0.9370741248130798
1732873217422139000,11.075138916015625,2.5012712478637695,-2.16837477684021,1.3582696914672852
1732873217432148500,11.0851484375,2.9408655166625977,-2.8283658027648926,1.3681449890136719
1732873217442158300,11.095158447265625,3.7985668182373047,-3.233696460723877,1.0202531814575195
1732873217452137500,11.105137451171874,4.594079971313477,-3.222242832183838,0.6866946220397949
1732873217462147300,11.115147216796874,4.587343215942383,-2.965904951095581,0.7183724045753479
1732873217472157200,11.1251572265625,3.357431411743164,-2.4934375286102295,0.9189854860305786
1732873217482136300,11.13513623046875,1.6712169647216797,-2.1339364051818848,1.1362512111663818
1732873217492146200,11.145146240234375,-0.525146484375,-1.7577910423278809,1.4163410663604736
1732873217502156000,11.155156005859375,-2.205913543701172,-1.396371841430664,1.6569266319274902
1732873217512135200,11.16513525390625,-3.70456600189209,-1.1375281810760498,1.6921122074127197
1732873217522144800,11.175144775390624,-4.442728519439697,-1.0442490577697754,1.5683555603027344
1732873217532154600,11.185154541015624,-4.634754180908203,-1.0708446502685547,1.3710145950317383
1732873217542133800,11.1951337890625,-4.30239725112915,-1.1912078857421875,1.012833833694458
1732873217552143600,11.2051435546875,-3.229376792907715,-1.463921070098877,0.5925472378730774
1732873217562153500,11.215153564453125,-2.0586109161376953,-1.6901264190673828,0.414749413728714
1732873217572132600,11.225132568359374,-0.8667488098144531,-1.85874605178833,0.28234565258026123
1732873217582142500,11.235142578125,-0.12471961975097656,-1.8223049640655518,0.06142411753535271
1732873217592152300,11.24515234375,0.15107440948486328,-1.746283769607544,-0.09314122796058655
1732873217602131500,11.25513134765625,0.06774616241455078,-1.539438009262085,-0.2060701996088028
1732873217612141300,11.265141357421875,-0.42388153076171875,-1.2831672430038452,-0.2343641221523285
1732873217622151000,11.27515087890625,-1.163224220275879,-0.9307961463928223,-0.20645810663700104
1732873217632130000,11.285130126953124,-1.7905893325805664,-0.7218868732452393,-0.19030112028121948
1732873217642140000,11.295139892578124,-2.3162217140197754,-0.5294500589370728,-0.07640263438224792
1732873217652149800,11.305149658203124,-2.473374366760254,-0.38867878913879395,0.051962681114673615
1732873217662129000,11.31512890625,-2.540654182434082,-0.2913687229156494,0.12293665111064911
1732873217672138800,11.325138671875,-2.3821020126342773,-0.24271512031555176,0.2223685085773468
1732873217682148600,11.335148681640625,-1.911719799041748,-0.2538723945617676,0.32938680052757263
1732873217692158500,11.345158447265625,-1.3091087341308594,-0.2838301658630371,0.327347993850708
1732873217702137600,11.3551376953125,-0.8185844421386719,-0.23361730575561523,0.2523840665817261
1732873217712147200,11.365147216796874,-0.2829408645629883,-0.19566106796264648,0.2190876454114914
1732873217722157000,11.375156982421874,0.16643238067626953,-0.1831495761871338,0.21895897388458252
1732873217732136200,11.38513623046875,0.5110321044921875,-0.25398802757263184,0.20076915621757507
1732873217742146000,11.39514599609375,0.7965021133422852,-0.3708738088607788,0.31976914405822754
1732873217752156000,11.405156005859375,1.1761445999145508,-0.4482269287109375,0.5363441109657288
1732873217762135000,11.415135009765624,1.4275646209716797,-0.2578442096710205,0.5058475732803345
1732873217772145000,11.425144775390624,1.4793634414672852,-0.03603518009185791,0.4053420424461365
1732873217782154800,11.43515478515625,1.4079523086547852,0.15369653701782227,0.4481305778026581
1732873217792134000,11.4451337890625,1.058450698852539,0.30461621284484863,0.499349981546402
1732873217802143700,11.455143798828125,0.49313831329345703,0.37836575508117676,0.6298943758010864
1732873217812153300,11.4651533203125,-0.04183769226074219,0.43017148971557617,0.767589807510376
1732873217822132500,11.475132568359374,-0.44457054138183594,0.3743627071380615,0.9400086402893066
1732873217832142300,11.485142333984374,-0.48192501068115234,0.294619083404541,0.9533746838569641
1732873217842152200,11.495152099609374,-0.12167167663574219,0.1702878475189209,0.7995717525482178
1732873217852131300,11.50513134765625,0.4875526428222656,0.00833439826965332,0.652317225933075
1732873217862141200,11.51514111328125,1.2757568359375,-0.10378718376159668,0.4092752933502197
1732873217872151000,11.525151123046875,1.9016647338867188,-0.08477258682250977,0.004792205989360809
1732873217882130200,11.535130126953124,2.4238996505737305,0.05551767349243164,-0.4803258180618286
1732873217892140000,11.54514013671875,2.6593008041381836,0.34736597537994385,-0.9670562744140625
1732873217902149600,11.555149658203124,2.4650192260742188,0.5712151527404785,-1.2888078689575195
1732873217912129000,11.56512890625,1.9849357604980469,0.42167210578918457,-1.3816622495651245
1732873217922139000,11.575138916015625,1.6585655212402344,-0.369120717048645,-1.0470041036605835
1732873217932148500,11.5851484375,1.9577131271362305,-1.7346447706222534,-0.5090334415435791
1732873217942158300,11.595158447265625,3.00048828125,-2.9553611278533936,-0.16699066758155823
1732873217952137500,11.605137451171874,4.827432632446289,-4.012618064880371,-0.6538507342338562
1732873217962147300,11.615147216796874,6.750482559204102,-4.103239059448242,-1.2951821088790894
1732873217972157200,11.6251572265625,7.8989715576171875,-3.560235023498535,-1.764276385307312
1732873217982136300,11.63513623046875,7.15422248840332,-2.5846872329711914,-1.9115853309631348
1732873217992146200,11.645146240234375,4.778289794921875,-1.5669008493423462,-1.9135048389434814
1732873218002156000,11.655156005859375,1.8807010650634766,-1.0705714225769043,-1.7259821891784668
1732873218012135200,11.66513525390625,-1.6719374656677246,-0.7263587713241577,-1.1679866313934326
1732873218022144800,11.675144775390624,-5.013302803039551,-0.4761456251144409,-0.5199334025382996
1732873218032154600,11.685154541015624,-7.492847919464111,-0.05741286277770996,-0.2928241491317749
1732873218042133800,11.6951337890625,-9.271780967712402,0.18517184257507324,0.03666391968727112
1732873218052143600,11.7051435546875,-9.997122764587402,0.3487370014190674,0.23280665278434753
1732873218062153500,11.715153564453125,-9.76004409790039,0.028711795806884766,0.6608341336250305
1732873218072132600,11.725132568359374,-8.38338565826416,-0.604583740234375,0.9310001134872437
1732873218082142500,11.735142578125,-5.677238464355469,-1.4091551303863525,0.7782644629478455
1732873218092152300,11.74515234375,-2.837202548980713,-2.188570499420166,0.5666534900665283
1732873218102131500,11.75513134765625,0.30422019958496094,-2.7848689556121826,0.16691680252552032
1732873218112141300,11.765141357421875,2.7070608139038086,-2.9587349891662598,-0.19116605818271637
1732873218122151000,11.77515087890625,4.669835090637207,-2.9537317752838135,-0.4172840714454651
1732873218132130000,11.785130126953124,5.649594306945801,-2.6571264266967773,-0.4700751304626465
1732873218142140000,11.795139892578124,5.260405540466309,-2.237579822540283,-0.4551456570625305
1732873218152149800,11.805149658203124,3.500765800476074,-1.7653870582580566,-0.26037871837615967
1732873218162129000,11.81512890625,1.561227798461914,-1.2247005701065063,-0.00041340291500091553
1732873218172138800,11.825138671875,-0.2760181427001953,-0.7272207736968994,0.21518108248710632
1732873218182148600,11.835148681640625,-1.4490880966186523,-0.37583184242248535,0.48266515135765076
1732873218192158500,11.845158447265625,-2.0637741088867188,-0.024025321006774902,0.6643189191818237
1732873218202137600,11.8551376953125,-2.102874279022217,0.2898041009902954,0.6388188600540161
1732873218212147200,11.865147216796874,-1.941300392150879,0.42344963550567627,0.6617811918258667
1732873218222157000,11.875156982421874,-1.839956283569336,0.4957401752471924,0.8116195797920227
1732873218232136200,11.88513623046875,-1.8738470077514648,0.4824565649032593,0.8831389546394348
1732873218242146000,11.89514599609375,-1.9156670570373535,0.4201561212539673,0.975554347038269
1732873218252156000,11.905156005859375,-1.7213435173034668,0.40537822246551514,0.9565706849098206
1732873218262135000,11.915135009765624,-1.2483444213867188,0.19434833526611328,0.8383039236068726
1732873218272145000,11.925144775390624,-0.5998201370239258,-0.020259499549865723,0.7449735999107361
1732873218282154800,11.93515478515625,0.1932506561279297,-0.23404812812805176,0.5020582675933838
1732873218292134000,11.9451337890625,0.9040632247924805,-0.37563979625701904,0.22969812154769897
1732873218302143700,11.955143798828125,1.56524658203125,-0.4765828847885132,-0.01363317295908928
1732873218312647200,11.965647216796874,1.8402376174926758,-0.4993628263473511,-0.1093011349439621
1732873218322626300,11.975626220703125,1.6215190887451172,-0.5843850374221802,-0.089435875415802
1732873218332636200,11.98563623046875,1.079904556274414,-0.6238292455673218,0.1101611852645874
1732873218342646000,11.99564599609375,0.5332927703857422,-0.4999048709869385,0.1388338953256607
1732873218352625200,12.005625244140624,0.2918386459350586,-0.4796942472457886,0.26364946365356445
1732873218362635000,12.015635009765624,0.32036495208740234,-0.5621787309646606,0.42772120237350464
1732873218372644900,12.025644775390624,0.6589365005493164,-0.674758791923523,0.6004490852355957
1732873218382624000,12.0356240234375,1.1521024703979492,-0.7680041790008545,0.5994796752929688
1732873218392633900,12.0456337890625,1.6666383743286133,-0.8125655651092529,0.4171125888824463
1732873218402643500,12.0556435546875,1.868429183959961,-0.9073570370674133,0.32597780227661133
1732873218412622600,12.06562255859375,1.8036508560180664,-1.0726960897445679,0.31664568185806274
1732873218422632400,12.075632568359374,1.4390640258789062,-1.2141913175582886,0.2922886610031128
1732873218432642300,12.085642333984374,0.9253673553466797,-1.404919981956482,0.3379196524620056
1732873218442652200,12.095652099609374,0.4660806655883789,-1.4909393787384033,0.4106612205505371
1732873218452631300,12.10563134765625,-0.11520957946777344,-1.4109227657318115,0.5074695944786072
1732873218462641200,12.11564111328125,-0.6696147918701172,-0.737989068031311,0.017561018466949463
1732873218472651000,12.125651123046875,-0.6930599212646484,0.25513553619384766,0.07317373156547546
1732873218482630100,12.135630126953124,-0.8012676239013672,0.7142748832702637,-0.005563855171203613
1732873218492639700,12.1456396484375,-1.0464105606079102,0.30559229850769043,0.26899078488349915
1732873218502649600,12.155649658203124,-1.0315799713134766,-1.2827694416046143,1.8429982662200928
1732873218512628700,12.165628662109375,-0.014921188354492188,-2.615788221359253,2.8943519592285156
1732873218522638600,12.175638671875,2.175295829772949,-3.7406015396118164,3.092879056930542
1732873218532648400,12.1856484375,4.696070671081543,-4.038678169250488,2.257082462310791
1732873218542627600,12.195627685546874,7.06948184967041,-3.8503193855285645,1.740962266921997
1732873218552637400,12.205637451171874,7.710247039794922,-3.200900077819824,1.781053066253662
1732873218562647300,12.215647216796874,6.265013694763184,-2.1985361576080322,1.7915972471237183
1732873218572626400,12.22562646484375,3.975757598876953,-1.3668471574783325,1.8737571239471436
1732873218582636300,12.23563623046875,0.7099895477294922,-0.8610395789146423,2.431706428527832
1732873218592646000,12.24564599609375,-2.4115500450134277,-0.1942441463470459,2.771909236907959
1732873218602625000,12.255625,-4.5135321617126465,0.33540821075439453,2.8095459938049316
1732873218612635000,12.265634765625,-6.321786880493164,0.6335912942886353,2.9955365657806396
1732873218622644700,12.275644775390624,-7.246160984039307,0.5999858379364014,3.113553285598755
1732873218632623900,12.285623779296875,-7.318375587463379,0.18467092514038086,3.3048174381256104
1732873218642633700,12.2956337890625,-6.432710647583008,-0.5983977317810059,3.5081984996795654
1732873218652643600,12.3056435546875,-4.3788838386535645,-1.4946749210357666,3.291079521179199
1732873218662622700,12.315622802734374,-1.8944754600524902,-2.026379108428955,2.5683741569519043
1732873218672632600,12.325632568359374,0.8303775787353516,-2.3064534664154053,1.5912117958068848
1732873218682642200,12.33564208984375,2.943173408508301,-2.1754150390625,0.7620849013328552
1732873218692652000,12.345652099609374,4.6469268798828125,-1.9351471662521362,0.38325682282447815
1732873218702631200,12.355631103515625,5.214072227478027,-1.4924800395965576,0.22663336992263794
1732873218712641000,12.36564111328125,4.724570274353027,-1.0903230905532837,0.21506303548812866
1732873218722651000,12.37565087890625,3.3383445739746094,-0.6923738718032837,0.45023268461227417
1732873218732630000,12.385630126953124,1.772507667541504,-0.39515674114227295,0.6948425769805908
1732873218742639900,12.395639892578124,0.21457195281982422,-0.1382068395614624,0.9888374209403992
1732873218752649700,12.405649658203124,-0.8245983123779297,0.042545199394226074,1.3017923831939697
1732873218762628900,12.41562890625,-1.5738954544067383,0.10703587532043457,1.4760162830352783
1732873218772638500,12.425638427734375,-1.84993314743042,0.14986181259155273,1.4938510656356812
1732873218782648300,12.4356484375,-1.808650016784668,0.3107832670211792,1.3263607025146484
1732873218792627700,12.445627685546874,-1.6665840148925781,0.4100475311279297,1.2139368057250977
1732873218802637300,12.45563720703125,-1.5060348510742188,0.5204826593399048,1.1549562215805054
1732873218812647200,12.465647216796874,-1.4242525100708008,0.6316268444061279,1.1496381759643555
1732873218822626300,12.475626220703125,-1.3636207580566406,0.7724815607070923,1.0790715217590332
1732873218832636200,12.48563623046875,-1.2980718612670898,0.8137978315353394,0.9622592329978943
1732873218842646000,12.49564599609375,-1.2302942276000977,0.8065019845962524,0.924268364906311
1732873218852625200,12.505625244140624,-1.0649900436401367,0.7444322109222412,0.8738664984703064
1732873218862635000,12.515635009765624,-0.742680549621582,0.6220703125,0.647258460521698
1732873218872644900,12.525644775390624,-0.30163002014160156,0.6122419834136963,0.4632176160812378
1732873218882624000,12.5356240234375,0.0894632339477539,0.5386906862258911,0.17137151956558228
1732873218892633900,12.5456337890625,0.4431123733520508,0.5157469511032104,0.03766441345214844
1732873218902643500,12.5556435546875,0.7011985778808594,0.5737181901931763,-0.11712443828582764
1732873218912622600,12.56562255859375,1.041036605834961,0.5890618562698364,-0.25517213344573975
1732873218922632400,12.575632568359374,1.2686634063720703,0.635127067565918,-0.4754873514175415
1732873218932642300,12.585642333984374,1.381744384765625,0.5917502641677856,-0.5866191387176514
1732873218942652200,12.595652099609374,1.4210844039916992,0.7113586664199829,-0.7376840114593506
1732873218952631300,12.60563134765625,1.5062894821166992,0.8425040245056152,-0.7696776390075684
1732873218962641200,12.61564111328125,1.6276845932006836,0.9923982620239258,-0.8124771118164062
1732873218972651000,12.625651123046875,1.787649154663086,1.2115130424499512,-0.8445056676864624
1732873218982630100,12.635630126953124,2.017104148864746,1.6297260522842407,-0.8092737197875977
1732873218992639700,12.6456396484375,2.176877975463867,2.084052085876465,-0.7139919996261597
1732873219002649600,12.655649658203124,2.219158172607422,2.4589128494262695,-0.8507159948348999
1732873219012628700,12.665628662109375,2.017441749572754,2.5356380939483643,-0.9156749248504639
1732873219022638600,12.675638671875,1.8110313415527344,2.1365981101989746,-0.8169807195663452
1732873219032648400,12.6856484375,1.9819669723510742,1.0230395793914795,-0.49478626251220703
