time,seconds_elapsed,z,y,x
1732873206532050700,0.18505078125,-0.02382374368607998,-0.02076941914856434,-0.07452555745840073
1732873206542203600,0.19520361328125,-0.006719517521560192,-0.010995574295520782,-0.027488935738801956
1732873206552340500,0.205340576171875,0.003054326167330146,-0.013439035043120384,0.003054326167330146
1732873206562328300,0.215328369140625,0.007941247895359993,-0.012217304669320583,0.03420845419168472
1732873206572329500,0.22532958984375,0.012217304669320583,-0.006108652334660292,0.06475171446800232
1732873206582317300,0.2353173828125,0.01710422709584236,0.001832595793530345,0.0910189226269722
1732873206592348200,0.24534814453125,0.02076941914856434,-0.0006108652451075613,0.10873401165008545
1732873206602306000,0.25530615234375,0.021380282938480377,-0.019547687843441963,0.12095131725072861
1732873206612337400,0.26533740234375,0.013439035043120384,-0.03298672288656235,0.11239920556545258
1732873206622325500,0.275325439453125,0.010995574295520782,-0.030543262138962746,0.07941248267889023
1732873206632325600,0.28532568359375,0.01160643994808197,-0.02321287989616394,0.04703662544488907
1732873206642314500,0.295314453125,0.01160643994808197,-0.015882495790719986,0.024434609338641167
1732873206652346000,0.30534619140625,0.009773843921720982,-0.016493361443281174,0.015882495790719986
1732873206662303500,0.315303466796875,0.00733038317412138,-0.02321287989616394,0.016493361443281174
1732873206672334800,0.3253349609375,0.004886921960860491,-0.02626720629632473,0.018325956538319588
1732873206682351600,0.3353515625,0.004886921960860491,-0.019547687843441963,0.025045474991202354
1732873206692355000,0.34535498046875,0.005497787147760391,-0.012828170321881771,0.0354301854968071
1732873206702312400,0.3553125,0.01710422709584236,-0.00427605677396059,0.04398229718208313
1732873206712343800,0.36534375,0.031154127791523933,0.00733038317412138,0.05497787147760391
1732873206722332000,0.375331787109375,0.03787364438176155,0.01038470957428217,0.06352998316287994
1732873206732332800,0.385332763671875,0.031154127791523933,0.007941247895359993,0.06475171446800232
1732873206742321200,0.395321044921875,0.022602014243602753,0.0024434609804302454,0.0555887371301651
1732873206752352500,0.4053525390625,0.01160643994808197,-0.0006108652451075613,0.04153883829712868
1732873206762310100,0.41531005859375,-0.006108652334660292,0.0012217304902151227,0.02687807008624077
1732873206772341000,0.425341064453125,-0.01038470957428217,0.006719517521560192,0.02871066704392433
1732873206782329600,0.43532958984375,-0.010995574295520782,0.00855211354792118,0.028099801391363144
1732873206792330000,0.445330078125,-0.015271631069481373,0.00427605677396059,0.019547687843441963
1732873206802318600,0.455318603515625,-0.016493361443281174,0.0024434609804302454,-0.0006108652451075613
1732873206812350500,0.4653505859375,-0.01160643994808197,0.013439035043120384,-0.018325956538319588
1732873206822307600,0.4753076171875,-0.006108652334660292,0.025045474991202354,-0.028099801391363144
1732873206832339200,0.485339111328125,0.006719517521560192,0.04398229718208313,-0.025656340643763542
1732873206842327300,0.495327392578125,0.012828170321881771,0.042760565876960754,-0.01038470957428217
1732873206852328200,0.505328125,0.015882495790719986,0.031154127791523933,0.012217304669320583
1732873206862316000,0.51531591796875,0.01771509274840355,0.024434609338641167,0.036041051149368286
1732873206872348000,0.525347900390625,0.018936822190880775,0.019547687843441963,0.0555887371301651
1732873206882305000,0.535304931640625,0.021991148591041565,0.02015855349600315,0.06475171446800232
1732873206892336600,0.545336669921875,0.022602014243602753,0.021991148591041565,0.06230825558304787
1732873206902324700,0.55532470703125,0.015882495790719986,0.02932153269648552,0.0507018156349659
1732873206912325600,0.56532568359375,0.013439035043120384,0.021991148591041565,0.039706241339445114
1732873206922313700,0.575313720703125,0.01038470957428217,0.01710422709584236,0.02932153269648552
1732873206932345000,0.585344970703125,0.003054326167330146,0.01466076634824276,0.02076941914856434
1732873206942333200,0.595333251953125,0,0.009162978269159794,0.014049900695681572
1732873206952334300,0.605334228515625,-0.0012217304902151227,0.00733038317412138,0.006719517521560192
1732873206962322200,0.615322265625,0.001832595793530345,0.018936822190880775,0.003054326167330146
1732873206972354000,0.62535400390625,0.00427605677396059,0.029932396486401558,0.00427605677396059
1732873206982311200,0.635311279296875,0.00855211354792118,0.021991148591041565,0.014049900695681572
1732873206992343000,0.645343017578125,0.00427605677396059,0.01771509274840355,0.01466076634824276
1732873207002331000,0.655330810546875,0.00427605677396059,0.015271631069481373,0.009162978269159794
1732873207012331800,0.665331787109375,-0.003054326167330146,0.00366519158706069,0.0006108652451075613
1732873207022319900,0.67531982421875,-0.010995574295520782,-0.00427605677396059,-0.015882495790719986
1732873207032351500,0.6853515625,-0.013439035043120384,-0.001832595793530345,-0.03420845419168472
1732873207042308900,0.695308837890625,-0.01710422709584236,-0.005497787147760391,-0.04764748737215996
1732873207052340700,0.7053408203125,-0.01710422709584236,-0.010995574295520782,-0.04948008432984352
1732873207062328300,0.715328369140625,-0.009773843921720982,-0.009773843921720982,-0.04153883829712868
1732873207072329700,0.725329833984375,-0.004886921960860491,-0.009773843921720982,-0.02871066704392433
1732873207082317300,0.7353173828125,-0.00427605677396059,-0.016493361443281174,-0.014049900695681572
1732873207092349000,0.745348876953125,-0.0024434609804302454,-0.02015855349600315,0.003054326167330146
1732873207102306300,0.755306396484375,0.001832595793530345,-0.01771509274840355,0.02382374368607998
1732873207112338000,0.765337890625,0.006719517521560192,-0.00733038317412138,0.03787364438176155
1732873207122326000,0.775325927734375,0.009773843921720982,0.004886921960860491,0.04398229718208313
1732873207132327000,0.785326904296875,0.00855211354792118,-0.0006108652451075613,0.03420845419168472
1732873207142315000,0.79531494140625,0.00366519158706069,-0.009162978269159794,0.02076941914856434
1732873207152346400,0.805346435546875,0,-0.01038470957428217,0.006719517521560192
1732873207162304000,0.815303955078125,-0.00366519158706069,-0.006108652334660292,-0.005497787147760391
1732873207172335600,0.825335693359375,0.0024434609804302454,-0.001832595793530345,-0.00855211354792118
1732873207182323500,0.835323486328125,0.01160643994808197,-0.00366519158706069,-0.007941247895359993
1732873207192355000,0.84535498046875,0.018936822190880775,-0.00366519158706069,-0.006719517521560192
1732873207202312400,0.8553125,0.021380282938480377,-0.00855211354792118,-0.01160643994808197
1732873207212343800,0.86534375,0.022602014243602753,-0.005497787147760391,-0.02076941914856434
1732873207222332200,0.875332275390625,0.027488935738801956,-0.00366519158706069,-0.03298672288656235
1732873207232333000,0.8853330078125,0.027488935738801956,-0.004886921960860491,-0.04398229718208313
1732873207242321200,0.895321044921875,0.02015855349600315,-0.01160643994808197,-0.04337143152952194
1732873207252352500,0.9053525390625,0.018936822190880775,-0.018936822190880775,-0.03237585723400116
1732873207262310100,0.91531005859375,0.02015855349600315,-0.015271631069481373,-0.02076941914856434
1732873207272341500,0.925341552734375,0.019547687843441963,-0.0024434609804302454,-0.00855211354792118
1732873207282329300,0.935329345703125,0.02687807008624077,0.039706241339445114,0.001832595793530345
1732873207292514000,0.94551416015625,0.033597588539123535,0.0861319974064827,0.00427605677396059
1732873207302318600,0.955318603515625,0.04092797264456749,0.10018189996480942,0.0024434609804302454
1732873207312350000,0.965349853515625,0.04764748737215996,0.10873401165008545,0.00366519158706069
1732873207322307600,0.9753076171875,0.05619960278272629,0.11545353382825851,0.013439035043120384
1732873207332339200,0.985339111328125,0.06230825558304787,0.09162978827953339,0.025656340643763542
1732873207342327300,0.995327392578125,0.05009094998240471,0.05314527451992035,0.04092797264456749
1732873207352328000,1.005327880859375,0.04948008432984352,0.06658431142568588,0.054367005825042725
1732873207362316000,1.01531591796875,0.048258353024721146,0.09468411654233932,0.06414084881544113
1732873207372348000,1.025347900390625,0.03420845419168472,0.09957103431224823,0.0659734457731247
1732873207382305000,1.035304931640625,0.01038470957428217,0.07880161702632904,0.05497787147760391
1732873207392336000,1.0453359375,-0.01771509274840355,0.04764748737215996,0.025045474991202354
1732873207402324700,1.05532470703125,-0.045204028487205505,0.024434609338641167,-0.015271631069481373
1732873207412325000,1.0653251953125,-0.08002334833145142,0.018325956538319588,-0.04948008432984352
1732873207422313700,1.075313720703125,-0.13805554807186127,0.02382374368607998,-0.0861319974064827
1732873207432344000,1.085343994140625,-0.19486601650714874,0.009773843921720982,-0.10384709388017654
1732873207442333400,1.09533349609375,-0.2541199326515198,-0.02076941914856434,-0.11484266817569733
1732873207452333000,1.1053330078125,-0.31093040108680725,-0.04214970022439957,-0.11362093687057495
1732873207462322200,1.115322265625,-0.3701843321323395,-0.051312681287527084,-0.10323622822761536
1732873207472352800,1.125352783203125,-0.43615779280662537,-0.0507018156349659,-0.07941248267889023
1732873207482311200,1.135311279296875,-0.4954117238521576,-0.03298672288656235,-0.048258353024721146
1732873207492341800,1.145341796875,-0.5852088928222656,-0.003054326167330146,0.0006108652451075613
1732873207502331000,1.155330810546875,-0.6530149579048157,0.003054326167330146,0.016493361443281174
1732873207512331000,1.1653310546875,-0.7244861721992493,-0.012828170321881771,0.02321287989616394
1732873207522320000,1.17531982421875,-0.7965682744979858,-0.0507018156349659,0.029932396486401558
1732873207532350500,1.1853505859375,-0.8600982427597046,-0.10384709388017654,0.039706241339445114
1732873207542308900,1.195308837890625,-0.9193521738052368,-0.16004669666290283,0.04948008432984352
1732873207552339200,1.205339111328125,-0.9718865752220154,-0.21135938167572021,0.06108652427792549
1732873207562328300,1.215328369140625,-1.0476338863372803,-0.29138273000717163,0.07269296050071716
1732873207572328400,1.225328369140625,-1.0995573997497559,-0.33292156457901,0.07147123664617538
1732873207582317300,1.2353173828125,-1.151481032371521,-0.342695415019989,0.06780604273080826
1732873207592347000,1.245346923828125,-1.2082914113998413,-0.3182607889175415,0.0708603709936142
1732873207602305800,1.255305908203125,-1.2699888944625854,-0.2993239760398865,0.07757988572120667
1732873207612336400,1.26533642578125,-1.3329079151153564,-0.2981022298336029,0.07941248267889023
1732873207622325500,1.275325439453125,-1.398881435394287,-0.29565876722335815,0.07147123664617538
1732873207632325400,1.285325439453125,-1.4599679708480835,-0.2840523421764374,0.04886921867728233
1732873207642314200,1.295314208984375,-1.547932505607605,-0.28649580478668213,-0.012828170321881771
1732873207652344800,1.3053447265625,-1.6029103994369507,-0.2974913716316223,-0.06841690838336945
1732873207662303500,1.315303466796875,-1.6505578756332397,-0.2883284091949463,-0.11911872029304504
1732873207672335400,1.32533544921875,-1.6872098445892334,-0.2730567753314972,-0.14905111491680145
1732873207682323000,1.335322998046875,-1.712866187095642,-0.2583959996700287,-0.152105450630188
1732873207692355300,1.345355224609375,-1.7201964855194092,-0.2272418737411499,-0.12034045159816742
1732873207702312400,1.3553125,-1.718363881111145,-0.18509216606616974,-0.06108652427792549
1732873207712344300,1.36534423828125,-1.719585657119751,-0.1258382350206375,0.04337143152952194
1732873207722332000,1.375331787109375,-1.7299703359603882,-0.09468411654233932,0.08429940044879913
1732873207732333300,1.385333251953125,-1.7525724172592163,-0.07330382615327835,0.08735372871160507
1732873207742321200,1.395321044921875,-1.777006983757019,-0.060475658625364304,0.06719517707824707
1732873207752352800,1.405352783203125,-1.806328535079956,-0.05009094998240471,0.030543262138962746
1732873207762310100,1.41531005859375,-1.8442021608352661,-0.06658431142568588,-0.02626720629632473
1732873207772341800,1.425341796875,-1.8851301670074463,-0.10018189996480942,-0.09040805697441101
1732873207782329600,1.43532958984375,-1.9187277555465698,-0.10690141469240189,-0.15515977144241333
1732873207792330800,1.445330810546875,-1.9517145156860352,-0.09529497474431992,-0.14905111491680145
1732873207802318600,1.455318603515625,-1.9620991945266724,-0.09957103431224823,-0.10201449692249298
1732873207812350200,1.46535009765625,-1.9627100229263306,-0.1062905490398407,-0.02871066704392433
1732873207822307600,1.4753076171875,-1.949881911277771,-0.1062905490398407,0.04886921867728233
1732873207832339200,1.485339111328125,-1.9242255687713623,-0.12339477986097336,0.1111774742603302
1732873207842327000,1.4953271484375,-1.8955148458480835,-0.1667662113904953,0.152105450630188
1732873207852328400,1.505328369140625,-1.8765780925750732,-0.22418753802776337,0.16310101747512817
1732873207862316000,1.51531591796875,-1.8564194440841675,-0.36590829491615295,0.14233160018920898
1732873207872348000,1.525347900390625,-1.8448129892349243,-0.45814892649650574,0.13439035415649414
1732873207882305000,1.535304931640625,-1.8283196687698364,-0.5381723046302795,0.14416420459747314
1732873207892337200,1.545337158203125,-1.8081611394882202,-0.6065891981124878,0.1722639948129654
1732873207902324700,1.55532470703125,-1.7837265729904175,-0.6670648455619812,0.21135938167572021
1732873207912324400,1.565324462890625,-1.7580702304840088,-0.6927211880683899,0.2474004179239273
1732873207922313700,1.575313720703125,-1.7360789775848389,-0.6878342628479004,0.2724458873271942
1732873207932345300,1.585345458984375,-1.739133358001709,-0.6536257863044739,0.27977627515792847
1732873207942333400,1.59533349609375,-1.757459282875061,-0.6346889734268188,0.27550023794174194
1732873207952334300,1.605334228515625,-1.7788395881652832,-0.6261368989944458,0.2675589919090271
1732873207962322200,1.615322265625,-1.8038851022720337,-0.607810914516449,0.26572638750076294
1732873207972354000,1.62535400390625,-1.8295414447784424,-0.5827654600143433,0.2528982162475586
1732873207982311200,1.635311279296875,-1.855197787284851,-0.5595525503158569,0.21624629199504852
1732873207992342800,1.6453427734375,-1.8796323537826538,-0.5112941861152649,0.15332718193531036
1732873208002331000,1.655330810546875,-1.9028452634811401,-0.4453207552433014,0.07208210229873657
1732873208012331800,1.665331787109375,-1.9370536804199219,-0.36651915311813354,-0.060475658625364304
1732873208022319900,1.67531982421875,-1.9468275308609009,-0.3237585723400116,-0.13439035415649414
1732873208032351500,1.6853515625,-1.9541579484939575,-0.2932153046131134,-0.1875356286764145
1732873208042308900,1.695308837890625,-1.9627100229263306,-0.2877175211906433,-0.22113321721553802
1732873208052340500,1.705340576171875,-1.9694294929504395,-0.2993239760398865,-0.24190263450145721
1732873208062328300,1.715328369140625,-1.974927306175232,-0.3066543638706207,-0.2480112910270691
1732873208072329700,1.725329833984375,-1.9816468954086304,-0.3139847218990326,-0.24556782841682434
1732873208082317300,1.7353173828125,-1.9755382537841797,-0.2871066629886627,-0.2223549485206604
1732873208092349200,1.74534912109375,-1.9590448141098022,-0.27611109614372253,-0.1966986060142517
1732873208102306300,1.755306396484375,-1.9346102476119995,-0.2675589919090271,-0.14782938361167908
1732873208112338000,1.765337890625,-1.9083430767059326,-0.25106561183929443,-0.08307767659425735
1732873208122326000,1.775325927734375,-1.884519338607788,-0.24007004499435425,-0.015271631069481373
1732873208132327200,1.7853271484375,-1.8600846529006958,-0.22418753802776337,0.04642575979232788
1732873208142315000,1.79531494140625,-1.835650086402893,-0.19914206862449646,0.09957103431224823
1732873208152345000,1.805344970703125,-1.8038851022720337,-0.17470745742321014,0.1362229436635971
1732873208162304000,1.815303955078125,-1.785559058189392,-0.1618792861700058,0.12339477986097336
1732873208172334300,1.825334228515625,-1.76723313331604,-0.1569923609495163,0.08002334833145142
1732873208182323700,1.83532373046875,-1.7507398128509521,-0.16310101747512817,0.01466076634824276
1732873208192353800,1.845353759765625,-1.7336355447769165,-0.17043140530586243,-0.06963863968849182
1732873208202312400,1.8553125,-1.7232508659362793,-0.17837265133857727,-0.16065755486488342
1732873208212342800,1.8653427734375,-1.7189748287200928,-0.18936823308467865,-0.242513507604599
1732873208222332200,1.875332275390625,-1.7201964855194092,-0.1973094791173935,-0.3194825351238251
1732873208232333000,1.8853330078125,-1.7244726419448853,-0.1722639948129654,-0.40622538328170776
1732873208242321200,1.895321044921875,-1.7201964855194092,-0.13500121235847473,-0.41722095012664795
1732873208252352800,1.905352783203125,-1.701259732246399,-0.08735372871160507,-0.38179078698158264
1732873208262310100,1.91531005859375,-1.6566665172576904,-0.03848451003432274,-0.313373863697052
1732873208272340500,1.925340576171875,-1.5961909294128418,0.006108652334660292,-0.23457226157188416
1732873208282329300,1.935329345703125,-1.528384804725647,0.03481931984424591,-0.17104226350784302
1732873208292329500,1.94532958984375,-1.4593570232391357,0.04153883829712868,-0.13500121235847473
1732873208302318600,1.955318603515625,-1.3658946752548218,0.005497787147760391,-0.11362093687057495
1732873208312349200,1.96534912109375,-1.3243558406829834,-0.04337143152952194,-0.09896016865968704
1732873208322307600,1.9753076171875,-1.2883148193359375,-0.10873401165008545,-0.08246681094169617
1732873208332337700,1.985337646484375,-1.2596040964126587,-0.18387043476104736,-0.05497787147760391
1732873208342327300,1.995327392578125,-1.235169529914856,-0.2590068578720093,-0.02932153269648552
1732873208352328200,2.005328125,-1.2125675678253174,-0.31459560990333557,-0.012828170321881771
1732873208362316000,2.01531591796875,-1.1899654865264893,-0.33475416898727417,0.0006108652451075613
1732873208372348000,2.025347900390625,-1.1435397863388062,-0.31459560990333557,0.012828170321881771
1732873208382305000,2.035304931640625,-1.094059705734253,-0.27061331272125244,0.018936822190880775
1732873208392337000,2.0453369140625,-1.037249207496643,-0.20463985204696655,0.03237585723400116
1732873208402324700,2.05532470703125,-0.9724974632263184,-0.13255776464939117,0.05375614017248154
1732873208412325600,2.06532568359375,-0.9028588533401489,-0.07147123664617538,0.07330382615327835
1732873208422313700,2.075313720703125,-0.8405506014823914,-0.025656340643763542,0.07696902006864548
1732873208432345300,2.085345458984375,-0.7837401032447815,-0.0012217304902151227,0.07147123664617538
1732873208442333400,2.09533349609375,-0.7269296646118164,0.01160643994808197,0.05925392732024193
1732873208452333000,2.1053330078125,-0.6359107494354248,0.022602014243602753,0.06536258012056351
1732873208462322200,2.115322265625,-0.5662720799446106,0.019547687843441963,0.09285151958465576
1732873208472352800,2.125352783203125,-0.4911356568336487,0.001832595793530345,0.12461651116609573
1732873208482311200,2.135311279296875,-0.4202753007411957,-0.04642575979232788,0.14905111491680145
1732873208492342000,2.145342041015625,-0.34574973583221436,-0.12461651116609573,0.1563815027475357
1732873208502331000,2.155330810546875,-0.2675589919090271,-0.20463985204696655,0.13805554807186127
1732873208512330800,2.165330810546875,-0.20341812074184418,-0.2577851414680481,0.07208210229873657
1732873208522320000,2.17531982421875,-0.11056660860776901,-0.2889392673969269,-0.09224065393209457
1732873208532350200,2.18535009765625,-0.0507018156349659,-0.2632829248905182,-0.19547687470912933
1732873208542309000,2.19530908203125,0.01038470957428217,-0.17959438264369965,-0.2571742534637451
1732873208552340000,2.205340087890625,0.06108652427792549,-0.06536258012056351,-0.2828305959701538
1732873208562328300,2.215328369140625,0.10262536257505417,0.06352998316287994,-0.2632829248905182
1732873208572328700,2.22532861328125,0.13805554807186127,0.1612684279680252,-0.21013765037059784
1732873208582317600,2.235317626953125,0.17348572611808777,0.19975294172763824,-0.1264491081237793
1732873208592347400,2.245347412109375,0.20830504596233368,0.1472185254096985,0.03481931984424591
1732873208602305800,2.255305908203125,0.2064724564552307,0.10384709388017654,0.1160643994808197
1732873208612337000,2.2653369140625,0.1966986060142517,0.10995574295520782,0.15271630883216858
1732873208622325500,2.275325439453125,0.1814269721508026,0.12278391420841217,0.14905111491680145
1732873208632326400,2.285326416015625,0.17104226350784302,0.12828169763088226,0.14416420459747314
1732873208642314200,2.295314208984375,0.17287486791610718,0.13805554807186127,0.15882496535778046
1732873208652345900,2.305345947265625,0.18387043476104736,0.15454891324043274,0.18936823308467865
1732873208662303500,2.315303466796875,0.19608774781227112,0.15515977144241333,0.21930062770843506
1732873208672334300,2.325334228515625,0.18509216606616974,0.10873401165008545,0.23273965716362
1732873208682351400,2.335351318359375,0.16004669666290283,0.06719517707824707,0.21441370248794556
1732873208692354300,2.345354248046875,0.11972958594560623,0.029932396486401558,0.17104226350784302
1732873208702312400,2.3553125,0.06658431142568588,-0.010995574295520782,0.11362093687057495
1732873208712342800,2.3653427734375,0.007941247895359993,-0.05375614017248154,0.054367005825042725
1732873208722332000,2.375331787109375,-0.042760565876960754,-0.08246681094169617,-0.001832595793530345
1732873208732331800,2.385331787109375,-0.07941248267889023,-0.09407325088977814,-0.05619960278272629
1732873208742321200,2.395321044921875,-0.11423180252313614,-0.054367005825042725,-0.13072516024112701
1732873208752351500,2.4053515625,-0.12889257073402405,0.005497787147760391,-0.1563815027475357
1732873208762310000,2.415309814453125,-0.1411098688840866,0.0806342139840126,-0.15760323405265808
1732873208772340500,2.425340576171875,-0.15760323405265808,0.15393804013729095,-0.14049901068210602
1732873208782329300,2.435329345703125,-0.17104226350784302,0.20586158335208893,-0.1160643994808197
1732873208792330200,2.445330322265625,-0.182648703455925,0.2064724564552307,-0.09285151958465576
1732873208802318600,2.455318603515625,-0.19425514340400696,0.15027284622192383,-0.09346238523721695
1732873208812349700,2.465349609375,-0.2431243658065796,-0.012828170321881771,-0.1765400618314743
1732873208822307600,2.4753076171875,-0.2834414839744568,-0.13561208546161652,-0.304210901260376
1732873208832338200,2.485338134765625,-0.33108896017074585,-0.21807889640331268,-0.4660901725292206
1732873208842327300,2.495327392578125,-0.40133845806121826,-0.24068090319633484,-0.6255260109901428
1732873208852327400,2.505327392578125,-0.38240164518356323,-0.23273965716362,-0.7422012686729431
1732873208862316000,2.51531591796875,-0.36529740691185,-0.19303341209888458,-0.7770205736160278
1732873208872347100,2.52534716796875,-0.4147774875164032,-0.2168571650981903,-0.7452555894851685
1732873208882305000,2.535304931640625,-0.4440990388393402,-0.19058994948863983,-0.6279694437980652
1732873208892336000,2.545336181640625,-0.3488040566444397,0.06169738993048668,-0.2669481039047241
1732873208902324700,2.55532470703125,-0.26572638750076294,0.20341812074184418,0.018325956538319588
1732873208912325400,2.565325439453125,-0.21135938167572021,0.2828305959701538,0.27611109614372253
1732873208922313700,2.575313720703125,-0.16554448008537292,0.3433062732219696,0.4648684561252594
1732873208932344600,2.585344482421875,-0.10995574295520782,0.3701843321323395,0.5760459303855896
1732873208942333400,2.59533349609375,-0.06414084881544113,0.3549126982688904,0.6383541822433472
1732873208952333600,2.60533349609375,-0.060475658625364304,0.3017674386501312,0.6530149579048157
1732873208962322400,2.615322509765625,-0.12767083942890167,0.1771509200334549,0.5815436840057373
1732873208972353000,2.62535302734375,-0.19486601650714874,0.07696902006864548,0.485027015209198
1732873208982311200,2.635311279296875,-0.25045475363731384,-0.01038470957428217,0.38240164518356323
1732873208992341800,2.645341796875,-0.27000242471694946,-0.02871066704392433,0.30970868468284607
1732873209002331000,2.655330810546875,-0.2681698501110077,0.04214970022439957,0.28038713335990906
1732873209012330500,2.66533056640625,-0.2571742534637451,0.16310101747512817,0.2871066629886627
1732873209022319900,2.67531982421875,-0.24129177629947662,0.2431243658065796,0.28466320037841797
1732873209032350000,2.685349853515625,-0.20036379992961884,0.17898350954055786,0.18448130786418915
1732873209042308900,2.695308837890625,-0.18875735998153687,0.033597588539123535,0.036651913076639175
1732873209052339700,2.705339599609375,-0.21991148591041565,-0.15515977144241333,-0.16004669666290283
1732873209062328300,2.715328369140625,-0.29138273000717163,-0.3188716471195221,-0.35246923565864563
1732873209072329500,2.72532958984375,-0.35124751925468445,-0.3952298164367676,-0.46670106053352356
1732873209082317300,2.7353173828125,-0.342695415019989,-0.3701843321323395,-0.4288274049758911
1732873209092347400,2.745347412109375,-0.24068090319633484,-0.294437050819397,-0.20525072515010834
1732873209102306300,2.755306396484375,-0.0555887371301651,-0.2119702398777008,0.15454891324043274
1732873209112336600,2.765336669921875,0.2889392673969269,-0.051312681287527084,0.7568620443344116
1732873209122326000,2.775325927734375,0.47769662737846375,0.08918632566928864,1.0824532508850098
1732873209132325600,2.78532568359375,0.5955936312675476,0.24007004499435425,1.246165156364441
1732873209142315000,2.79531494140625,0.6420193910598755,0.39095374941825867,1.2150110006332397
1732873209152345900,2.805345947265625,0.6145304441452026,0.48747047781944275,1.024420976638794
1732873209162304000,2.815303955078125,0.5216789245605469,0.5057964324951172,0.7373143434524536
1732873209172334800,2.8253349609375,0.3982841372489929,0.4703662395477295,0.40256020426750183
1732873209182323500,2.835323486328125,0.2382374405860901,0.31154128909111023,-0.07819075137376785
1732873209192353800,2.845353759765625,0.17776179313659668,0.15821409225463867,-0.33169981837272644
1732873209202312400,2.8553125,0.16432274878025055,-0.007941247895359993,-0.5088507533073425
1732873209212344000,2.865343994140625,0.18631389737129211,-0.17348572611808777,-0.5949827432632446
1732873209222332200,2.875332275390625,0.2272418737411499,-0.30482175946235657,-0.5955936312675476
1732873209232332800,2.885332763671875,0.2883284091949463,-0.3885102868080139,-0.5485569834709167
1732873209242321200,2.895321044921875,0.342695415019989,-0.4282165467739105,-0.4899139404296875
1732873209252351700,2.905351806640625,0.3933972120285034,-0.403781920671463,-0.3982841372489929
1732873209262310000,2.915309814453125,0.4050036668777466,-0.32009339332580566,-0.3335324227809906
1732873209272340700,2.9253408203125,0.3952298164367676,-0.2168571650981903,-0.2785545587539673
1732873209282329300,2.935329345703125,0.3695734739303589,-0.1264491081237793,-0.24007004499435425
1732873209292330200,2.945330322265625,0.33658674359321594,-0.06169738993048668,-0.22540926933288574
1732873209302318600,2.955318603515625,0.2993239760398865,-0.013439035043120384,-0.23151792585849762
1732873209312349700,2.965349609375,0.26450464129447937,0.01710422709584236,-0.2480112910270691
1732873209322307600,2.9753076171875,0.23396138846874237,0.02871066704392433,-0.2620611786842346
1732873209332338700,2.985338623046875,0.2076941877603531,0.0403171069920063,-0.2590068578720093
1732873209342327300,2.995327392578125,0.20463985204696655,0.021380282938480377,-0.24190263450145721
1732873209352327400,3.005327392578125,0.20891591906547546,-0.01466076634824276,-0.22968533635139465
1732873209362316000,3.01531591796875,0.21563543379306793,-0.025656340643763542,-0.23151792585849762
1732873209372347000,3.025346923828125,0.22479841113090515,-0.00427605677396059,-0.24190263450145721
1732873209382305000,3.035304931640625,0.22602014243602753,0.021380282938480377,-0.25106561183929443
1732873209392336100,3.045336181640625,0.2272418737411499,0.04459316283464432,-0.251676470041275
1732873209402324700,3.05532470703125,0.22602014243602753,0.05253441259264946,-0.20036379992961884
1732873209412325000,3.0653251953125,0.20830504596233368,0.02871066704392433,-0.13805554807186127
1732873209422313700,3.075313720703125,0.18448130786418915,-0.007941247895359993,-0.0708603709936142
1732873209432344800,3.0853447265625,0.15393804013729095,-0.05009094998240471,-0.03176499158143997
1732873209442333200,3.095333251953125,0.11789698898792267,-0.10690141469240189,-0.036651913076639175
1732873209452333600,3.10533349609375,0.07330382615327835,-0.15332718193531036,-0.09529497474431992
1732873209462322200,3.115322265625,0.03237585723400116,-0.18570303916931152,-0.17898350954055786
1732873209472353300,3.125353271484375,-0.028099801391363144,-0.2223549485206604,-0.24434609711170197
1732873209482311400,3.1353115234375,-0.042760565876960754,-0.26939156651496887,-0.32009339332580566
1732873209492342300,3.14534228515625,-0.06475171446800232,-0.23396138846874237,-0.3933972120285034
1732873209502331000,3.155330810546875,-0.07819075137376785,-0.09346238523721695,-0.39767327904701233
1732873209512331300,3.165331298828125,-0.02932153269648552,0.021380282938480377,-0.38667771220207214
1732873209522320000,3.17531982421875,-0.001832595793530345,0.11911872029304504,-0.36102136969566345
1732873209532351000,3.18535107421875,0.0354301854968071,0.1814269721508026,-0.34636059403419495
1732873209542308900,3.195308837890625,0.06902777403593063,0.16554448008537292,-0.3695734739303589
1732873209552340500,3.205340576171875,0.030543262138962746,0.013439035043120384,-0.4691445231437683
1732873209562328300,3.215328369140625,-0.06841690838336945,-0.1215621829032898,-0.5461135506629944
1732873209572329500,3.22532958984375,-0.1313360333442688,-0.19364428520202637,-0.5949827432632446
1732873209582317600,3.235317626953125,-0.12278391420841217,-0.15821409225463867,-0.5925393104553223
1732873209592348200,3.24534814453125,-0.08368854224681854,-0.05742133408784866,-0.5283984541893005
1732873209602305800,3.255305908203125,-0.05192354694008827,0.016493361443281174,-0.4355469346046448
1732873209612337400,3.26533740234375,-0.039706241339445114,0.03420845419168472,-0.31642818450927734
1732873209622325500,3.275325439453125,-0.05009094998240471,-0.039706241339445114,-0.10873401165008545
1732873209632326700,3.28532666015625,-0.08185594528913498,-0.1771509200334549,0.033597588539123535
1732873209642314200,3.295314208984375,-0.12400564551353455,-0.3536909818649292,0.16737708449363708
1732873209652346000,3.30534619140625,-0.14355333149433136,-0.4746423065662384,0.2883284091949463
1732873209662303500,3.315303466796875,-0.13927727937698364,-0.49235737323760986,0.40744712948799133
1732873209672335000,3.325335205078125,-0.12889257073402405,-0.42760565876960754,0.5522221922874451
1732873209682323000,3.335322998046875,-0.12400564551353455,-0.2877175211906433,0.7287622094154358
1732873209692355000,3.34535498046875,-0.18509216606616974,-0.0910189226269722,0.9932668805122375
1732873209702312400,3.3553125,-0.15882496535778046,0.019547687843441963,1.1966849565505981
1732873209712343800,3.36534375,-0.1771509200334549,0.1111774742603302,1.4013248682022095
1732873209722332000,3.375331787109375,-0.2834414839744568,0.1014036312699318,1.5448782444000244
1732873209732331800,3.385331787109375,-0.44776421785354614,-0.00733038317412138,1.5790866613388062
1732873209742321200,3.395321044921875,-0.6188064813613892,-0.16554448008537292,1.4813482761383057
1732873209752351200,3.405351318359375,-0.7544185519218445,-0.3023782968521118,1.2571606636047363
1732873209762310100,3.41531005859375,-0.808174729347229,-0.37751471996307373,0.9242390990257263
1732873209772340200,3.42534033203125,-0.6823364496231079,-0.3139847218990326,0.25961771607398987
1732873209782329600,3.43532958984375,-0.5222898125648499,-0.15882496535778046,-0.21624629199504852
1732873209792329500,3.44532958984375,-0.3982841372489929,0.03726277872920036,-0.6029239892959595
1732873209802318600,3.455318603515625,-0.39156460762023926,0.12339477986097336,-0.7965682744979858
1732873209812350000,3.465349853515625,-0.40194934606552124,0.10506882518529892,-0.837496280670166
1732873209822307600,3.4753076171875,-0.3988949954509735,0.1007927656173706,-0.7929030656814575
1732873209832339200,3.485339111328125,-0.4056145250797272,0.11728613078594208,-0.7086036801338196
1732873209842327300,3.495327392578125,-0.5424483418464661,0.24373523890972137,-0.5760459303855896
1732873209852328200,3.505328125,-0.626747727394104,0.3084869384765625,-0.4990769028663635
1732873209862316000,3.51531591796875,-0.6279694437980652,0.28588494658470154,-0.4098905920982361
1732873209872346600,3.5253466796875,-0.5436700582504272,0.20036379992961884,-0.30970868468284607
1732873209882305000,3.535304931640625,-0.41661009192466736,0.0659734457731247,-0.20402899384498596
1732873209892335600,3.545335693359375,-0.27550023794174194,-0.024434609338641167,-0.1111774742603302
1732873209902324700,3.55532470703125,-0.17898350954055786,0.021991148591041565,-0.03420845419168472
1732873209912325000,3.5653251953125,-0.13255776464939117,0.1563815027475357,0.05009094998240471
1732873209922313700,3.575313720703125,-0.10995574295520782,0.17898350954055786,0.09224065393209457
1732873209932344800,3.5853447265625,-0.08857546001672745,0.1563815027475357,0.11423180252313614
1732873209942333200,3.595333251953125,-0.08185594528913498,0.13255776464939117,0.09834930300712585
1732873209952334000,3.605333984375,-0.09773843735456467,0.11972958594560623,0.0354301854968071
1732873209962219800,3.6152197265625,-0.13316862285137177,0.12339477986097336,-0.08491026610136032
1732873209972251000,3.6252509765625,-0.1765400618314743,0.13805554807186127,-0.23273965716362
1732873209982208800,3.635208740234375,-0.2168571650981903,0.16798794269561768,-0.3543018400669098
1732873209992240400,3.645240478515625,-0.23396138846874237,0.20463985204696655,-0.413555771112442
1732873210002228500,3.655228515625,-0.20402899384498596,0.21930062770843506,-0.3604104816913605
1732873210012229400,3.6652294921875,-0.14905111491680145,0.2370157092809677,-0.2480112910270691
1732873210022217500,3.675217529296875,-0.0861319974064827,0.2785545587539673,-0.10873401165008545
1732873210032248800,3.685248779296875,-0.014049900695681572,0.3384193480014801,0.02382374368607998
1732873210042206500,3.69520654296875,0.06169738993048668,0.3903428912162781,0.13072516024112701
1732873210052237800,3.70523779296875,0.12950342893600464,0.4098905920982361,0.2174680233001709
1732873210062226200,3.71522607421875,0.19303341209888458,0.3799581825733185,0.3072652220726013
1732873210072227000,3.72522705078125,0.2076941877603531,0.33536502718925476,0.33169981837272644
1732873210082215000,3.73521484375,0.19547687470912933,0.26083946228027344,0.33658674359321594
1732873210092246800,3.745246826171875,0.16371189057826996,0.16493362188339233,0.3176499307155609
1732873210102204000,3.755203857421875,0.13927727937698364,0.05497787147760391,0.2883284091949463
1732873210112235300,3.7652353515625,0.13561208546161652,-0.048258353024721146,0.26939156651496887
1732873210122223600,3.7752236328125,0.17043140530586243,-0.10567969083786011,0.29138273000717163
1732873210132224500,3.785224609375,0.24678955972194672,-0.1319468915462494,0.41111230850219727
1732873210142212600,3.795212646484375,0.29504790902137756,-0.1411098688840866,0.5094616413116455
1732873210152243500,3.805243408203125,0.3378084897994995,-0.13561208546161652,0.59803706407547
1732873210162201600,3.81520166015625,0.375071257352829,-0.13011430203914642,0.6530149579048157
1732873210172232700,3.825232666015625,0.3793473243713379,-0.14782938361167908,0.6377432942390442
1732873210182221000,3.835220947265625,0.34147366881370544,-0.21502456068992615,0.5351179838180542
1732873210192252400,3.84525244140625,0.24556782841682434,-0.3677408695220947,0.34025195240974426
1732873210202210000,3.8552099609375,0.09346238523721695,-0.5760459303855896,0.1062905490398407
1732873210212241400,3.865241455078125,-0.06291911751031876,-0.7929030656814575,-0.1514945775270462
1732873210222229800,3.875229736328125,-0.10262536257505417,-0.7654141783714294,-0.1411098688840866
1732873210232229000,3.88522900390625,-0.07452555745840073,-0.5674937963485718,0.05803219974040985
1732873210242218800,3.89521875,0.03176499158143997,-0.2571742534637451,0.3878994286060333
1732873210252248800,3.905248779296875,0.20341812074184418,0.08674286305904388,0.7641924023628235
1732873210262207700,3.915207763671875,0.4178318381309509,0.34208452701568604,1.083064079284668
1732873210272238000,3.925238037109375,0.6188064813613892,0.4495968222618103,1.263269305229187
1732873210282227000,3.93522705078125,0.7531968355178833,0.45875978469848633,1.1740829944610596
1732873210292229000,3.94522900390625,0.6927211880683899,0.3579670190811157,0.8448266386985779
1732873210302216200,3.95521630859375,0.5467243790626526,0.19303341209888458,0.3494149148464203
1732873210312246500,3.96524658203125,0.3543018400669098,0.036041051149368286,-0.21624629199504852
1732873210322205200,3.975205078125,0.16371189057826996,-0.0910189226269722,-0.7324274182319641
1732873210332236500,3.985236572265625,0.01466076634824276,-0.1667662113904953,-1.0952813625335693
1732873210342225000,3.995224853515625,-0.07391469180583954,-0.2223549485206604,-1.2412781715393066
1732873210352225500,4.0052255859375,-0.05619960278272629,-0.2571742534637451,-1.1197160482406616
1732873210362213600,4.015213623046875,0.04337143152952194,-0.21380282938480377,-0.8900306820869446
1732873210372245200,4.025245361328125,0.182648703455925,-0.13927727937698364,-0.59803706407547
1732873210382202600,4.03520263671875,0.3286454975605011,-0.07208210229873657,-0.2919935882091522
1732873210392234500,4.045234375,0.45142942667007446,-0.02015855349600315,-0.033597588539123535
1732873210402222300,4.055222412109375,0.5210680365562439,0.0012217304902151227,0.12400564551353455
1732873210412222700,4.06522265625,0.5393940210342407,0.0006108652451075613,0.1661553531885147
1732873210422211300,4.07521142578125,0.5167919993400574,-0.01771509274840355,0.13072516024112701
1732873210432242400,4.085242431640625,0.42577308416366577,-0.11056660860776901,0.015882495790719986
1732873210442230800,4.095230712890625,0.34636059403419495,-0.19486601650714874,-0.06352998316287994
1732873210452231700,4.105231689453125,0.27977627515792847,-0.24190263450145721,-0.12217304855585098
1732873210462219800,4.1152197265625,0.2370157092809677,-0.24923302233219147,-0.14844025671482086
1732873210472251000,4.1252509765625,0.19975294172763824,-0.252287358045578,-0.16065755486488342
1732873210482208800,4.135208740234375,0.17348572611808777,-0.24129177629947662,-0.1771509200334549
1732873210492240000,4.145239990234375,0.1563815027475357,-0.20830504596233368,-0.19364428520202637
1732873210502228500,4.155228515625,0.1264491081237793,-0.15271630883216858,-0.21991148591041565
1732873210512228900,4.165228759765625,0.10751228034496307,-0.11545353382825851,-0.22296582162380219
1732873210522217500,4.175217529296875,0.08307767659425735,-0.08857546001672745,-0.20402899384498596
1732873210532248300,4.185248291015625,0.05375614017248154,-0.06841690838336945,-0.15515977144241333
1732873210542206500,4.19520654296875,0.02932153269648552,-0.05803219974040985,-0.08002334833145142
1732873210552237800,4.20523779296875,0.01771509274840355,-0.05253441259264946,0.027488935738801956
1732873210562226200,4.21522607421875,0.02076941914856434,-0.04398229718208313,0.15393804013729095
1732873210572227000,4.22522705078125,0.02382374368607998,-0.033597588539123535,0.3341432809829712
1732873210582215200,4.235215087890625,0.00855211354792118,-0.027488935738801956,0.4129449129104614
1732873210592244700,4.24524462890625,-0.02321287989616394,-0.01710422709584236,0.4392121136188507
1732873210602203600,4.25520361328125,-0.05742133408784866,0.001832595793530345,0.41661009192466736
1732873210612234800,4.26523486328125,-0.08857546001672745,0.03848451003432274,0.37140607833862305
1732873210622223000,4.27522314453125,-0.10201449692249298,0.07941248267889023,0.31642818450927734
1732873210632223500,4.285223388671875,-0.10201449692249298,0.08674286305904388,0.24862214922904968
1732873210642212000,4.295212158203125,-0.11056660860776901,0.04642575979232788,0.1319468915462494
1732873210652244000,4.305243896484375,-0.22479841113090515,0.0024434609804302454,-0.16432274878025055
1732873210662201000,4.315201171875,-0.3543018400669098,0.04092797264456749,-0.3995058834552765
1732873210672232700,4.325232666015625,-0.4813618063926697,0.06230825558304787,-0.617584764957428
1732873210682249000,4.3352490234375,-0.5723807215690613,0.02932153269648552,-0.7635815739631653
1732873210692252700,4.345252685546875,-0.6200281977653503,-0.05009094998240471,-0.7935139536857605
1732873210702210000,4.3552099609375,-0.6340781450271606,-0.1411098688840866,-0.7177666425704956
1732873210712241400,4.365241455078125,-0.5974262356758118,-0.19608774781227112,-0.5479460954666138
1732873210722229500,4.3752294921875,-0.4550946056842804,-0.08002334833145142,-0.06963863968849182
1732873210732230700,4.385230712890625,-0.3090978264808655,0.08368854224681854,0.3689626157283783
1732873210742218800,4.39521875,-0.16982053220272064,0.2272418737411499,0.8142833709716797
1732873210752250000,4.40525,-0.08552113175392151,0.2883284091949463,1.1478158235549927
1732873210762207500,4.41520751953125,-0.0555887371301651,0.26939156651496887,1.3243558406829834
1732873210772237800,4.42523779296875,-0.08185594528913498,0.18936823308467865,1.3536773920059204
1732873210782227200,4.435227294921875,-0.1417207419872284,0.07757988572120667,1.2406673431396484
1732873210792227000,4.44522705078125,-0.2571742534637451,-0.08368854224681854,0.8326093554496765
1732873210802216200,4.45521630859375,-0.33658674359321594,-0.16737708449363708,0.4648684561252594
1732873210812246300,4.465246337890625,-0.39767327904701233,-0.19425514340400696,0.08674286305904388
1732873210822205200,4.475205078125,-0.44165557622909546,-0.17287486791610718,-0.23518311977386475
1732873210832236300,4.485236328125,-0.4648684561252594,-0.15943582355976105,-0.4648684561252594
1732873210842225000,4.495224853515625,-0.46303585171699524,-0.13866640627384186,-0.6029239892959595
1732873210852225800,4.505225830078125,-0.4434881806373596,-0.09957103431224823,-0.6591235995292664
1732873210862213600,4.515213623046875,-0.41722095012664795,-0.054367005825042725,-0.6511823534965515
1732873210872245500,4.52524560546875,-0.37751471996307373,0.0006108652451075613,-0.5601634383201599
1732873210882202600,4.53520263671875,-0.35124751925468445,0.03176499158143997,-0.46303585171699524
1732873210892234200,4.545234130859375,-0.32620203495025635,0.06352998316287994,-0.3481931984424591
1732873210902222300,4.555222412109375,-0.30054569244384766,0.09407325088977814,-0.2321287989616394
1732873210912223200,4.56522314453125,-0.2773328125476837,0.11911872029304504,-0.12278391420841217
1732873210922211300,4.57521142578125,-0.2577851414680481,0.12034045159816742,-0.025045474991202354
1732873210932242400,4.585242431640625,-0.23579397797584534,0.09346238523721695,0.04337143152952194
1732873210942231000,4.59523095703125,-0.20525072515010834,0.04886921867728233,0.07452555745840073
1732873210952231700,4.605231689453125,-0.1875356286764145,0.022602014243602753,0.0507018156349659
1732873210962219800,4.6152197265625,-0.17287486791610718,0.007941247895359993,-0.00427605677396059
1732873210972251100,4.625251220703125,-0.1563815027475357,-0.01710422709584236,-0.07880161702632904
1732873210982209000,4.635208984375,-0.1368338167667389,-0.048258353024721146,-0.16004669666290283
1732873210992239900,4.645239990234375,-0.11301007121801376,-0.05009094998240471,-0.22907446324825287
1732873211002228500,4.655228515625,-0.08552113175392151,-0.027488935738801956,-0.2687807083129883
1732873211012228900,4.665228759765625,-0.048258353024721146,-0.01160643994808197,-0.2785545587539673
1732873211022217500,4.675217529296875,-0.02626720629632473,-0.012828170321881771,-0.26633724570274353
1732873211032248300,4.685248291015625,-0.01710422709584236,-0.03481931984424591,-0.252287358045578
1732873211042206500,4.69520654296875,-0.018325956538319588,-0.07208210229873657,-0.23029619455337524
1732873211052237000,4.705237060546875,-0.01466076634824276,-0.1258382350206375,-0.19608774781227112
1732873211062226200,4.71522607421875,-0.009162978269159794,-0.16798794269561768,-0.14233160018920898
1732873211072226300,4.725226318359375,0.00855211354792118,-0.14844025671482086,-0.06658431142568588
1732873211082215000,4.73521484375,0.03237585723400116,-0.08552113175392151,0.019547687843441963
1732873211092245800,4.745245849609375,0.08185594528913498,0.012217304669320583,0.11728613078594208
1732873211102204000,4.755203857421875,0.09407325088977814,0.03787364438176155,0.13377949595451355
1732873211112234800,4.76523486328125,0.07757988572120667,0.042760565876960754,0.09834930300712585
1732873211122223600,4.7752236328125,0.03726277872920036,0.02015855349600315,0.015882495790719986
1732873211132224000,4.78522412109375,-0.01038470957428217,-0.019547687843441963,-0.08307767659425735
1732873211142212600,4.795212646484375,-0.059864792972803116,-0.07757988572120667,-0.17898350954055786
1732873211152244000,4.805243896484375,-0.09285151958465576,-0.14844025671482086,-0.25045475363731384
1732873211162201600,4.81520166015625,-0.08735372871160507,-0.22052235901355743,-0.252287358045578
1732873211172233000,4.82523291015625,-0.054367005825042725,-0.22540926933288574,-0.17531833052635193
1732873211182221000,4.835220947265625,0.00366519158706069,-0.19547687470912933,-0.07513642311096191
1732873211192252700,4.845252685546875,0.08674286305904388,-0.10995574295520782,0.03787364438176155
1732873211202210000,4.8552099609375,0.16798794269561768,-0.036041051149368286,0.15027284622192383
1732873211212241400,4.865241455078125,0.22846360504627228,-0.01710422709584236,0.23884831368923187
1732873211222229500,4.8752294921875,0.251676470041275,-0.04703662544488907,0.26145032048225403
1732873211232230400,4.88523046875,0.20952677726745605,-0.1459967941045761,0.13439035415649414
1732873211242218800,4.89521875,0.16920967400074005,-0.16432274878025055,0.01710422709584236
1732873211252250000,4.90525,0.15760323405265808,-0.07635815441608429,-0.021380282938480377
1732873211262207700,4.915207763671875,0.20036379992961884,0.06536258012056351,0.07513642311096191
1732873211272239400,4.9252392578125,0.28955012559890747,0.182648703455925,0.2577851414680481
1732873211282227000,4.93522705078125,0.3793473243713379,0.25534167885780334,0.43799036741256714
1732873211292228000,4.94522802734375,0.4440990388393402,0.26939156651496887,0.5461135506629944
1732873211302216200,4.95521630859375,0.4612032473087311,0.22418753802776337,0.5461135506629944
1732873211312247000,4.9652470703125,0.3787364661693573,0.12278391420841217,0.36529740691185
1732873211322205200,4.975205078125,0.28099802136421204,0.04764748737215996,0.17898350954055786
1732873211332236500,4.985236572265625,0.18997909128665924,-0.01466076634824276,0.001832595793530345
1732873211342225000,4.995224853515625,0.13316862285137177,-0.04581489413976669,-0.10995574295520782
1732873211352225800,5.005225830078125,0.12217304855585098,-0.05619960278272629,-0.14049901068210602
1732873211362213600,5.015213623046875,0.13988813757896423,-0.05192354694008827,-0.08796459436416626
1732873211372245200,5.025245361328125,0.17959438264369965,-0.042760565876960754,0.012217304669320583
1732873211382202600,5.03520263671875,0.251676470041275,-0.018325956538319588,0.15821409225463867
1732873211392233700,5.045233642578125,0.28527405858039856,0.0024434609804302454,0.2217440903186798
1732873211402222300,5.055222412109375,0.3029891550540924,0.005497787147760391,0.251676470041275
1732873211412222700,5.06522265625,0.30604347586631775,-0.003054326167330146,0.25595253705978394
1732873211422211300,5.07521142578125,0.28649580478668213,-0.015882495790719986,0.24129177629947662
1732873211432242400,5.085242431640625,0.25534167885780334,-0.02871066704392433,0.20586158335208893
1732873211442230800,5.095230712890625,0.22052235901355743,-0.04948008432984352,0.1508837193250656
1732873211452231700,5.105231689453125,0.17531833052635193,-0.0708603709936142,0.056810468435287476
1732873211462219800,5.1152197265625,0.14905111491680145,-0.06902777403593063,-0.007941247895359993
1732873211472251000,5.1252509765625,0.1215621829032898,-0.060475658625364304,-0.06963863968849182
1732873211482208800,5.135208740234375,0.09407325088977814,-0.07024950534105301,-0.1258382350206375
1732873211492240000,5.145239990234375,0.07208210229873657,-0.07696902006864548,-0.17409659922122955
1732873211502228500,5.155228515625,0.05925392732024193,-0.08246681094169617,-0.2015855312347412
1732873211512228900,5.165228759765625,0.05253441259264946,-0.08368854224681854,-0.20586158335208893
1732873211522217500,5.175217529296875,0.0507018156349659,-0.08307767659425735,-0.1875356286764145
1732873211532248300,5.185248291015625,0.056810468435287476,-0.1007927656173706,-0.1313360333442688
1732873211542206500,5.19520654296875,0.05314527451992035,-0.12095131725072861,-0.08979719132184982
1732873211552238000,5.205238037109375,0.03726277872920036,-0.12828169763088226,-0.054367005825042725
1732873211562226200,5.21522607421875,0.005497787147760391,-0.1313360333442688,-0.01771509274840355
1732873211572226000,5.22522607421875,-0.02871066704392433,-0.14049901068210602,0.02626720629632473
1732873211582215200,5.235215087890625,-0.06536258012056351,-0.1667662113904953,0.05864306539297104
1732873211592245200,5.245245361328125,-0.10751228034496307,-0.21074850857257843,0.04092797264456749
1732873211602203400,5.255203369140625,-0.16493362188339233,-0.2938261926174164,-0.07880161702632904
1732873211612234500,5.265234375,-0.18631389737129211,-0.3500257730484009,-0.18020524084568024
1732873211622223000,5.27522314453125,-0.19120082259178162,-0.4080579876899719,-0.2883284091949463
1732873211632223500,5.285223388671875,-0.1722639948129654,-0.4349360466003418,-0.3597996234893799
1732873211642212000,5.295212158203125,-0.15271630883216858,-0.4288274049758911,-0.3701843321323395
1732873211652243000,5.305242919921875,-0.12400564551353455,-0.3878994286060333,-0.33658674359321594
1732873211662201000,5.315201171875,-0.09346238523721695,-0.37262779474258423,-0.2822197377681732
1732873211672232700,5.325232666015625,-0.11789698898792267,-0.3323107063770294,-0.21807889640331268
1732873211682220500,5.335220458984375,-0.17837265133857727,-0.2724458873271942,-0.21502456068992615
1732873211692252700,5.345252685546875,-0.2272418737411499,-0.19792033731937408,-0.23518311977386475
1732873211702210000,5.3552099609375,-0.242513507604599,-0.14416420459747314,-0.24434609711170197
1732873211712241700,5.36524169921875,-0.23518311977386475,-0.16554448008537292,-0.22663100063800812
1732873211722229500,5.3752294921875,-0.2125810980796814,-0.26511552929878235,-0.17531833052635193
1732873211732230700,5.385230712890625,-0.18448130786418915,-0.32986724376678467,-0.08246681094169617
1732873211742218800,5.39521875,-0.14844025671482086,-0.2687807083129883,0.08857546001672745
1732873211752250400,5.40525048828125,-0.07880161702632904,0.07208210229873657,0.5668829679489136
1732873211762207500,5.41520751953125,-0.045204028487205505,0.36651915311813354,0.9419541954994202
1732873211772239000,5.425239013671875,-0.003054326167330146,0.6420193910598755,1.2687671184539795
1732873211782227200,5.435227294921875,0.04337143152952194,0.8148942589759827,1.474017858505249
1732873211792227000,5.44522705078125,0.06414084881544113,0.8808676600456238,1.5289957523345947
1732873211802216200,5.45521630859375,0.04153883829712868,0.8429940342903137,1.4037683010101318
1732873211812246500,5.46524658203125,-0.01038470957428217,0.6609562039375305,1.0903944969177246
1732873211822205200,5.475205078125,-0.1716531366109848,0.18570303916931152,0.3543018400669098
1732873211832235300,5.4852353515625,-0.28955012559890747,-0.10018189996480942,-0.18875735998153687
1732873211842224600,5.495224609375,-0.3793473243713379,-0.26083946228027344,-0.6310238242149353
1732873211852225800,5.505225830078125,-0.42760565876960754,-0.303600013256073,-0.8863654732704163
1732873211862213600,5.515213623046875,-0.4239404797554016,-0.24617868661880493,-0.9456194043159485
1732873211872245500,5.52524560546875,-0.38117989897727966,-0.10812314599752426,-0.8503243923187256
1732873211882202600,5.53520263671875,-0.3170390725135803,0.06719517707824707,-0.6524040699005127
1732873211892234200,5.545234130859375,-0.25045475363731384,0.3341432809829712,-0.32681289315223694
1732873211902222300,5.555222412109375,-0.2021963894367218,0.45692721009254456,-0.18020524084568024
1732873211912223200,5.56522314453125,-0.2015855312347412,0.503963828086853,-0.12095131725072861
1732873211922211300,5.57521142578125,-0.22907446324825287,0.48319441080093384,-0.13744467496871948
1732873211932242400,5.585242431640625,-0.2834414839744568,0.41722095012664795,-0.20463985204696655
1732873211942231000,5.59523095703125,-0.34208452701568604,0.3274237811565399,-0.29993483424186707
1732873211952231700,5.605231689453125,-0.3842342495918274,0.20830504596233368,-0.4043927788734436
1732873211962219800,5.6152197265625,-0.4080579876899719,0.09162978827953339,-0.4911356568336487
1732873211972250600,5.625250732421875,-0.39584067463874817,0.013439035043120384,-0.5558874011039734
1732873211982209000,5.635208984375,-0.3597996234893799,-0.014049900695681572,-0.5668829679489136
1732873211992239900,5.645239990234375,-0.3127630054950714,-0.018325956538319588,-0.5687155723571777
1732873212002228500,5.655228515625,-0.2632829248905182,-0.010995574295520782,-0.5607742667198181
1732873212012228600,5.665228515625,-0.22052235901355743,0.0012217304902151227,-0.5467243790626526
1732873212022217500,5.675217529296875,-0.17837265133857727,0.015882495790719986,-0.5167919993400574
1732873212032248800,5.685248779296875,-0.13744467496871948,0.024434609338641167,-0.46792277693748474
1732873212042206500,5.69520654296875,-0.0806342139840126,0.01771509274840355,-0.3500257730484009
1732873212052238000,5.705238037109375,-0.04459316283464432,-0.012217304669320583,-0.2474004179239273
1732873212062226200,5.71522607421875,-0.01160643994808197,-0.05803219974040985,-0.13866640627384186
1732873212072227000,5.72522705078125,0.02015855349600315,-0.08491026610136032,-0.029932396486401558
1732873212082215000,5.73521484375,0.0555887371301651,-0.06536258012056351,0.07208210229873657
1732873212092245800,5.745245849609375,0.10018189996480942,-0.00733038317412138,0.1618792861700058
1732873212102204000,5.755203857421875,0.152105450630188,0.059864792972803116,0.24007004499435425
1732873212112235000,5.765235107421875,0.2015855312347412,0.09834930300712585,0.27977627515792847
1732873212122223600,5.7752236328125,0.2321287989616394,0.11911872029304504,0.21502456068992615
1732873212132224000,5.78522412109375,0.21319197118282318,0.10812314599752426,0.09285151958465576
1732873212142212600,5.795212646484375,0.16371189057826996,0.07757988572120667,-0.07147123664617538
1732873212152244200,5.805244140625,0.09651670604944229,0.01710422709584236,-0.2620611786842346
1732873212162201600,5.81520166015625,0.025045474991202354,-0.06963863968849182,-0.4434881806373596
1732873212172233200,5.825233154296875,-0.03298672288656235,-0.152105450630188,-0.588874101638794
1732873212182221000,5.835220947265625,-0.06475171446800232,-0.21563543379306793,-0.675616979598999
1732873212192252400,5.84525244140625,-0.04764748737215996,-0.18875735998153687,-0.6426302194595337
1732873212202210000,5.8552099609375,0.0006108652451075613,-0.08368854224681854,-0.5051855444908142
1732873212212241400,5.865241455078125,0.09957103431224823,0.0910189226269722,-0.25534167885780334
1732873212222229500,5.8752294921875,0.22846360504627228,0.29993483424186707,0.05742133408784866
1732873212232230400,5.88523046875,0.3219259977340698,0.43737950921058655,0.33475416898727417
1732873212242218800,5.89521875,0.3585779070854187,0.4239404797554016,0.4801400899887085
1732873212252250000,5.90525,0.32681289315223694,0.303600013256073,0.4508185386657715
1732873212262207700,5.915207763671875,0.17531833052635193,0.13439035415649414,0.19486601650714874
1732873212272239400,5.9252392578125,0.06841690838336945,0.07696902006864548,0.03787364438176155
1732873212282227200,5.935227294921875,0.03787364438176155,0.08307767659425735,0.054367005825042725
1732873212292227000,5.94522705078125,0.11545353382825851,0.1722639948129654,0.2926044464111328
1732873212302216200,5.95521630859375,0.2742784917354584,0.33536502718925476,0.6988298296928406
1732873212312246500,5.96524658203125,0.46853363513946533,0.484416127204895,1.1465940475463867
1732873212322205200,5.975205078125,0.6676757335662842,0.5821545720100403,1.5351043939590454
1732873212332235500,5.985235595703125,0.8197811841964722,0.607810914516449,1.7751743793487549
1732873212342224600,5.995224609375,0.8643743395805359,0.4911356568336487,1.7519614696502686
1732873212352224500,6.005224609375,0.7684684991836548,0.3237585723400116,1.4782938957214355
1732873212362213600,6.015213623046875,0.5992587804794312,0.11667526513338089,1.045190453529358
1732873212372244000,6.025243896484375,0.4092797040939331,-0.08857546001672745,0.5461135506629944
1732873212382202600,6.03520263671875,0.22540926933288574,-0.23151792585849762,0.06536258012056351
1732873212392233200,6.045233154296875,0.0910189226269722,-0.32620203495025635,-0.3280346393585205
1732873212402222300,6.055222412109375,0.024434609338641167,-0.3988949954509735,-0.5687155723571777
1732873212412222000,6.065221923828125,0.02932153269648552,-0.44715335965156555,-0.6627888083457947
1732873212422211300,6.07521142578125,0.08185594528913498,-0.41722095012664795,-0.6059783101081848
1732873212432242700,6.08524267578125,0.15454891324043274,-0.36224308609962463,-0.504574716091156
1732873212442230800,6.095230712890625,0.23029619455337524,-0.2871066629886627,-0.39156460762023926
1732873212452231700,6.105231689453125,0.2974913716316223,-0.20952677726745605,-0.29138273000717163
1732873212462219800,6.1152197265625,0.34086281061172485,-0.15821409225463867,-0.22968533635139465
1732873212472251600,6.125251708984375,0.3579670190811157,-0.14477506279945374,-0.21135938167572021
1732873212482209000,6.135208984375,0.34574973583221436,-0.16371189057826996,-0.26145032048225403
1732873212492240000,6.145239990234375,0.32070425152778625,-0.1814269721508026,-0.3225368559360504
1732873212502228200,6.155228271484375,0.2919935882091522,-0.19853121042251587,-0.39645153284072876
1732873212512228900,6.165228759765625,0.25534167885780334,-0.21868975460529327,-0.46731191873550415
1732873212522217500,6.175217529296875,0.22479841113090515,-0.24373523890972137,-0.5314527750015259
1732873212532248600,6.18524853515625,0.19608774781227112,-0.26572638750076294,-0.5821545720100403
1732873212542206500,6.19520654296875,0.17287486791610718,-0.2736676335334778,-0.6194173693656921
1732873212552237600,6.205237548828125,0.15027284622192383,-0.2767219543457031,-0.646295428276062
1732873212562226200,6.21522607421875,0.10812314599752426,-0.2571742534637451,-0.6811147332191467
1732873212572226300,6.225226318359375,0.07513642311096191,-0.22968533635139465,-0.6951646208763123
1732873212582215200,6.235215087890625,0.04153883829712868,-0.20525072515010834,-0.6957755088806152
1732873212592245800,6.245245849609375,0.009162978269159794,-0.18448130786418915,-0.6786713004112244
1732873212602203600,6.25520361328125,-0.024434609338641167,-0.14538592100143433,-0.6310238242149353
1732873212612235000,6.265235107421875,-0.05192354694008827,-0.09896016865968704,-0.5510004758834839
1732873212622223000,6.27522314453125,-0.06963863968849182,-0.05314527451992035,-0.43676865100860596
1732873212632224000,6.28522412109375,-0.08735372871160507,-0.02932153269648552,-0.22052235901355743
1732873212642212000,6.295212158203125,-0.10201449692249298,-0.039706241339445114,-0.06963863968849182
1732873212652244000,6.305243896484375,-0.11301007121801376,-0.05497787147760391,0.0708603709936142
1732873212662201000,6.315201171875,-0.11056660860776901,-0.06414084881544113,0.19425514340400696
1732873212672232700,6.325232666015625,-0.08918632566928864,-0.0507018156349659,0.30482175946235657
1732873212682249200,6.335249267578125,-0.05192354694008827,0.0006108652451075613,0.40194934606552124
1732873212692252700,6.345252685546875,-0.005497787147760391,0.07269296050071716,0.4813618063926697
1732873212702210000,6.3552099609375,0.06352998316287994,0.12034045159816742,0.5412266254425049
1732873212712241400,6.365241455078125,0.06536258012056351,0.10262536257505417,0.5241223573684692
1732873212722229500,6.3752294921875,0.03481931984424591,0.1111774742603302,0.45875978469848633
1732873212732230700,6.385230712890625,-0.013439035043120384,0.15271630883216858,0.37690386176109314
1732873212742218800,6.39521875,-0.05864306539297104,0.19364428520202637,0.3127630054950714
1732873212752250000,6.40525,-0.10201449692249298,0.1508837193250656,0.2480112910270691
1732873212762207700,6.415207763671875,-0.13561208546161652,0.04214970022439957,0.1319468915462494
1732873212772239400,6.4252392578125,-0.1667662113904953,-0.08124507963657379,-0.009162978269159794
1732873212782227500,6.4352275390625,-0.18081611394882202,-0.15760323405265808,-0.10323622822761536
1732873212792228400,6.445228271484375,-0.1612684279680252,-0.06169738993048668,-0.006719517521560192
1732873212802216200,6.45521630859375,-0.1215621829032898,0.11178833991289139,0.24129177629947662
1732873212812247600,6.46524755859375,-0.06475171446800232,0.2987131178379059,0.6053674817085266
1732873212822205200,6.475205078125,-0.00427605677396059,0.4434881806373596,0.9963212013244629
1732873212832236800,6.48523681640625,0.05375614017248154,0.5161811113357544,1.3255776166915894
1732873212842225000,6.495224853515625,0.09712757170200348,0.5387831330299377,1.5253305435180664
1732873212852224500,6.505224609375,0.11301007121801376,0.49724429845809937,1.528384804725647
1732873212862214000,6.5152138671875,0.07513642311096191,0.42699480056762695,1.3371840715408325
1732873212872244000,6.525243896484375,0.0024434609804302454,0.313373863697052,1.024420976638794
1732873212882202600,6.53520263671875,-0.08857546001672745,0.19058994948863983,0.6414085030555725
1732873212892233200,6.545233154296875,-0.18570303916931152,0.0861319974064827,0.24862214922904968
1732873212902222300,6.555222412109375,-0.27611109614372253,-0.00855211354792118,-0.10384709388017654
1732873212912223000,6.565222900390625,-0.3390302062034607,-0.08857546001672745,-0.36651915311813354
1732873212922211300,6.57521142578125,-0.4086688458919525,-0.12889257073402405,-0.5302310585975647
1732873212932242200,6.5852421875,-0.4453207552433014,-0.11850785464048386,-0.5161811113357544
1732873212942231000,6.59523095703125,-0.46364670991897583,-0.1014036312699318,-0.44226643443107605
1732873212952231400,6.6052314453125,-0.46853363513946533,-0.07513642311096191,-0.3433062732219696
1732873212962219800,6.6152197265625,-0.4703662395477295,-0.03176499158143997,-0.24556782841682434
1732873212972251000,6.6252509765625,-0.4740314185619354,0.02871066704392433,-0.17898350954055786
1732873212982209000,6.635208984375,-0.4789183437824249,0.0757472887635231,-0.16065755486488342
1732873212992239900,6.645239990234375,-0.4899139404296875,0.1062905490398407,-0.18509216606616974
1732873213002228500,6.655228515625,-0.5027421116828918,0.1111774742603302,-0.28099802136421204
1732873213012228900,6.665228759765625,-0.5112941861152649,0.08124507963657379,-0.3530801236629486
1732873213022217500,6.675217529296875,-0.5149593949317932,0.04398229718208313,-0.41172316670417786
1732873213032248600,6.68524853515625,-0.5149593949317932,0.0006108652451075613,-0.44715335965156555
1732873213042206500,6.69520654296875,-0.4948008358478546,-0.025045474991202354,-0.4550946056842804
1732873213052237300,6.7052373046875,-0.46364670991897583,-0.033597588539123535,-0.4349360466003418
1732873213062226200,6.71522607421875,-0.41661009192466736,-0.02871066704392433,-0.3781255781650543
1732873213072226600,6.7252265625,-0.33047810196876526,-0.010995574295520782,-0.22846360504627228
1732873213082215000,6.73521484375,-0.2730567753314972,-0.030543262138962746,-0.10995574295520782
1732873213092245800,6.745245849609375,-0.21930062770843506,-0.06841690838336945,0.0024434609804302454
1732873213102204000,6.755203857421875,-0.17470745742321014,-0.11056660860776901,0.09834930300712585
1732873213112235000,6.765235107421875,-0.13316862285137177,-0.14049901068210602,0.18081611394882202
1732873213122223600,6.7752236328125,-0.0959058403968811,-0.13500121235847473,0.2541199326515198
1732873213132224000,6.78522412109375,-0.04948008432984352,-0.09346238523721695,0.33169981837272644
1732873213142212600,6.795212646484375,0.01710422709584236,0.00427605677396059,0.45142942667007446
1732873213152243500,6.805243408203125,0.027488935738801956,0.04337143152952194,0.485027015209198
1732873213162201600,6.81520166015625,0.006719517521560192,0.059864792972803116,0.4343251883983612
1732873213172232400,6.825232421875,-0.036651913076639175,0.08002334833145142,0.3066543638706207
1732873213182221000,6.835220947265625,-0.0861319974064827,0.11178833991289139,0.1472185254096985
1732873213192252000,6.845251953125,-0.14966198801994324,0.14782938361167908,-0.018325956538319588
1732873213202210000,6.8552099609375,-0.20525072515010834,0.15332718193531036,-0.18020524084568024
1732873213212241200,6.8652412109375,-0.24068090319633484,0.12217304855585098,-0.32681289315223694
1732873213222229500,6.8752294921875,-0.26083946228027344,0.0806342139840126,-0.47280970215797424
1732873213232230700,6.885230712890625,-0.24190263450145721,0.10445795953273773,-0.4905247986316681
1732873213242218800,6.89521875,-0.19058994948863983,0.19792033731937408,-0.4447098970413208
1732873213252249300,6.905249267578125,-0.11850785464048386,0.32986724376678467,-0.3500257730484009
1732873213262207700,6.915207763671875,-0.03787364438176155,0.41661009192466736,-0.25534167885780334
1732873213272239400,6.9252392578125,0.012828170321881771,0.43249258399009705,-0.22602014243602753
1732873213282227200,6.935227294921875,0.0006108652451075613,0.34147366881370544,-0.31154128909111023
1732873213292228000,6.94522802734375,-0.15393804013729095,0.04092797264456749,-0.6236934065818787
1732873213302216200,6.95521630859375,-0.30970868468284607,-0.14416420459747314,-0.836885392665863
1732873213312247600,6.96524755859375,-0.4147774875164032,-0.2571742534637451,-0.8845328688621521
1732873213322205200,6.975205078125,-0.44593164324760437,-0.26633724570274353,-0.6291912198066711
1732873213332236500,6.985236572265625,-0.3933972120285034,-0.15271630883216858,-0.11239920556545258
1732873213342225000,6.995224853515625,-0.23273965716362,0.012217304669320583,0.5644394755363464
1732873213352225800,7.005225830078125,-0.00366519158706069,0.19486601650714874,1.2791517972946167
1732873213362214000,7.0152138671875,0.36163222789764404,0.48380526900291443,2.175291061401367
1732873213372244000,7.025243896484375,0.5106833577156067,0.626747727394104,2.4740042686462402
1732873213382202600,7.03520263671875,0.5699372887611389,0.694553792476654,2.4611761569976807
1732873213392235000,7.045235107421875,0.5290092825889587,0.6921103000640869,2.1649065017700195
1732873213402222300,7.055222412109375,0.40194934606552124,0.6224716901779175,1.653001308441162
1732873213412222000,7.065221923828125,0.21930062770843506,0.4764748811721802,0.9822713136672974
1732873213422211300,7.07521142578125,0.009162978269159794,0.29565876722335815,0.24007004499435425
1732873213432242400,7.085242431640625,-0.2015855312347412,0.11850785464048386,-0.4642575979232788
1732873213442231000,7.09523095703125,-0.4239404797554016,-0.10506882518529892,-1.2406673431396484
1732873213452232000,7.10523193359375,-0.4990769028663635,-0.20891591906547546,-1.483791708946228
1732873213462219800,7.1152197265625,-0.5155702829360962,-0.26572638750076294,-1.510058879852295
1732873213472251400,7.12525146484375,-0.46853363513946533,-0.2687807083129883,-1.340238332748413
1732873213482209000,7.135208984375,-0.3805690407752991,-0.22418753802776337,-1.015868902206421
1732873213492240600,7.14524072265625,-0.26939156651496887,-0.16798794269561768,-0.618195652961731
1732873213502228200,7.155228271484375,-0.1459967941045761,-0.10751228034496307,-0.21868975460529327
1732873213512229600,7.165229736328125,-0.031154127791523933,-0.024434609338641167,0.21441370248794556
1732873213522217500,7.175217529296875,-0.009162978269159794,-0.039706241339445114,0.3188716471195221
1732873213532248800,7.185248779296875,-0.033597588539123535,-0.11056660860776901,0.31154128909111023
1732873213542206500,7.19520654296875,-0.10018189996480942,-0.2070833146572113,0.2382374405860901
1732873213552237600,7.205237548828125,-0.182648703455925,-0.3029891550540924,0.12278391420841217
1732873213562226200,7.21522607421875,-0.2590068578720093,-0.38728857040405273,0.005497787147760391
1732873213572226600,7.2252265625,-0.33108896017074585,-0.47219884395599365,-0.08246681094169617
1732873213582215200,7.235215087890625,-0.41172316670417786,-0.5345070958137512,-0.13927727937698364
1732873213592245200,7.245245361328125,-0.44287729263305664,-0.5283984541893005,-0.1472185254096985
1732873213602203600,7.25520361328125,-0.46364670991897583,-0.49724429845809937,-0.13744467496871948
1732873213612234800,7.26523486328125,-0.47708576917648315,-0.45326200127601624,-0.10751228034496307
1732873213622223000,7.27522314453125,-0.4917465150356293,-0.39156460762023926,-0.05925392732024193
1732873213632223500,7.285223388671875,-0.50335294008255,-0.3176499307155609,-0.005497787147760391
1732873213642212000,7.295212158203125,-0.5192354321479797,-0.2480112910270691,0.04948008432984352
1732873213652243000,7.305242919921875,-0.5412266254425049,-0.20036379992961884,0.10934487730264664
1732873213662201000,7.315201171875,-0.5876523852348328,-0.1459967941045761,0.18020524084568024
1732873213672232200,7.325232177734375,-0.6230825781822205,-0.11728613078594208,0.2070833146572113
1732873213682220500,7.335220458984375,-0.6664539575576782,-0.10201449692249298,0.2174680233001709
1732873213692252200,7.345252197265625,-0.7141014933586121,-0.1062905490398407,0.20463985204696655
1732873213702210000,7.3552099609375,-0.7556403279304504,-0.10567969083786011,0.17470745742321014
1732873213712241200,7.3652412109375,-0.7751879692077637,-0.08185594528913498,0.14844025671482086
1732873213722229500,7.3752294921875,-0.7733554244041443,-0.04886921867728233,0.1264491081237793
1732873213732230100,7.385230224609375,-0.7629706859588623,0.019547687843441963,0.07330382615327835
1732873213742218800,7.39521875,-0.7629706859588623,0.07635815441608429,0.007941247895359993
1732873213752249900,7.405249755859375,-0.769690215587616,0.14477506279945374,-0.08674286305904388
1732873213762207500,7.41520751953125,-0.7812966704368591,0.252287358045578,-0.192422553896904
1732873213772238800,7.42523876953125,-0.8008443117141724,0.3500257730484009,-0.2987131178379059
1732873213782227200,7.435227294921875,-0.8155050873756409,0.43127086758613586,-0.3579670190811157
1732873213792227600,7.4452275390625,-0.827111542224884,0.47769662737846375,-0.3439171314239502
1732873213802216200,7.45521630859375,-0.8301658630371094,0.3543018400669098,-0.2174680233001709
1732873213812247800,7.465247802734375,-0.8252789378166199,0.24007004499435425,-0.05925392732024193
1732873213822205200,7.475205078125,-0.8258898258209229,0.12828169763088226,0.13500121235847473
1732873213832236800,7.48523681640625,-0.8393288254737854,0.04886921867728233,0.31459560990333557
1732873213842225000,7.495224853515625,-0.8533787727355957,0.03848451003432274,0.4282165467739105
1732873213852225800,7.505225830078125,-0.8973610401153564,0.02382374368607998,0.44776421785354614
1732873213862214000,7.5152138671875,-0.9822713136672974,-0.03298672288656235,0.3689626157283783
1732873213872245000,7.525244873046875,-1.0726794004440308,-0.10751228034496307,0.22052235901355743
1732873213882202600,7.53520263671875,-1.1826350688934326,-0.18570303916931152,-0.07391469180583954
1732873213892233700,7.545233642578125,-1.207680583000183,-0.192422553896904,-0.2620611786842346
1732873213902222300,7.555222412109375,-1.1869112253189087,-0.19792033731937408,-0.4398229718208313
1732873213912222700,7.56522265625,-1.1368201971054077,-0.23151792585849762,-0.6255260109901428
1732873213922211300,7.57521142578125,-1.1056660413742065,-0.2883284091949463,-0.8252789378166199
1732873213932243000,7.585242919921875,-1.0965031385421753,-0.3488040566444397,-1.0366383790969849
1732873213942231000,7.59523095703125,-1.1099421977996826,-0.45631635189056396,-1.2107349634170532
1732873213952231200,7.605231201171875,-1.1362093687057495,-0.5302310585975647,-1.176526427268982
1732873213962220000,7.615219970703125,-1.1087204217910767,-0.3988949954509735,-0.8289441466331482
1732873213972251600,7.625251708984375,-1.0653489828109741,-0.22113321721553802,-0.23640485107898712
1732873213982209000,7.635208984375,-0.9963212013244629,-0.07452555745840073,0.4386012554168701
1732873213992240600,7.64524072265625,-0.8820894360542297,0.01466076634824276,1.0128145217895508
1732873214002228200,7.655228271484375,-0.7556403279304504,0.06108652427792549,1.3933836221694946
1732873214012228000,7.66522802734375,-0.6725626587867737,0.08368854224681854,1.5534303188323975
1732873214022217500,7.675217529296875,-0.645684540271759,0.0910189226269722,1.3854423761367798
1732873214032249900,7.685249755859375,-0.6921103000640869,0.09529497474431992,1.0561859607696533
1732873214042206500,7.69520654296875,-0.7861835956573486,0.0910189226269722,0.6243042945861816
1732873214052239000,7.705239013671875,-0.9089674949645996,0.06108652427792549,0.1569923609495163
1732873214062226200,7.71522607421875,-1.0506882667541504,0.028099801391363144,-0.2779437005519867
1732873214072226000,7.72522607421875,-1.1911872625350952,-0.05619960278272629,-0.5919284224510193
1732873214082215200,7.735215087890625,-1.3194689750671387,-0.16371189057826996,-0.7519751191139221
1732873214092245200,7.745245361328125,-1.415374755859375,-0.2981022298336029,-0.7654141783714294
1732873214102204000,7.755203857421875,-1.4831807613372803,-0.3500257730484009,-0.5589417219161987
1732873214112235800,7.76523583984375,-1.4764612913131714,-0.3121521472930908,-0.34513887763023376
1732873214122223600,7.7752236328125,-1.4471397399902344,-0.25473082065582275,-0.1319468915462494
1732873214132224500,7.785224609375,-1.4184291362762451,-0.19853121042251587,0.036651913076639175
1732873214142212600,7.795212646484375,-1.405600905418396,-0.14966198801994324,0.1368338167667389
1732873214152242700,7.80524267578125,-1.4129313230514526,-0.09407325088977814,0.16371189057826996
1732873214162201600,7.81520166015625,-1.4404202699661255,-0.0555887371301651,0.1313360333442688
1732873214172233200,7.825233154296875,-1.4850133657455444,-0.007941247895359993,0.029932396486401558
1732873214182221000,7.835220947265625,-1.5210545063018799,0.01710422709584236,-0.051312681287527084
1732873214192252700,7.845252685546875,-1.5515977144241333,0.02321287989616394,-0.12339477986097336
1732873214202210000,7.8552099609375,-1.5625933408737183,0.0006108652451075613,-0.16310101747512817
1732873214212242000,7.865241943359375,-1.5534303188323975,-0.0354301854968071,-0.15943582355976105
1732873214222229500,7.8752294921875,-1.531439185142517,-0.06902777403593063,-0.12400564551353455
1732873214232230700,7.885230712890625,-1.4978415966033936,-0.10323622822761536,-0.06352998316287994
1732873214242218800,7.89521875,-1.42637038230896,-0.15332718193531036,0.030543262138962746
1732873214252250400,7.90525048828125,-1.38849675655365,-0.18875735998153687,0.07147123664617538
1732873214262207700,7.915207763671875,-1.3756685256958008,-0.22540926933288574,0.08368854224681854
1732873214272239400,7.9252392578125,-1.3964380025863647,-0.26145032048225403,0.05925392732024193
1732873214282227200,7.935227294921875,-1.441641926765442,-0.29565876722335815,-0.003054326167330146
1732873214292228600,7.945228515625,-1.5057828426361084,-0.35185837745666504,-0.08674286305904388
1732873214302216200,7.95521630859375,-1.5931365489959717,-0.4196644127368927,-0.16798794269561768
1732873214312247800,7.965247802734375,-1.7055357694625854,-0.5015203952789307,-0.26083946228027344
1732873214322205200,7.975205078125,-1.86191725730896,-0.6194173693656921,-0.38667771220207214
1732873214332236800,7.98523681640625,-1.9260581731796265,-0.6743952035903931,-0.4153883755207062
1732873214342225000,7.995224853515625,-1.9639317989349365,-0.7031059265136719,-0.3903428912162781
1732873214352225800,8.005225830078125,-1.9828685522079468,-0.6890559792518616,-0.32620203495025635
1732873214362213600,8.015213623046876,-1.9889771938323975,-0.6359107494354248,-0.23335053026676178
1732873214372245500,8.02524560546875,-1.9810359477996826,-0.5668829679489136,-0.13439035415649414
1732873214382203000,8.035202880859375,-1.958433985710144,-0.485027015209198,-0.05009094998240471
1732873214392233700,8.045233642578125,-1.9022343158721924,-0.3194825351238251,0.04886921867728233
1732873214402222300,8.055222412109375,-1.855197787284851,-0.1918116807937622,0.10690141469240189
1732873214412223000,8.065222900390625,-1.8124371767044067,-0.1007927656173706,0.14477506279945374
1732873214422211300,8.07521142578125,-1.7971655130386353,-0.06414084881544113,0.13988813757896423
1732873214432242400,8.085242431640625,-1.7928894758224487,-0.0403171069920063,0.10262536257505417
1732873214442231000,8.09523095703125,-1.7861700057983398,-0.03298672288656235,0.05253441259264946
1732873214452232000,8.10523193359375,-1.7702875137329102,-0.06169738993048668,0.001832595793530345
1732873214462220000,8.115219970703125,-1.7055357694625854,-0.12339477986097336,-0.03848451003432274
1732873214472251600,8.125251708984376,-1.6377297639846802,-0.16004669666290283,-0.027488935738801956
1732873214482209000,8.135208984375,-1.55892813205719,-0.1618792861700058,0.01466076634824276
1732873214492240600,8.14524072265625,-1.4813482761383057,-0.1459967941045761,0.06719517707824707
1732873214502228200,8.155228271484376,-1.4172073602676392,-0.11850785464048386,0.11789698898792267
1732873214512229600,8.165229736328126,-1.3616186380386353,-0.056810468435287476,0.16432274878025055
1732873214522217500,8.175217529296875,-1.3158037662506104,0.04764748737215996,0.2070833146572113
1732873214532248600,8.18524853515625,-1.2956452369689941,0.1508837193250656,0.23029619455337524
1732873214542206500,8.19520654296875,-1.282817006111145,0.22907446324825287,0.12828169763088226
1732873214552237800,8.20523779296875,-1.2822061777114868,0.21441370248794556,-0.07635815441608429
1732873214562226200,8.21522607421875,-1.3041973114013672,0.07513642311096191,-0.37751471996307373
1732873214572227300,8.225227294921876,-1.3671164512634277,-0.1771509200334549,-0.740368664264679
1732873214582215200,8.235215087890625,-1.4330898523330688,-0.4508185386657715,-1.0781772136688232
1732873214592245200,8.245245361328125,-1.4789047241210938,-0.6255260109901428,-1.2510520219802856
1732873214602203600,8.25520361328125,-1.4953981637954712,-0.6548475623130798,-1.1148290634155273
1732873214612234500,8.265234375,-1.357953429222107,-0.4282165467739105,-0.23090706765651703
1732873214622223000,8.27522314453125,-1.1740829944610596,-0.1618792861700058,0.6304129362106323
1732873214632224300,8.285224365234376,-0.9456194043159485,0.02871066704392433,1.4795156717300415
1732873214642212000,8.295212158203125,-0.7134906053543091,0.13377949595451355,2.1398608684539795
1732873214652243700,8.30524365234375,-0.543059229850769,0.18936823308467865,2.5534167289733887
1732873214662201000,8.315201171875,-0.4544837474822998,0.19120082259178162,2.6835310459136963
1732873214672232000,8.32523193359375,-0.36163222789764404,0.3084869384765625,2.4605650901794434
1732873214682247200,8.3352470703125,-0.5613851547241211,0.26939156651496887,1.7171422243118286
1732873214692253400,8.34525341796875,-0.6505714654922485,-0.11972958594560623,1.0616837739944458
1732873214702210000,8.3552099609375,-0.7141014933586121,-0.37079519033432007,0.4129449129104614
1732873214712240600,8.36524072265625,-0.846659243106842,-0.3488040566444397,-0.16432274878025055
1732873214722229800,8.375229736328125,-0.9865473508834839,-0.15332718193531036,-0.6682865619659424
1732873214732229600,8.385229736328125,-1.0867292881011963,0.033597588539123535,-1.016479730606079
1732873214742218800,8.39521875,-1.1105530261993408,0.152105450630188,-1.1227703094482422
1732873214752249000,8.4052490234375,-1.0445796251296997,0.15760323405265808,-0.979827880859375
1732873214762207700,8.415207763671875,-0.8405506014823914,0.07819075137376785,-0.45875978469848633
1732873214772238000,8.425238037109375,-0.5955936312675476,-0.016493361443281174,-0.06658431142568588
1732873214782227000,8.43522705078125,-0.46181413531303406,-0.09224065393209457,0.3078760802745819
1732873214792227000,8.44522705078125,-0.3677408695220947,-0.13500121235847473,0.5406157374382019
1732873214802216200,8.45521630859375,-0.26939156651496887,-0.20891591906547546,0.5962044596672058
1732873214812246500,8.46524658203125,-0.2217440903186798,-0.2834414839744568,0.5467243790626526
1732873214822205200,8.475205078125,-0.2272418737411499,-0.3170390725135803,0.4447098970413208
1732873214832235500,8.485235595703125,-0.26083946228027344,-0.2779437005519867,0.25106561183929443
1732873214842225000,8.495224853515625,-0.2877175211906433,-0.22663100063800812,0.1508837193250656
1732873214852225500,8.5052255859375,-0.313373863697052,-0.18448130786418915,0.07024950534105301
1732873214862214000,8.5152138671875,-0.34025195240974426,-0.15882496535778046,-0.018325956538319588
1732873214872244500,8.525244384765625,-0.37751471996307373,-0.05009094998240471,-0.14049901068210602
1732873214882203000,8.535202880859375,-0.43249258399009705,-0.0757472887635231,-0.22113321721553802
1732873214892234200,8.545234130859376,-0.423329621553421,-0.18936823308467865,-0.24007004499435425
1732873214902222300,8.555222412109375,-0.39645153284072876,-0.13072516024112701,-0.3023782968521118
1732873214912222700,8.56522265625,-0.3995058834552765,-0.10384709388017654,-0.34513887763023376
1732873214922211300,8.57521142578125,-0.3701843321323395,-0.13744467496871948,-0.3732386529445648
1732873214932242400,8.585242431640625,-0.33292156457901,-0.19608774781227112,-0.3982841372489929
1732873214942230800,8.595230712890626,-0.2938261926174164,-0.23335053026676178,-0.42638394236564636
1732873214952231400,8.6052314453125,-0.242513507604599,-0.23945917189121246,-0.44104471802711487
1732873214962220000,8.615219970703125,-0.1966986060142517,-0.24007004499435425,-0.43799036741256714
1732873214972251000,8.6252509765625,-0.1569923609495163,-0.23335053026676178,-0.4251621961593628
1732873214982209000,8.635208984375,-0.10445795953273773,-0.21563543379306793,-0.39706242084503174
1732873214992240400,8.645240478515625,-0.08246681094169617,-0.21807889640331268,-0.36529740691185
1732873215002228200,8.655228271484376,-0.0708603709936142,-0.23151792585849762,-0.3219259977340698
1732873215012228600,8.665228515625,-0.05803219974040985,-0.24862214922904968,-0.2687807083129883
1732873215022217500,8.675217529296875,-0.045204028487205505,-0.2583959996700287,-0.21380282938480377
1732873215032248300,8.685248291015625,-0.025045474991202354,-0.24373523890972137,-0.16310101747512817
1732873215042206500,8.69520654296875,-0.0024434609804302454,-0.20097467303276062,-0.11667526513338089
1732873215052237600,8.705237548828125,0.027488935738801956,-0.15027284622192383,-0.08552113175392151
1732873215062226200,8.71522607421875,0.04153883829712868,-0.12461651116609573,-0.1014036312699318
1732873215072226600,8.7252265625,0.05497787147760391,-0.10018189996480942,-0.13072516024112701
1732873215082215000,8.73521484375,0.05864306539297104,-0.0708603709936142,-0.15821409225463867
1732873215092245800,8.745245849609375,0.060475658625364304,-0.051312681287527084,-0.17592918872833252
1732873215102204000,8.755203857421876,0.07208210229873657,-0.031154127791523933,-0.18570303916931152
1732873215112234200,8.765234130859374,0.09834930300712585,-0.0006108652451075613,-0.1716531366109848
1732873215122223600,8.7752236328125,0.15027284622192383,0.054367005825042725,-0.08552113175392151
1732873215132223500,8.785223388671875,0.19120082259178162,0.08735372871160507,-0.012217304669320583
1732873215142212600,8.795212646484375,0.24068090319633484,0.11667526513338089,0.03787364438176155
1732873215152243700,8.80524365234375,0.28527405858039856,0.1368338167667389,0.06352998316287994
1732873215162201600,8.81520166015625,0.3243694305419922,0.13927727937698364,0.07513642311096191
1732873215172232400,8.825232421875,0.34758231043815613,0.10018189996480942,0.08002334833145142
1732873215182220800,8.835220703125,0.3579670190811157,0.03420845419168472,0.07880161702632904
1732873215192253000,8.8452529296875,0.342695415019989,-0.060475658625364304,0.0757472887635231
1732873215202210000,8.8552099609375,0.30482175946235657,-0.18997909128665924,0.07269296050071716
1732873215212242000,8.865241943359376,0.2834414839744568,-0.23396138846874237,0.0910189226269722
1732873215222229500,8.8752294921875,0.2718350291252136,-0.21135938167572021,0.13255776464939117
1732873215232230700,8.885230712890625,0.26939156651496887,-0.19608774781227112,0.18387043476104736
1732873215242218800,8.89521875,0.2577851414680481,-0.24862214922904968,0.2076941877603531
1732873215252250000,8.90525,0.2174680233001709,-0.33292156457901,0.1820378452539444
1732873215262207500,8.91520751953125,0.14049901068210602,-0.40622538328170776,0.08552113175392151
1732873215272239400,8.9252392578125,-0.025045474991202354,-0.5577199459075928,-0.11545353382825851
1732873215282227200,8.935227294921875,-0.13988813757896423,-0.6536257863044739,-0.22113321721553802
1732873215292228000,8.94522802734375,-0.22846360504627228,-0.7147123217582703,-0.2626720666885376
1732873215302216200,8.95521630859375,-0.2828305959701538,-0.7562511563301086,-0.2064724564552307
1732873215312247600,8.96524755859375,-0.3084869384765625,-0.7519751191139221,-0.04764748737215996
1732873215322205200,8.975205078125,-0.29626965522766113,-0.6389650702476501,0.2174680233001709
1732873215332236500,8.985236572265626,-0.24617868661880493,-0.384845107793808,0.5998696684837341
1732873215342225000,8.995224853515625,-0.11362093687057495,0.1459967941045761,1.2773191928863525
1732873215352225800,9.005225830078125,-0.022602014243602753,0.4251621961593628,1.6548339128494263
1732873215362213600,9.015213623046876,0.04214970022439957,0.5937610268592834,1.9040669202804565
1732873215372244000,9.025243896484374,0.059864792972803116,0.6902777552604675,1.9993619918823242
1732873215382203000,9.035202880859375,0.02871066704392433,0.7171558141708374,1.9254472255706787
1732873215392235300,9.0452353515625,-0.04214970022439957,0.6878342628479004,1.6963727474212646
1732873215402222300,9.055222412109375,-0.14538592100143433,0.5998696684837341,1.3377948999404907
1732873215412226300,9.065226318359375,-0.26939156651496887,0.48258355259895325,0.9040805697441101
1732873215422211300,9.07521142578125,-0.44593164324760437,0.3292563557624817,0.2632829248905182
1732873215432241700,9.08524169921875,-0.5302310585975647,0.26511552929878235,-0.07330382615327835
1732873215442231000,9.09523095703125,-0.5852088928222656,0.21502456068992615,-0.3121521472930908
1732873215452231400,9.1052314453125,-0.6243042945861816,0.17592918872833252,-0.4801400899887085
1732873215462220000,9.115219970703125,-0.6438519954681396,0.1411098688840866,-0.5919284224510193
1732873215472251600,9.125251708984376,-0.6395758986473083,0.11362093687057495,-0.636521577835083
1732873215482209000,9.135208984375,-0.6261368989944458,0.08979719132184982,-0.6279694437980652
1732873215492240600,9.14524072265625,-0.6035348773002625,0.05742133408784866,-0.5503895878791809
1732873215502228500,9.155228515625,-0.5766568183898926,0.04948008432984352,-0.4709770977497101
1732873215512229600,9.165229736328126,-0.5314527750015259,0.07696902006864548,-0.36713001132011414
1732873215522217500,9.175217529296875,-0.4746423065662384,0.14416420459747314,-0.25045475363731384
1732873215532249000,9.1852490234375,-0.403781920671463,0.21930062770843506,-0.14233160018920898
1732873215542206500,9.19520654296875,-0.32559117674827576,0.251676470041275,-0.05314527451992035
1732873215552237800,9.20523779296875,-0.25045475363731384,0.2541199326515198,0.00733038317412138
1732873215562226200,9.21522607421875,-0.19303341209888458,0.20097467303276062,0.042760565876960754
1732873215572226800,9.225226806640626,-0.15454891324043274,0.13561208546161652,0.02382374368607998
1732873215582215000,9.23521484375,-0.15393804013729095,0.05497787147760391,-0.018325956538319588
1732873215592245200,9.245245361328125,-0.16859880089759827,-0.03481931984424591,-0.06963863968849182
1732873215602203600,9.25520361328125,-0.1820378452539444,-0.12217304855585098,-0.12339477986097336
1732873215612234800,9.26523486328125,-0.17592918872833252,-0.17531833052635193,-0.16310101747512817
1732873215622223000,9.27522314453125,-0.15027284622192383,-0.18448130786418915,-0.17531833052635193
1732873215632223500,9.285223388671875,-0.11239920556545258,-0.17043140530586243,-0.1618792861700058
1732873215642212000,9.295212158203125,-0.04092797264456749,-0.1270599663257599,-0.12522737681865692
1732873215652243000,9.305242919921875,-0.0006108652451075613,-0.11178833991289139,-0.11056660860776901
1732873215662201000,9.315201171875,0.018936822190880775,-0.1368338167667389,-0.11789698898792267
1732873215672232200,9.325232177734375,0.012828170321881771,-0.2021963894367218,-0.1466076523065567
1732873215682220500,9.335220458984375,-0.019547687843441963,-0.27122417092323303,-0.182648703455925
1732873215692251600,9.345251708984375,-0.06352998316287994,-0.36163222789764404,-0.2064724564552307
1732873215702210000,9.3552099609375,-0.10690141469240189,-0.4190535545349121,-0.21074850857257843
1732873215712241400,9.365241455078126,-0.1472185254096985,-0.39217549562454224,-0.1313360333442688
1732873215722229500,9.3752294921875,-0.14538592100143433,-0.34636059403419495,-0.010995574295520782
1732873215732231000,9.38523095703125,-0.12828169763088226,-0.2779437005519867,0.13927727937698364
1732873215742218800,9.39521875,-0.08979719132184982,-0.18509216606616974,0.29077184200286865
1732873215752250000,9.40525,-0.04459316283464432,-0.09040805697441101,0.4043927788734436
1732873215762207700,9.415207763671875,0.0012217304902151227,-0.00366519158706069,0.4691445231437683
1732873215772239400,9.4252392578125,0.0403171069920063,0.024434609338641167,0.4764748811721802
1732873215782227000,9.43522705078125,0.07330382615327835,0.00366519158706069,0.4288274049758911
1732873215792228000,9.44522802734375,0.09896016865968704,-0.02626720629632473,0.3072652220726013
1732873215802216200,9.45521630859375,0.10262536257505417,-0.022602014243602753,0.24495697021484375
1732873215812247000,9.4652470703125,0.10873401165008545,0.010995574295520782,0.2223549485206604
1732873215822205200,9.475205078125,0.11301007121801376,0.04459316283464432,0.2119702398777008
1732873215832236300,9.485236328125,0.1062905490398407,0.036041051149368286,0.16004669666290283
1732873215842225000,9.495224853515625,0.06291911751031876,-0.04886921867728233,0.03237585723400116
1732873215852225800,9.505225830078125,-0.028099801391363144,-0.20891591906547546,-0.15760323405265808
1732873215862214000,9.5152138671875,-0.19303341209888458,-0.4239404797554016,-0.40133845806121826
1732873215872245200,9.525245361328125,-0.23029619455337524,-0.4288274049758911,-0.3885102868080139
1732873215882203000,9.535202880859375,-0.16737708449363708,-0.2981022298336029,-0.1569923609495163
1732873215892233200,9.545233154296875,0.004886921960860491,-0.027488935738801956,0.2632829248905182
1732873215902222300,9.555222412109375,0.26022860407829285,0.2993239760398865,0.7929030656814575
1732873215912222000,9.565221923828124,0.5112941861152649,0.5839871764183044,1.3078625202178955
1732873215922211300,9.57521142578125,0.720820963382721,0.8087855577468872,1.6865988969802856
1732873215932241400,9.585241455078124,0.8912523984909058,0.9804387092590332,1.872912883758545
1732873215942230800,9.595230712890626,0.8967501521110535,0.9584475755691528,1.7324138879776
1732873215952235000,9.605235107421874,0.8191702961921692,0.8558222055435181,1.3848315477371216
1732873215962220000,9.615219970703125,0.6798930168151855,0.6811147332191467,0.8668177723884583
1732873215972252400,9.62525244140625,0.5149593949317932,0.45326200127601624,0.24923302233219147
1732873215982209000,9.635208984375,0.3439171314239502,0.24495697021484375,-0.3585779070854187
1732873215992239400,9.6452392578125,0.2028072625398636,0.06536258012056351,-0.8625417351722717
1732873216002228500,9.655228515625,0.14538592100143433,-0.06291911751031876,-1.2009611129760742
1732873216012228000,9.66522802734375,0.17348572611808777,-0.20036379992961884,-1.379333734512329
1732873216022217500,9.675217529296875,0.23396138846874237,-0.24434609711170197,-1.3176363706588745
1732873216032248800,9.685248779296876,0.3243694305419922,-0.21868975460529327,-1.1496484279632568
1732873216042206500,9.69520654296875,0.4239404797554016,-0.13316862285137177,-0.911410927772522
1732873216052237800,9.70523779296875,0.5155702829360962,-0.02687807008624077,-0.6511823534965515
1732873216062226000,9.715225830078126,0.5845980644226074,0.07941248267889023,-0.4141666293144226
1732873216072227000,9.72522705078125,0.6279694437980652,0.16432274878025055,-0.2168571650981903
1732873216082215200,9.735215087890625,0.6224716901779175,0.1319468915462494,-0.04337143152952194
1732873216092246000,9.74524609375,0.5638286471366882,0.028099801391363144,0.0006108652451075613
1732873216102204000,9.755203857421876,0.4795292317867279,-0.09346238523721695,-0.005497787147760391
1732873216112235000,9.765235107421875,0.40072759985923767,-0.21074850857257843,-0.0507018156349659
1732873216122223600,9.7752236328125,0.32681289315223694,-0.29077184200286865,-0.1062905490398407
1732873216132224000,9.78522412109375,0.27000242471694946,-0.33719760179519653,-0.1569923609495163
1732873216142212600,9.795212646484375,0.24007004499435425,-0.3597996234893799,-0.1869247704744339
1732873216152243700,9.80524365234375,0.2119702398777008,-0.3170390725135803,-0.20097467303276062
1732873216162201900,9.815201904296876,0.19853121042251587,-0.22968533635139465,-0.19425514340400696
1732873216172232400,9.825232421875,0.1820378452539444,-0.14049901068210602,-0.1875356286764145
1732873216182221000,9.835220947265626,0.16065755486488342,-0.07941248267889023,-0.17348572611808777
1732873216192252000,9.845251953125,0.13500121235847473,-0.04948008432984352,-0.14782938361167908
1732873216202210000,9.8552099609375,0.10262536257505417,-0.027488935738801956,-0.09773843735456467
1732873216212241000,9.865240966796875,0.07696902006864548,-0.014049900695681572,-0.02871066704392433
1732873216222229500,9.8752294921875,0.05619960278272629,-0.007941247895359993,0.059864792972803116
1732873216232230100,9.885230224609375,0.016493361443281174,-0.01038470957428217,0.17898350954055786
1732873216242218800,9.89521875,-0.010995574295520782,-0.027488935738801956,0.21930062770843506
1732873216252249900,9.905249755859375,-0.03848451003432274,-0.060475658625364304,0.2223549485206604
1732873216262207500,9.91520751953125,-0.07330382615327835,-0.11301007121801376,0.1973094791173935
1732873216272238600,9.925238525390625,-0.11239920556545258,-0.17837265133857727,0.14844025671482086
1732873216282227000,9.93522705078125,-0.14966198801994324,-0.21868975460529327,0.08857546001672745
1732873216292227600,9.9452275390625,-0.18081611394882202,-0.2125810980796814,0.03237585723400116
1732873216302216200,9.95521630859375,-0.23518311977386475,-0.17409659922122955,-0.060475658625364304
1732873216312247300,9.965247314453125,-0.28466320037841797,-0.1973094791173935,-0.14905111491680145
1732873216322205200,9.975205078125,-0.36163222789764404,-0.2583959996700287,-0.25106561183929443
1732873216332236800,9.98523681640625,-0.4691445231437683,-0.3127630054950714,-0.3500257730484009
1732873216342225000,9.995224853515625,-0.5760459303855896,-0.34025195240974426,-0.42088615894317627
1732873216352225800,10.005225830078125,-0.6481280326843262,-0.3500257730484009,-0.45631635189056396
1732873216362213600,10.015213623046876,-0.6695083379745483,-0.3793473243713379,-0.44837507605552673
1732873216372245500,10.02524560546875,-0.6414085030555725,-0.48197266459465027,-0.39095374941825867
1732873216382203000,10.035202880859375,-0.607810914516449,-0.504574716091156,-0.31642818450927734
1732873216392234500,10.045234375,-0.5754350423812866,-0.40683624148368835,-0.1661553531885147
1732873216402222300,10.055222412109375,-0.5070181488990784,-0.2064724564552307,0.10567969083786011
1732873216412223500,10.065223388671875,-0.40622538328170776,0.06352998316287994,0.4605923891067505
1732873216422211300,10.07521142578125,-0.29626965522766113,0.3139847218990326,0.8326093554496765
1732873216432242700,10.08524267578125,-0.21868975460529327,0.5015203952789307,1.1551461219787598
1732873216442230800,10.095230712890626,-0.18570303916931152,0.588263213634491,1.370781660079956
1732873216452231400,10.1052314453125,-0.18997909128665924,0.7055493593215942,1.454470157623291
1732873216462220000,10.115219970703125,-0.2076941877603531,0.7086036801338196,1.303586483001709
1732873216472252400,10.12525244140625,-0.24373523890972137,0.5870414972305298,0.9975429177284241
1732873216482209000,10.135208984375,-0.29993483424186707,0.394618958234787,0.5803219676017761
1732873216492241400,10.145241455078125,-0.384845107793808,0.22357667982578278,0.11728613078594208
1732873216502228500,10.155228515625,-0.4807509481906891,0.08857546001672745,-0.3390302062034607
1732873216512228900,10.165228759765625,-0.5485569834709167,0.00733038317412138,-0.7189884185791016
1732873216522217500,10.175217529296875,-0.5595525503158569,-0.07696902006864548,-1.035416603088379
1732873216532249000,10.1852490234375,-0.5222898125648499,-0.10567969083786011,-1.0482447147369385
1732873216542206500,10.19520654296875,-0.46303585171699524,-0.12034045159816742,-0.9340129494667053
1732873216552238000,10.205238037109375,-0.3799581825733185,-0.1111774742603302,-0.7318165898323059
1732873216562226200,10.21522607421875,-0.2889392673969269,-0.07819075137376785,-0.4697553813457489
1732873216572227000,10.22522705078125,-0.2119702398777008,-0.03420845419168472,-0.20463985204696655
1732873216582215200,10.235215087890625,-0.15332718193531036,-0.001832595793530345,0.01038470957428217
1732873216592245200,10.245245361328125,-0.10812314599752426,0.02871066704392433,0.16371189057826996
1732873216602203600,10.25520361328125,-0.10690141469240189,0.021380282938480377,0.16249015927314758
1732873216612234800,10.26523486328125,-0.12217304855585098,-0.01038470957428217,0.09957103431224823
1732873216622223000,10.27522314453125,-0.14538592100143433,-0.04214970022439957,0.00855211354792118
1732873216632223700,10.2852236328125,-0.16371189057826996,-0.06902777403593063,-0.07941248267889023
1732873216642212000,10.295212158203125,-0.1563815027475357,-0.08674286305904388,-0.1313360333442688
1732873216652243200,10.3052431640625,-0.12889257073402405,-0.08246681094169617,-0.11667526513338089
1732873216662201000,10.315201171875,-0.08796459436416626,-0.06902777403593063,-0.03787364438176155
1732873216672232200,10.325232177734375,-0.014049900695681572,-0.07147123664617538,0.12889257073402405
1732873216682249200,10.335249267578124,0.02871066704392433,-0.09468411654233932,0.23945917189121246
1732873216692252000,10.345251953125,0.05864306539297104,-0.11789698898792267,0.31642818450927734
1732873216702210000,10.3552099609375,0.07880161702632904,-0.12828169763088226,0.3628539443016052
1732873216712241000,10.365240966796875,0.09407325088977814,-0.10934487730264664,0.3891211748123169
1732873216722229800,10.375229736328125,0.1014036312699318,-0.05925392732024193,0.4056145250797272
1732873216732230100,10.385230224609375,0.1111774742603302,0.006108652334660292,0.42271876335144043
1732873216742218800,10.39521875,0.1417207419872284,0.09346238523721695,0.4709770977497101
1732873216752249600,10.40524951171875,0.1612684279680252,0.10445795953273773,0.5222898125648499
1732873216762207700,10.415207763671875,0.182648703455925,0.07819075137376785,0.578489363193512
1732873216772238600,10.425238525390625,0.1918116807937622,0.02626720629632473,0.5925393104553223
1732873216782227200,10.435227294921875,0.1716531366109848,-0.04092797264456749,0.5467243790626526
1732873216792227600,10.4452275390625,0.13805554807186127,-0.11850785464048386,0.44287729263305664
1732873216802216200,10.45521630859375,0.09407325088977814,-0.19058994948863983,0.2889392673969269
1732873216812247000,10.4652470703125,0.019547687843441963,-0.26572638750076294,0.025045474991202354
1732873216822205200,10.475205078125,-0.015882495790719986,-0.28038713335990906,-0.12339477986097336
1732873216832236300,10.485236328125,-0.02015855349600315,-0.2535090744495392,-0.22418753802776337
1732873216842224600,10.495224609375,0.00733038317412138,-0.20036379992961884,-0.2626720666885376
1732873216852225300,10.505225341796875,0.06475171446800232,-0.13377949595451355,-0.24862214922904968
1732873216862214000,10.5152138671875,0.1417207419872284,-0.07880161702632904,-0.2174680233001709
1732873216872244500,10.525244384765625,0.20036379992961884,-0.08552113175392151,-0.21502456068992615
1732873216882203000,10.535202880859375,0.2168571650981903,-0.19547687470912933,-0.294437050819397
1732873216892234500,10.545234375,0.15515977144241333,-0.4899139404296875,-0.578489363193512
1732873216902222300,10.555222412109375,0.06963863968849182,-0.6768386960029602,-0.778853178024292
1732873216912223200,10.56522314453125,-0.02076941914856434,-0.7244861721992493,-0.8906415104866028
1732873216922211300,10.57521142578125,-0.02871066704392433,-0.5949827432632446,-0.807563841342926
1732873216932242700,10.58524267578125,0.0555887371301651,-0.33536502718925476,-0.44654250144958496
1732873216942231000,10.59523095703125,0.19364428520202637,-0.060475658625364304,0.14233160018920898
1732873216952230400,10.60523046875,0.3732386529445648,0.1411098688840866,0.8057312369346619
1732873216962220000,10.615219970703125,0.6395758986473083,0.323147714138031,1.5845844745635986
1732873216972250000,10.62525,0.7330383062362671,0.36163222789764404,1.8234328031539917
1732873216982209000,10.635208984375,0.7415903806686401,0.3323107063770294,1.7825047969818115
1732873216992241200,10.6452412109375,0.6939429044723511,0.22357667982578278,1.4892895221710205
1732873217002228500,10.655228515625,0.5931501388549805,0.04764748737215996,0.9969320893287659
1732873217012228000,10.66522802734375,0.45265114307403564,-0.15577064454555511,0.3604104816913605
1732873217022217500,10.675217529296875,0.3121521472930908,-0.30970868468284607,-0.3390302062034607
1732873217032248300,10.685248291015625,0.21868975460529327,-0.39217549562454224,-1.2577714920043945
1732873217042206500,10.69520654296875,0.20586158335208893,-0.38240164518356323,-1.653001308441162
1732873217052237800,10.70523779296875,0.1966986060142517,-0.39095374941825867,-1.832595705986023
1732873217062226000,10.715225830078126,0.21135938167572021,-0.40744712948799133,-1.80510675907135
1732873217072227000,10.72522705078125,0.2577851414680481,-0.38606682419776917,-1.606575608253479
1732873217082215000,10.73521484375,0.32070425152778625,-0.3023782968521118,-1.2974777221679688
1732873217092246800,10.745246826171876,0.3903428912162781,-0.15515977144241333,-0.9291260242462158
1732873217102204000,10.755203857421876,0.4508185386657715,0.012828170321881771,-0.5540547966957092
1732873217112235500,10.765235595703125,0.5064072608947754,0.18081611394882202,-0.11667526513338089
1732873217122223600,10.7752236328125,0.5112941861152649,0.1814269721508026,0.036651913076639175
1732873217132224300,10.785224365234376,0.48685958981513977,0.13011430203914642,0.0910189226269722
1732873217142212600,10.795212646484375,0.4392121136188507,0.05864306539297104,0.07635815441608429
1732873217152243700,10.80524365234375,0.3738495409488678,-0.030543262138962746,0.004886921960860491
1732873217162201600,10.81520166015625,0.30970868468284607,-0.11545353382825851,-0.08979719132184982
1732873217172232700,10.825232666015625,0.2541199326515198,-0.17592918872833252,-0.18448130786418915
1732873217182220800,10.835220703125,0.18570303916931152,-0.18814650177955627,-0.28955012559890747
1732873217192252000,10.845251953125,0.1514945775270462,-0.14782938361167908,-0.33597588539123535
1732873217202210000,10.8552099609375,0.12400564551353455,-0.08307767659425735,-0.3597996234893799
1732873217212241000,10.865240966796875,0.09346238523721695,-0.015271631069481373,-0.35552358627319336
1732873217222229500,10.8752294921875,0.06658431142568588,0.029932396486401558,-0.323147714138031
1732873217232230700,10.885230712890625,0.03726277872920036,0.05192354694008827,-0.2687807083129883
1732873217242218800,10.89521875,0.00733038317412138,0.05619960278272629,-0.18448130786418915
1732873217252250000,10.90525,-0.03726277872920036,0.06475171446800232,-0.02382374368607998
1732873217262207700,10.915207763671875,-0.060475658625364304,0.06658431142568588,0.0861319974064827
1732873217272238800,10.92523876953125,-0.07880161702632904,0.05925392732024193,0.18448130786418915
1732873217282227200,10.935227294921875,-0.09224065393209457,0.054367005825042725,0.2626720666885376
1732873217292227300,10.945227294921875,-0.10445795953273773,0.05925392732024193,0.3139847218990326
1732873217302216200,10.95521630859375,-0.11667526513338089,0.05375614017248154,0.33047810196876526
1732873217312247000,10.9652470703125,-0.1368338167667389,0.02321287989616394,0.3121521472930908
1732873217322205200,10.975205078125,-0.15760323405265808,-0.012217304669320583,0.27977627515792847
1732873217332236300,10.985236328125,-0.18020524084568024,-0.01466076634824276,0.23640485107898712
1732873217342224600,10.995224609375,-0.18997909128665924,0.019547687843441963,0.21930062770843506
1732873217352225300,11.005225341796875,-0.2070833146572113,0.03298672288656235,0.2028072625398636
1732873217362213600,11.015213623046876,-0.24129177629947662,-0.0024434609804302454,0.15943582355976105
1732873217372245500,11.02524560546875,-0.29626965522766113,-0.039095375686883926,0.08368854224681854
1732873217382203000,11.035202880859375,-0.37079519033432007,-0.019547687843441963,-0.00733038317412138
1732873217392233700,11.045233642578125,-0.4386012554168701,0.03298672288656235,-0.08979719132184982
1732873217402222300,11.055222412109375,-0.47708576917648315,0.08979719132184982,-0.16982053220272064
1732873217412223500,11.065223388671875,-0.48808133602142334,0.03787364438176155,-0.21502456068992615
1732873217422211300,11.07521142578125,-0.4996877610683441,-0.05864306539297104,-0.2773328125476837
1732873217432243000,11.085242919921875,-0.5106833577156067,-0.14538592100143433,-0.33536502718925476
1732873217442230800,11.095230712890626,-0.5192354321479797,-0.1459967941045761,-0.3390302062034607
1732873217452232000,11.10523193359375,-0.503963828086853,-0.05253441259264946,-0.21991148591041565
1732873217462220000,11.115219970703125,-0.46792277693748474,0.09468411654233932,0.05009094998240471
1732873217472251600,11.125251708984376,-0.4086688458919525,0.2785545587539673,0.5809328556060791
1732873217482208800,11.135208740234376,-0.37140607833862305,0.3182607889175415,0.8918632864952087
1732873217492239000,11.145239013671874,-0.3396410644054413,0.3323107063770294,1.0934487581253052
1732873217502228500,11.155228515625,-0.32070425152778625,0.31581732630729675,1.149037480354309
1732873217512228400,11.165228271484375,-0.3286454975605011,0.25045475363731384,1.054964303970337
1732873217522217500,11.175217529296875,-0.35063666105270386,0.14782938361167908,0.8332201838493347
1732873217532247800,11.185247802734375,-0.38240164518356323,0.0555887371301651,0.5326744914054871
1732873217542206500,11.19520654296875,-0.42760565876960754,-0.006719517521560192,0.1966986060142517
1732873217552237600,11.205237548828125,-0.48319441080093384,-0.015882495790719986,-0.27061331272125244
1732873217562226200,11.21522607421875,-0.5088507533073425,0.00366519158706069,-0.475253164768219
1732873217572227000,11.22522705078125,-0.5326744914054871,0.025656340643763542,-0.5656611919403076
1732873217582215200,11.235215087890625,-0.5528330206871033,0.04153883829712868,-0.5528330206871033
1732873217592245800,11.245245849609375,-0.5534439086914062,0.05314527451992035,-0.4642575979232788
1732873217602203600,11.25520361328125,-0.5375614166259766,0.06963863968849182,-0.33047810196876526
1732873217612235000,11.265235107421875,-0.513737678527832,0.08735372871160507,-0.17959438264369965
1732873217622223000,11.27522314453125,-0.475253164768219,0.1007927656173706,-0.004886921960860491
1732873217632223500,11.285223388671875,-0.4538728892803192,0.1014036312699318,0.04337143152952194
1732873217642212000,11.295212158203125,-0.4337143301963806,0.08246681094169617,0.033597588539123535
1732873217652243200,11.3052431640625,-0.423329621553421,0.059864792972803116,-0.012217304669320583
1732873217662201000,11.315201171875,-0.42149701714515686,0.033597588539123535,-0.07941248267889023
1732873217672232200,11.325232177734375,-0.4239404797554016,0.01160643994808197,-0.15393804013729095
1732873217682220500,11.335220458984375,-0.4251621961593628,-0.0012217304902151227,-0.23335053026676178
1732873217692252400,11.34525244140625,-0.43615779280662537,0.01038470957428217,-0.3188716471195221
1732873217702210000,11.3552099609375,-0.43737950921058655,0.022602014243602753,-0.342695415019989
1732873217712241200,11.3652412109375,-0.42699480056762695,0.021991148591041565,-0.3488040566444397
1732873217722229800,11.375229736328125,-0.4147774875164032,0.01466076634824276,-0.3286454975605011
1732873217732230100,11.385230224609375,-0.39156460762023926,-0.012828170321881771,-0.2919935882091522
1732873217742218800,11.39521875,-0.36590829491615295,-0.0507018156349659,-0.24617868661880493
1732873217752250400,11.40525048828125,-0.33719760179519653,-0.08002334833145142,-0.1918116807937622
1732873217762207500,11.41520751953125,-0.3170390725135803,-0.09773843735456467,-0.11972958594560623
1732873217772239400,11.4252392578125,-0.29138273000717163,-0.10323622822761536,0.02076941914856434
1732873217782227200,11.435227294921875,-0.26633724570274353,-0.08491026610136032,0.12461651116609573
1732873217792227600,11.4452275390625,-0.23884831368923187,-0.04764748737215996,0.22907446324825287
1732873217802216200,11.45521630859375,-0.21991148591041565,-0.010995574295520782,0.3066543638706207
1732873217812247300,11.465247314453125,-0.21807889640331268,0.012217304669320583,0.32620203495025635
1732873217822205200,11.475205078125,-0.23579397797584534,0.03481931984424591,0.27550023794174194
1732873217832236300,11.485236328125,-0.27122417092323303,0.06169738993048668,0.16371189057826996
1732873217842224600,11.495224609375,-0.33719760179519653,0.06352998316287994,-0.0659734457731247
1732873217852225300,11.505225341796875,-0.36713001132011414,0.04459316283464432,-0.2070833146572113
1732873217862213600,11.515213623046876,-0.384845107793808,0.04459316283464432,-0.30115658044815063
1732873217872245500,11.52524560546875,-0.3793473243713379,0.054367005825042725,-0.34025195240974426
1732873217882203000,11.535202880859375,-0.3378084897994995,0.07330382615327835,-0.3243694305419922
1732873217892233700,11.545233642578125,-0.2736676335334778,0.10873401165008545,-0.26145032048225403
1732873217902222300,11.555222412109375,-0.19303341209888458,0.1661553531885147,-0.18814650177955627
1732873217912222700,11.56522265625,-0.09285151958465576,0.24984388053417206,-0.1667662113904953
1732873217922211300,11.57521142578125,-0.06352998316287994,0.22907446324825287,-0.26511552929878235
1732873217932242700,11.58524267578125,-0.09162978827953339,0.12767083942890167,-0.4489859640598297
1732873217942230800,11.595230712890626,-0.19120082259178162,-0.019547687843441963,-0.655458390712738
1732873217952231700,11.605231689453126,-0.32681289315223694,-0.15454891324043274,-0.7953465580940247
1732873217962220000,11.615219970703125,-0.4147774875164032,-0.21807889640331268,-0.7617489695549011
1732873217972251400,11.62525146484375,-0.4190535545349121,-0.18081611394882202,-0.4538728892803192
1732873217982209000,11.635208984375,-0.33597588539123535,-0.09957103431224823,0.09773843735456467
1732873217992240600,11.64524072265625,-0.1062905490398407,0.01466076634824276,1.1282681226730347
1732873218002228200,11.655228271484376,0.08857546001672745,0.11728613078594208,1.7702875137329102
1732873218012229000,11.66522900390625,0.2638937830924988,0.22052235901355743,2.2290472984313965
1732873218022217500,11.675217529296875,0.35735616087913513,0.304210901260376,2.4330763816833496
1732873218032250400,11.68525048828125,0.3579670190811157,0.3579670190811157,2.3493876457214355
1732873218042206500,11.69520654296875,0.2987131178379059,0.38667771220207214,1.9993619918823242
1732873218052237000,11.705237060546875,0.18081611394882202,0.3781255781650543,1.436144232749939
1732873218062226200,11.71522607421875,-0.04398229718208313,0.2125810980796814,0.32070425152778625
1732873218072226000,11.72522607421875,-0.2174680233001709,0.04092797264456749,-0.4795292317867279
1732873218082215000,11.73521484375,-0.36651915311813354,-0.11850785464048386,-1.1771373748779297
1732873218092246500,11.74524658203125,-0.46242499351501465,-0.25534167885780334,-1.683544635772705
1732873218102204000,11.755203857421876,-0.5100724697113037,-0.37568211555480957,-1.9523253440856934
1732873218112235300,11.7652353515625,-0.5082398653030396,-0.4337143301963806,-1.9724838733673096
1732873218122223600,11.7752236328125,-0.46303585171699524,-0.403781920671463,-1.7690657377243042
1732873218132224500,11.785224609375,-0.3481931984424591,-0.24007004499435425,-1.149037480354309
1732873218142212600,11.795212646484375,-0.2638937830924988,-0.09285151958465576,-0.6261368989944458
1732873218152244000,11.805243896484376,-0.18997909128665924,0.027488935738801956,-0.14294247329235077
1732873218162201600,11.81520166015625,-0.1472185254096985,0.09773843735456467,0.2064724564552307
1732873218172233000,11.82523291015625,-0.14782938361167908,0.11301007121801376,0.3793473243713379
1732873218182220800,11.835220703125,-0.18936823308467865,0.08368854224681854,0.40256020426750183
1732873218192252000,11.845251953125,-0.26511552929878235,0.02932153269648552,0.3243694305419922
1732873218202210000,11.8552099609375,-0.35735616087913513,-0.048258353024721146,0.2070833146572113
1732873218212241200,11.8652412109375,-0.4807509481906891,-0.17776179313659668,0.05803219974040985
1732873218222229500,11.8752294921875,-0.5485569834709167,-0.24068090319633484,-0.00427605677396059
1732873218232230100,11.885230224609375,-0.6102544069290161,-0.26083946228027344,-0.042760565876960754
1732873218242218800,11.89521875,-0.6688974499702454,-0.26083946228027344,-0.08918632566928864
1732873218252249900,11.905249755859375,-0.7287622094154358,-0.2583959996700287,-0.16432274878025055
1732873218262207500,11.91520751953125,-0.7904596328735352,-0.25961771607398987,-0.2535090744495392
1732873218272238800,11.92523876953125,-0.8503243923187256,-0.25534167885780334,-0.33475416898727417
1732873218282227000,11.93522705078125,-0.9321803450584412,-0.22602014243602753,-0.3897320330142975
1732873218292228400,11.945228271484375,-0.9724974632263184,-0.1771509200334549,-0.3634648323059082
1732873218302216200,11.95521630859375,-0.9963212013244629,-0.11178833991289139,-0.27977627515792847
1732873218312741600,11.96574169921875,-1.0115928649902344,-0.04214970022439957,-0.15271630883216858
1732873218322699000,11.975698974609376,-1.0238101482391357,0.012217304669320583,-0.009162978269159794
1732873218332731000,11.98573095703125,-1.045190453529358,0.04581489413976669,0.11362093687057495
1732873218342718500,11.995718505859376,-1.0757336616516113,0.04581489413976669,0.17776179313659668
1732873218352719600,12.0057197265625,-1.1227703094482422,-0.051312681287527084,0.1563815027475357
1732873218362707500,12.01570751953125,-1.1582005023956299,-0.1411098688840866,0.09957103431224823
1732873218372739300,12.0257392578125,-1.1924089193344116,-0.21380282938480377,0.04642575979232788
1732873218382696400,12.035696533203126,-1.225395679473877,-0.24617868661880493,0.031154127791523933
1732873218392728300,12.045728271484375,-1.2516628503799438,-0.25595253705978394,0.07024950534105301
1732873218402716200,12.055716064453126,-1.2626584768295288,-0.26022860407829285,0.1472185254096985
1732873218412717000,12.065717041015626,-1.2669345140457153,-0.27122417092323303,0.24495697021484375
1732873218422705200,12.075705078125,-1.2846496105194092,-0.2718350291252136,0.33597588539123535
1732873218432736800,12.08573681640625,-1.3347405195236206,-0.22479841113090515,0.4294382631778717
1732873218442724900,12.095724853515625,-1.4001030921936035,-0.15943582355976105,0.44837507605552673
1732873218452725800,12.105725830078125,-1.4953981637954712,-0.07391469180583954,0.42271876335144043
1732873218462713600,12.115713623046876,-1.6187928915023804,0.042760565876960754,0.3341432809829712
1732873218472744700,12.12574462890625,-1.662164330482483,0.14966198801994324,0.19547687470912933
1732873218482702600,12.13570263671875,-1.6743816137313843,0.21380282938480377,0.04214970022439957
1732873218492734000,12.14573388671875,-1.6560556888580322,0.20891591906547546,-0.13011430203914642
1732873218502722300,12.155722412109375,-1.5913039445877075,-0.051312681287527084,-0.5174028873443604
1732873218512722200,12.16572216796875,-1.63467538356781,-0.2028072625398636,-0.8588765263557434
1732873218522711300,12.175711181640626,-1.740355134010315,-0.22968533635139465,-1.1582005023956299
1732873218532743000,12.185742919921875,-1.872912883758545,-0.2168571650981903,-1.3200798034667969
1732873218542700500,12.195700439453125,-1.93766450881958,-0.2174680233001709,-1.2376129627227783
1732873218552732000,12.20573193359375,-1.9394971132278442,-0.22907446324825287,-0.8649851679801941
1732873218562719700,12.2157197265625,-1.9028452634811401,-0.2620611786842346,-0.2938261926174164
1732873218572721200,12.22572119140625,-1.7623462677001953,-0.3243694305419922,0.6157521605491638
1732873218582708700,12.235708740234376,-1.6481144428253174,-0.27061331272125244,1.1001683473587036
1732873218592738300,12.24573828125,-1.5717562437057495,-0.08979719132184982,1.398881435394287
1732873218602697500,12.255697509765625,-1.5271631479263306,0.12095131725072861,1.480737328529358
1732873218612732200,12.265732177734375,-1.5289957523345947,0.26145032048225403,1.3469579219818115
1732873218622717000,12.275717041015625,-1.5845844745635986,0.3017674386501312,1.004873275756836
1732873218632721200,12.28572119140625,-1.6823228597640991,0.24678955972194672,0.5112941861152649
1732873218642705700,12.29570556640625,-1.822821855545044,0.1258382350206375,-0.06230825558304787
1732873218652736500,12.305736572265625,-2.084882974624634,-0.022602014243602753,-0.8869763612747192
1732873218662695000,12.31569482421875,-2.2382102012634277,-0.05497787147760391,-1.2754865884780884
1732873218672726800,12.325726806640626,-2.326174736022949,-0.06719517707824707,-1.4624114036560059
1732873218682741200,12.3357412109375,-2.3328943252563477,-0.05192354694008827,-1.4440854787826538
1732873218692746800,12.345746826171874,-2.2626447677612305,-0.01038470957428217,-1.2321151494979858
1732873218702703900,12.355703857421876,-2.1343631744384766,0.025656340643763542,-0.8717046976089478
1732873218712735500,12.365735595703125,-1.9663752317428589,0.03848451003432274,-0.4355469346046448
1732873218722723300,12.375723388671876,-1.6939293146133423,0.02687807008624077,0.18509216606616974
1732873218732724500,12.385724365234376,-1.5528194904327393,0.006719517521560192,0.46670106053352356
1732873218742712300,12.39571240234375,-1.463022232055664,-0.01466076634824276,0.6053674817085266
1732873218752744200,12.405744140625,-1.4227051734924316,-0.0403171069920063,0.6157521605491638
1732873218762701300,12.415701416015626,-1.425148606300354,-0.05375614017248154,0.5485569834709167
1732873218772732400,12.425732421875,-1.453248381614685,-0.04886921867728233,0.4440990388393402
1732873218782721000,12.435720947265626,-1.493565559387207,-0.02932153269648552,0.3335324227809906
