time,seconds_elapsed,z,y,x
1732873206542267100,0.19526708984375,-0.056810468435287476,-0.05375614017248154,-0.009162978269159794
1732873206552412000,0.205411865234375,-0.04703662544488907,-0.05619960278272629,0.021380282938480377
1732873206562399500,0.2153994140625,-0.04214970022439957,-0.05497787147760391,0.05253441259264946
1732873206572400600,0.225400634765625,-0.03787364438176155,-0.04886921867728233,0.08307767659425735
1732873206582388700,0.235388671875,-0.03298672288656235,-0.04092797264456749,0.10934487730264664
1732873206592418300,0.245418212890625,-0.02932153269648552,-0.04337143152952194,0.1270599663257599
1732873206602376400,0.25537646484375,-0.02871066704392433,-0.06230825558304787,0.13927727937698364
1732873206612408300,0.265408203125,-0.036651913076639175,-0.0757472887635231,0.13072516024112701
1732873206622396200,0.275396240234375,-0.039095375686883926,-0.07330382615327835,0.09773843735456467
1732873206632396300,0.285396240234375,-0.03848451003432274,-0.0659734457731247,0.06536258012056351
1732873206642385200,0.29538525390625,-0.03848451003432274,-0.05864306539297104,0.042760565876960754
1732873206652416800,0.305416748046875,-0.0403171069920063,-0.05925392732024193,0.03420845419168472
1732873206662374400,0.31537451171875,-0.042760565876960754,-0.0659734457731247,0.03481931984424591
1732873206672405800,0.32540576171875,-0.045204028487205505,-0.06902777403593063,0.036651913076639175
1732873206682422300,0.33542236328125,-0.045204028487205505,-0.06230825558304787,0.04337143152952194
1732873206692426000,0.345426025390625,-0.04459316283464432,-0.0555887371301651,0.05375614017248154
1732873206702383600,0.355383544921875,-0.03298672288656235,-0.04703662544488907,0.06230825558304787
1732873206712415000,0.3654150390625,-0.018936822190880775,-0.0354301854968071,0.07330382615327835
1732873206722403000,0.375403076171875,-0.012217304669320583,-0.03237585723400116,0.08185594528913498
1732873206732404200,0.385404296875,-0.018936822190880775,-0.03481931984424591,0.08307767659425735
1732873206742392000,0.39539208984375,-0.027488935738801956,-0.0403171069920063,0.07391469180583954
1732873206752424000,0.405423828125,-0.03848451003432274,-0.04337143152952194,0.059864792972803116
1732873206762381000,0.415381103515625,-0.05619960278272629,-0.04153883829712868,0.045204028487205505
1732873206772412200,0.425412109375,-0.060475658625364304,-0.036041051149368286,0.04703662544488907
1732873206782400800,0.43540087890625,-0.06108652427792549,-0.03420845419168472,0.04642575979232788
1732873206792401200,0.445401123046875,-0.06536258012056351,-0.03848451003432274,0.03787364438176155
1732873206802389800,0.4553896484375,-0.06658431142568588,-0.0403171069920063,0.01771509274840355
1732873206812421400,0.46542138671875,-0.06169738993048668,-0.02932153269648552,0
1732873206822378800,0.475378662109375,-0.05619960278272629,-0.01771509274840355,-0.009773843921720982
1732873206832410400,0.485410400390625,-0.04337143152952194,0.0012217304902151227,-0.00733038317412138
1732873206842398200,0.495398193359375,-0.03726277872920036,0,0.007941247895359993
1732873206852399400,0.5053994140625,-0.03420845419168472,-0.01160643994808197,0.030543262138962746
1732873206862387200,0.51538720703125,-0.03237585723400116,-0.018325956538319588,0.054367005825042725
1732873206872419000,0.525419189453125,-0.031154127791523933,-0.02321287989616394,0.07391469180583954
1732873206882376200,0.535376220703125,-0.028099801391363144,-0.022602014243602753,0.08307767659425735
1732873206892407800,0.54540771484375,-0.027488935738801956,-0.02076941914856434,0.0806342139840126
1732873206902396000,0.55539599609375,-0.03420845419168472,-0.013439035043120384,0.06902777403593063
1732873206912396800,0.565396728515625,-0.036651913076639175,-0.02076941914856434,0.05803219974040985
1732873206922385000,0.575385009765625,-0.039706241339445114,-0.025656340643763542,0.04764748737215996
1732873206932416500,0.58541650390625,-0.04703662544488907,-0.028099801391363144,0.039095375686883926
1732873206942404000,0.595404052734375,-0.05009094998240471,-0.033597588539123535,0.03237585723400116
1732873206952405500,0.605405517578125,-0.051312681287527084,-0.0354301854968071,0.025045474991202354
1732873206962393300,0.615393310546875,-0.048258353024721146,-0.02382374368607998,0.021380282938480377
1732873206972425000,0.625425048828125,-0.04581489413976669,-0.012828170321881771,0.022602014243602753
1732873206982382300,0.63538232421875,-0.04153883829712868,-0.02076941914856434,0.03237585723400116
1732873206992414000,0.6454140625,-0.04581489413976669,-0.025045474991202354,0.03298672288656235
1732873207002402000,0.655402099609375,-0.04581489413976669,-0.027488935738801956,0.027488935738801956
1732873207012403000,0.66540283203125,-0.05314527451992035,-0.039095375686883926,0.018936822190880775
1732873207022390800,0.675390869140625,-0.06108652427792549,-0.04703662544488907,0.0024434609804302454
1732873207032422400,0.68542236328125,-0.06352998316287994,-0.04459316283464432,-0.015882495790719986
1732873207042379800,0.6953798828125,-0.06719517707824707,-0.048258353024721146,-0.02932153269648552
1732873207052411600,0.70541162109375,-0.06719517707824707,-0.05375614017248154,-0.031154127791523933
1732873207062399200,0.715399169921875,-0.059864792972803116,-0.05253441259264946,-0.02321287989616394
1732873207072400600,0.725400634765625,-0.05497787147760391,-0.05253441259264946,-0.01038470957428217
1732873207082388500,0.735388427734375,-0.054367005825042725,-0.05925392732024193,0.00427605677396059
1732873207092419800,0.745419921875,-0.05253441259264946,-0.06291911751031876,0.021380282938480377
1732873207102377500,0.75537744140625,-0.048258353024721146,-0.060475658625364304,0.04214970022439957
1732873207112409000,0.7654091796875,-0.04337143152952194,-0.05009094998240471,0.05619960278272629
1732873207122397000,0.77539697265625,-0.0403171069920063,-0.03787364438176155,0.06230825558304787
1732873207132398000,0.785398193359375,-0.04153883829712868,-0.04337143152952194,0.05253441259264946
1732873207142386000,0.795385986328125,-0.04642575979232788,-0.05192354694008827,0.039095375686883926
1732873207152417300,0.805417236328125,-0.05009094998240471,-0.05314527451992035,0.025045474991202354
1732873207162375000,0.815375,-0.05375614017248154,-0.04886921867728233,0.012828170321881771
1732873207172406500,0.825406494140625,-0.04764748737215996,-0.04459316283464432,0.009773843921720982
1732873207182394600,0.83539453125,-0.03848451003432274,-0.04642575979232788,0.01038470957428217
1732873207192426000,0.845426025390625,-0.031154127791523933,-0.04642575979232788,0.01160643994808197
1732873207202383600,0.855383544921875,-0.02871066704392433,-0.051312681287527084,0.006719517521560192
1732873207212415000,0.8654150390625,-0.027488935738801956,-0.048258353024721146,-0.0024434609804302454
1732873207222403300,0.8754033203125,-0.022602014243602753,-0.04642575979232788,-0.01466076634824276
1732873207232404200,0.885404296875,-0.022602014243602753,-0.04764748737215996,-0.025656340643763542
1732873207242392300,0.895392333984375,-0.029932396486401558,-0.054367005825042725,-0.025045474991202354
1732873207252423700,0.905423583984375,-0.031154127791523933,-0.06169738993048668,-0.014049900695681572
1732873207262381000,0.915381103515625,-0.029932396486401558,-0.05803219974040985,-0.0024434609804302454
1732873207272412400,0.925412353515625,-0.030543262138962746,-0.045204028487205505,0.009773843921720982
1732873207282400500,0.935400390625,-0.02321287989616394,-0.003054326167330146,0.02015855349600315
1732873207292585200,0.945585205078125,-0.016493361443281174,0.04337143152952194,0.022602014243602753
1732873207302389800,0.9553896484375,-0.009162978269159794,0.05742133408784866,0.02076941914856434
1732873207312421000,0.965421142578125,-0.0024434609804302454,0.0659734457731247,0.021991148591041565
1732873207322378500,0.97537841796875,0.006108652334660292,0.07269296050071716,0.03176499158143997
1732873207332410400,0.985410400390625,0.012217304669320583,0.04886921867728233,0.04398229718208313
1732873207342398200,0.995398193359375,0,0.01038470957428217,0.05925392732024193
1732873207352399000,1.005399169921875,-0.0006108652451075613,0.02382374368607998,0.07269296050071716
1732873207362387200,1.01538720703125,-0.001832595793530345,0.05192354694008827,0.08246681094169617
1732873207372418600,1.02541845703125,-0.015882495790719986,0.056810468435287476,0.08429940044879913
1732873207382376200,1.035376220703125,-0.039706241339445114,0.036041051149368286,0.07330382615327835
1732873207392407000,1.045406982421875,-0.06780604273080826,0.004886921960860491,0.04337143152952194
1732873207402396000,1.05539599609375,-0.09529497474431992,-0.018325956538319588,0.003054326167330146
1732873207412396300,1.065396240234375,-0.13011430203914642,-0.024434609338641167,-0.031154127791523933
1732873207422385000,1.075385009765625,-0.18814650177955627,-0.018936822190880775,-0.06780604273080826
1732873207432415200,1.085415283203125,-0.24495697021484375,-0.03298672288656235,-0.08552113175392151
1732873207442404400,1.095404296875,-0.304210901260376,-0.06352998316287994,-0.09651670604944229
1732873207452404200,1.105404296875,-0.36102136969566345,-0.08491026610136032,-0.09529497474431992
1732873207462393300,1.115393310546875,-0.4202753007411957,-0.09407325088977814,-0.08491026610136032
1732873207472424000,1.125423828125,-0.4862487316131592,-0.09346238523721695,-0.06108652427792549
1732873207482382300,1.13538232421875,-0.5455026626586914,-0.0757472887635231,-0.029932396486401558
1732873207492413000,1.145412841796875,-0.6352998614311218,-0.04581489413976669,0.018936822190880775
1732873207502402000,1.155402099609375,-0.7031059265136719,-0.039706241339445114,0.03481931984424591
1732873207512402000,1.16540185546875,-0.7745771408081055,-0.0555887371301651,0.04153883829712868
1732873207522391000,1.17539111328125,-0.846659243106842,-0.09346238523721695,0.048258353024721146
1732873207532421600,1.185421630859375,-0.9101892113685608,-0.1466076523065567,0.05803219974040985
1732873207542380000,1.195380126953125,-0.969443142414093,-0.2028072625398636,0.06780604273080826
1732873207552410600,1.20541064453125,-1.0219775438308716,-0.2541199326515198,0.07941248267889023
1732873207562399500,1.2153994140625,-1.0977247953414917,-0.3341432809829712,0.0910189226269722
1732873207572399900,1.22539990234375,-1.1496484279632568,-0.37568211555480957,0.08979719132184982
1732873207582388500,1.235388427734375,-1.2015719413757324,-0.3854559659957886,0.0861319974064827
1732873207592417300,1.245417236328125,-1.2583824396133423,-0.36102136969566345,0.08918632566928864
1732873207602376400,1.25537646484375,-1.3200798034667969,-0.34208452701568604,0.0959058403968811
1732873207612407000,1.265406982421875,-1.3829989433288574,-0.34086281061172485,0.09773843735456467
1732873207622396200,1.275396240234375,-1.4489723443984985,-0.3384193480014801,0.08979719132184982
1732873207632396300,1.285396240234375,-1.510058879852295,-0.32681289315223694,0.06719517707824707
1732873207642385200,1.29538525390625,-1.598023533821106,-0.3292563557624817,0.005497787147760391
1732873207652415500,1.30541552734375,-1.653001308441162,-0.34025195240974426,-0.05009094998240471
1732873207662374400,1.31537451171875,-1.7006487846374512,-0.33108896017074585,-0.1007927656173706
1732873207672406000,1.325406005859375,-1.7373007535934448,-0.31581732630729675,-0.13072516024112701
1732873207682393900,1.335393798828125,-1.7629570960998535,-0.30115658044815063,-0.13377949595451355
1732873207692426200,1.34542626953125,-1.7702875137329102,-0.27000242471694946,-0.10201449692249298
1732873207702383600,1.355383544921875,-1.768454909324646,-0.2278527319431305,-0.042760565876960754
1732873207712415200,1.365415283203125,-1.7696765661239624,-0.16859880089759827,0.06169738993048668
1732873207722403000,1.375403076171875,-1.7800613641738892,-0.13744467496871948,0.10262536257505417
1732873207732404500,1.385404541015625,-1.8026633262634277,-0.1160643994808197,0.10567969083786011
1732873207742392000,1.39539208984375,-1.8270978927612305,-0.10323622822761536,0.08552113175392151
1732873207752424000,1.405423828125,-1.8564194440841675,-0.09285151958465576,0.04886921867728233
1732873207762381000,1.415381103515625,-1.8942930698394775,-0.10934487730264664,-0.007941247895359993
1732873207772413000,1.425412841796875,-1.9352210760116577,-0.14294247329235077,-0.07208210229873657
1732873207782400800,1.43540087890625,-1.9688186645507812,-0.14966198801994324,-0.1368338167667389
1732873207792401700,1.445401611328125,-2.001805305480957,-0.13805554807186127,-0.13072516024112701
1732873207802389800,1.4553896484375,-2.012190103530884,-0.14233160018920898,-0.08368854224681854
1732873207812421400,1.46542138671875,-2.012800931930542,-0.14905111491680145,-0.01038470957428217
1732873207822378800,1.475378662109375,-1.9999728202819824,-0.14905111491680145,0.06719517707824707
1732873207832410600,1.48541064453125,-1.9743164777755737,-0.1661553531885147,0.12950342893600464
1732873207842398000,1.49539794921875,-1.945605754852295,-0.20952677726745605,0.17043140530586243
1732873207852399600,1.505399658203125,-1.9266690015792847,-0.2669481039047241,0.1814269721508026
1732873207862387200,1.51538720703125,-1.9065104722976685,-0.4086688458919525,0.16065755486488342
1732873207872419000,1.525419189453125,-1.8949040174484253,-0.5009095072746277,0.15271630883216858
1732873207882376200,1.535376220703125,-1.8784105777740479,-0.5809328556060791,0.16249015927314758
1732873207892408000,1.545407958984375,-1.8582520484924316,-0.6493497490882874,0.19058994948863983
1732873207902395600,1.555395751953125,-1.833817481994629,-0.7098253965377808,0.22968533635139465
1732873207912395500,1.5653955078125,-1.8081611394882202,-0.7354817390441895,0.26572638750076294
1732873207922385000,1.575385009765625,-1.7861700057983398,-0.7305948138237,0.29077184200286865
1732873207932416500,1.58541650390625,-1.7892242670059204,-0.6963863968849182,0.2981022298336029
1732873207942404400,1.595404296875,-1.807550311088562,-0.6774495840072632,0.2938261926174164
1732873207952405500,1.605405517578125,-1.8289304971694946,-0.6688974499702454,0.28588494658470154
1732873207962393300,1.615393310546875,-1.8539760112762451,-0.6505714654922485,0.2840523421764374
1732873207972425000,1.625425048828125,-1.8796323537826538,-0.6255260109901428,0.27122417092323303
1732873207982382300,1.63538232421875,-1.9052886962890625,-0.6023131608963013,0.23457226157188416
1732873207992414000,1.6454140625,-1.9297232627868652,-0.5540547966957092,0.1716531366109848
1732873208002402000,1.655402099609375,-1.9529361724853516,-0.48808133602142334,0.09040805697441101
1732873208012403000,1.66540283203125,-1.9871445894241333,-0.4092797040939331,-0.04214970022439957
1732873208022390800,1.675390869140625,-1.9969184398651123,-0.36651915311813354,-0.1160643994808197
1732873208032422700,1.685422607421875,-2.004248857498169,-0.33597588539123535,-0.16920967400074005
1732873208042379800,1.6953798828125,-2.012800931930542,-0.33047810196876526,-0.2028072625398636
1732873208052411600,1.70541162109375,-2.0195205211639404,-0.34208452701568604,-0.22357667982578278
1732873208062399500,1.7153994140625,-2.0250182151794434,-0.3494149148464203,-0.22968533635139465
1732873208072400600,1.725400634765625,-2.031737804412842,-0.35674530267715454,-0.2272418737411499
1732873208082388500,1.735388427734375,-2.0256290435791016,-0.32986724376678467,-0.20402899384498596
1732873208092420000,1.745420166015625,-2.0091357231140137,-0.3188716471195221,-0.17837265133857727
1732873208102377500,1.75537744140625,-1.984701156616211,-0.31031954288482666,-0.12950342893600464
1732873208112409000,1.7654091796875,-1.958433985710144,-0.2938261926174164,-0.06475171446800232
1732873208122397200,1.775397216796875,-1.9346102476119995,-0.2828305959701538,0.003054326167330146
1732873208132398300,1.7853984375,-1.9101755619049072,-0.2669481039047241,0.06475171446800232
1732873208142386200,1.79538623046875,-1.8857409954071045,-0.24190263450145721,0.11789698898792267
1732873208152416300,1.805416259765625,-1.8539760112762451,-0.2174680233001709,0.15454891324043274
1732873208162375000,1.815375,-1.835650086402893,-0.20463985204696655,0.1417207419872284
1732873208172405200,1.8254052734375,-1.817324161529541,-0.19975294172763824,0.09834930300712585
1732873208182394600,1.83539453125,-1.8008307218551636,-0.20586158335208893,0.03298672288656235
1732873208192425000,1.845425048828125,-1.7837265729904175,-0.21319197118282318,-0.051312681287527084
1732873208202383600,1.855383544921875,-1.7733417749404907,-0.22113321721553802,-0.14233160018920898
1732873208212414000,1.8654140625,-1.7690657377243042,-0.2321287989616394,-0.22418753802776337
1732873208222403300,1.8754033203125,-1.7702875137329102,-0.24007004499435425,-0.30115658044815063
1732873208232404200,1.885404296875,-1.7745635509490967,-0.21502456068992615,-0.3878994286060333
1732873208242392000,1.89539208984375,-1.7702875137329102,-0.17776179313659668,-0.3988949954509735
1732873208252424000,1.905423828125,-1.7513506412506104,-0.13011430203914642,-0.3634648323059082
1732873208262381000,1.915381103515625,-1.7067575454711914,-0.08124507963657379,-0.29504790902137756
1732873208272411400,1.925411376953125,-1.6462818384170532,-0.036651913076639175,-0.21624629199504852
1732873208282400500,1.935400390625,-1.578475832939148,-0.007941247895359993,-0.15271630883216858
1732873208292400400,1.945400390625,-1.5094480514526367,-0.0012217304902151227,-0.11667526513338089
1732873208302389800,1.9553896484375,-1.4159855842590332,-0.03726277872920036,-0.09529497474431992
1732873208312420000,1.965420166015625,-1.3744467496871948,-0.0861319974064827,-0.0806342139840126
1732873208322378500,1.97537841796875,-1.338405728340149,-0.1514945775270462,-0.06414084881544113
1732873208332408800,1.985408935546875,-1.3096951246261597,-0.22663100063800812,-0.036651913076639175
1732873208342398200,1.995398193359375,-1.2852604389190674,-0.3017674386501312,-0.010995574295520782
1732873208352399600,2.005399658203125,-1.2626584768295288,-0.35735616087913513,0.005497787147760391
1732873208362387200,2.01538720703125,-1.2400563955307007,-0.37751471996307373,0.018936822190880775
1732873208372418800,2.025418701171875,-1.1936306953430176,-0.35735616087913513,0.031154127791523933
1732873208382376200,2.035376220703125,-1.1441506147384644,-0.313373863697052,0.03726277872920036
1732873208392407800,2.04540771484375,-1.0873401165008545,-0.2474004179239273,0.0507018156349659
1732873208402396000,2.05539599609375,-1.0225883722305298,-0.17531833052635193,0.07208210229873657
1732873208412396800,2.065396728515625,-0.9529497623443604,-0.11423180252313614,0.09162978827953339
1732873208422385000,2.075385009765625,-0.8906415104866028,-0.06841690838336945,0.09529497474431992
1732873208432416500,2.08541650390625,-0.8338310718536377,-0.04398229718208313,0.08979719132184982
1732873208442404400,2.095404296875,-0.7770205736160278,-0.031154127791523933,0.07757988572120667
1732873208452404200,2.105404296875,-0.6860016584396362,-0.02015855349600315,0.08368854224681854
1732873208462393300,2.115393310546875,-0.6163630485534668,-0.02321287989616394,0.1111774742603302
1732873208472424000,2.125423828125,-0.5412266254425049,-0.04092797264456749,0.14294247329235077
1732873208482382300,2.13538232421875,-0.4703662395477295,-0.08918632566928864,0.16737708449363708
1732873208492413200,2.1454130859375,-0.39584067463874817,-0.16737708449363708,0.17470745742321014
1732873208502402000,2.155402099609375,-0.3176499307155609,-0.2474004179239273,0.1563815027475357
1732873208512402000,2.16540185546875,-0.2535090744495392,-0.30054569244384766,0.09040805697441101
1732873208522391000,2.17539111328125,-0.16065755486488342,-0.33169981837272644,-0.07391469180583954
1732873208532421400,2.18542138671875,-0.1007927656173706,-0.30604347586631775,-0.1771509200334549
1732873208542380000,2.195380126953125,-0.039706241339445114,-0.2223549485206604,-0.23884831368923187
1732873208552411000,2.205410888671875,0.010995574295520782,-0.10812314599752426,-0.26450464129447937
1732873208562399500,2.2153994140625,0.05253441259264946,0.02076941914856434,-0.24495697021484375
1732873208572400000,2.225400146484375,0.08796459436416626,0.11850785464048386,-0.1918116807937622
1732873208582388700,2.235388671875,0.12339477986097336,0.1569923609495163,-0.10812314599752426
1732873208592417800,2.245417724609375,0.15821409225463867,0.10445795953273773,0.05314527451992035
1732873208602376400,2.25537646484375,0.1563815027475357,0.06108652427792549,0.13439035415649414
1732873208612407600,2.265407470703125,0.1466076523065567,0.06719517707824707,0.17104226350784302
1732873208622396200,2.275396240234375,0.1313360333442688,0.08002334833145142,0.16737708449363708
1732873208632397000,2.28539697265625,0.12095131725072861,0.08552113175392151,0.16249015927314758
1732873208642385200,2.29538525390625,0.12278391420841217,0.09529497474431992,0.1771509200334549
1732873208652416500,2.30541650390625,0.13377949595451355,0.11178833991289139,0.2076941877603531
1732873208662374100,2.3153740234375,0.1459967941045761,0.11239920556545258,0.2376265823841095
1732873208672405000,2.325405029296875,0.13500121235847473,0.0659734457731247,0.25106561183929443
1732873208682422000,2.335422119140625,0.10995574295520782,0.024434609338641167,0.23273965716362
1732873208692425500,2.345425537109375,0.06963863968849182,-0.012828170321881771,0.18936823308467865
1732873208702383600,2.355383544921875,0.016493361443281174,-0.05375614017248154,0.1319468915462494
1732873208712414000,2.3654140625,-0.04214970022439957,-0.09651670604944229,0.07269296050071716
1732873208722403000,2.375403076171875,-0.09285151958465576,-0.12522737681865692,0.016493361443281174
1732873208732403000,2.38540283203125,-0.12950342893600464,-0.1368338167667389,-0.03787364438176155
1732873208742392000,2.39539208984375,-0.16432274878025055,-0.09712757170200348,-0.11239920556545258
1732873208752422700,2.405422607421875,-0.17898350954055786,-0.03726277872920036,-0.13805554807186127
1732873208762381000,2.415381103515625,-0.19120082259178162,0.03787364438176155,-0.13927727937698364
1732873208772411600,2.42541162109375,-0.2076941877603531,0.1111774742603302,-0.12217304855585098
1732873208782400800,2.43540087890625,-0.22113321721553802,0.16310101747512817,-0.09773843735456467
1732873208792401400,2.4454013671875,-0.23273965716362,0.16371189057826996,-0.07452555745840073
1732873208802389800,2.4553896484375,-0.24434609711170197,0.10751228034496307,-0.07513642311096191
1732873208812420900,2.4654208984375,-0.2932153046131134,-0.0555887371301651,-0.15821409225463867
1732873208822378800,2.475378662109375,-0.3335324227809906,-0.17837265133857727,-0.28588494658470154
1732873208832409000,2.4854091796875,-0.38117989897727966,-0.26083946228027344,-0.44776421785354614
1732873208842398200,2.495398193359375,-0.45142942667007446,-0.2834414839744568,-0.607200026512146
1732873208852398600,2.505398681640625,-0.43249258399009705,-0.27550023794174194,-0.7238753437995911
1732873208862387200,2.51538720703125,-0.4153883755207062,-0.23579397797584534,-0.7586946487426758
1732873208872418300,2.525418212890625,-0.4648684561252594,-0.25961771607398987,-0.7269296646118164
1732873208882376200,2.535376220703125,-0.494189977645874,-0.23335053026676178,-0.6096435189247131
1732873208892407300,2.5454072265625,-0.3988949954509735,0.018936822190880775,-0.24862214922904968
1732873208902396000,2.55539599609375,-0.31581732630729675,0.16065755486488342,0.036651913076639175
1732873208912396500,2.565396484375,-0.26145032048225403,0.24007004499435425,0.294437050819397
1732873208922384600,2.575384521484375,-0.21563543379306793,0.30054569244384766,0.48319441080093384
1732873208932415500,2.58541552734375,-0.16004669666290283,0.3274237811565399,0.5943718552589417
1732873208942404400,2.595404296875,-0.11423180252313614,0.3121521472930908,0.656680166721344
1732873208952404700,2.60540478515625,-0.11056660860776901,0.2590068578720093,0.6713408827781677
1732873208962393300,2.615393310546875,-0.17776179313659668,0.13439035415649414,0.5998696684837341
1732873208972424200,2.625424072265625,-0.24495697021484375,0.03420845419168472,0.50335294008255
1732873208982382300,2.63538232421875,-0.30054569244384766,-0.05314527451992035,0.40072759985923767
1732873208992412700,2.64541259765625,-0.32009339332580566,-0.07147123664617538,0.3280346393585205
1732873209002401800,2.65540185546875,-0.3182607889175415,-0.0006108652451075613,0.2987131178379059
1732873209012401700,2.665401611328125,-0.3072652220726013,0.12034045159816742,0.30543261766433716
1732873209022390800,2.675390869140625,-0.29138273000717163,0.20036379992961884,0.3029891550540924
1732873209032421000,2.685421142578125,-0.25045475363731384,0.1362229436635971,0.2028072625398636
1732873209042380000,2.695380126953125,-0.23884831368923187,-0.009162978269159794,0.05497787147760391
1732873209052411000,2.705410888671875,-0.27000242471694946,-0.19792033731937408,-0.1417207419872284
1732873209062399500,2.7153994140625,-0.34147366881370544,-0.36163222789764404,-0.3341432809829712
1732873209072400600,2.725400634765625,-0.40133845806121826,-0.43799036741256714,-0.44837507605552673
1732873209082388500,2.735388427734375,-0.3927863538265228,-0.4129449129104614,-0.4105014503002167
1732873209092418600,2.74541845703125,-0.29077184200286865,-0.33719760179519653,-0.1869247704744339
1732873209102377500,2.75537744140625,-0.10567969083786011,-0.25473082065582275,0.17287486791610718
1732873209112407800,2.76540771484375,0.23884831368923187,-0.09407325088977814,0.7751879692077637
1732873209122397200,2.775397216796875,0.42760565876960754,0.04642575979232788,1.1007791757583618
1732873209132396800,2.785396728515625,0.5455026626586914,0.1973094791173935,1.264491081237793
1732873209142386000,2.795385986328125,0.5919284224510193,0.3481931984424591,1.2333369255065918
1732873209152416800,2.805416748046875,0.5644394755363464,0.4447098970413208,1.0427470207214355
1732873209162375000,2.815375,0.4715879559516907,0.46303585171699524,0.7556403279304504
1732873209172406000,2.825406005859375,0.3481931984424591,0.42760565876960754,0.42088615894317627
1732873209182394600,2.83539453125,0.18814650177955627,0.2687807083129883,-0.059864792972803116
1732873209192424700,2.8454248046875,0.12767083942890167,0.11545353382825851,-0.313373863697052
1732873209202383600,2.855383544921875,0.11423180252313614,-0.0507018156349659,-0.4905247986316681
1732873209212415200,2.865415283203125,0.1362229436635971,-0.21624629199504852,-0.5766568183898926
1732873209222403300,2.8754033203125,0.1771509200334549,-0.34758231043815613,-0.5772676467895508
1732873209232404200,2.885404296875,0.2382374405860901,-0.43127086758613586,-0.5302310585975647
1732873209242392000,2.89539208984375,0.2926044464111328,-0.4709770977497101,-0.4715879559516907
1732873209252423000,2.9054228515625,0.3433062732219696,-0.44654250144958496,-0.3799581825733185
1732873209262381000,2.915381103515625,0.3549126982688904,-0.3628539443016052,-0.31520646810531616
1732873209272412000,2.925411865234375,0.34513887763023376,-0.25961771607398987,-0.26022860407829285
1732873209282400800,2.93540087890625,0.3194825351238251,-0.16920967400074005,-0.2217440903186798
1732873209292401400,2.9454013671875,0.28649580478668213,-0.10445795953273773,-0.2070833146572113
1732873209302389800,2.9553896484375,0.24923302233219147,-0.05619960278272629,-0.21319197118282318
1732873209312420900,2.9654208984375,0.21441370248794556,-0.025656340643763542,-0.22968533635139465
1732873209322378800,2.975378662109375,0.18387043476104736,-0.014049900695681572,-0.24373523890972137
1732873209332409600,2.98540966796875,0.15760323405265808,-0.0024434609804302454,-0.24068090319633484
1732873209342398000,2.99539794921875,0.15454891324043274,-0.021380282938480377,-0.22357667982578278
1732873209352398600,3.005398681640625,0.15882496535778046,-0.05742133408784866,-0.21135938167572021
1732873209362387200,3.01538720703125,0.16554448008537292,-0.06841690838336945,-0.21319197118282318
1732873209372418000,3.02541796875,0.17470745742321014,-0.04703662544488907,-0.22357667982578278
1732873209382376400,3.03537646484375,0.17592918872833252,-0.021380282938480377,-0.23273965716362
1732873209392407600,3.045407470703125,0.1771509200334549,0.001832595793530345,-0.23335053026676178
1732873209402396000,3.05539599609375,0.17592918872833252,0.009773843921720982,-0.1820378452539444
1732873209412396000,3.06539599609375,0.15821409225463867,-0.014049900695681572,-0.11972958594560623
1732873209422385000,3.075385009765625,0.13439035415649414,-0.0507018156349659,-0.05253441259264946
1732873209432416300,3.085416259765625,0.10384709388017654,-0.09285151958465576,-0.013439035043120384
1732873209442404400,3.095404296875,0.06780604273080826,-0.14966198801994324,-0.018325956538319588
1732873209452404700,3.10540478515625,0.02321287989616394,-0.19608774781227112,-0.07696902006864548
1732873209462393300,3.115393310546875,-0.01771509274840355,-0.22846360504627228,-0.16065755486488342
1732873209472424400,3.125424560546875,-0.07819075137376785,-0.26511552929878235,-0.22602014243602753
1732873209482382600,3.135382568359375,-0.09285151958465576,-0.3121521472930908,-0.3017674386501312
1732873209492413400,3.145413330078125,-0.11484266817569733,-0.2767219543457031,-0.375071257352829
1732873209502402000,3.155402099609375,-0.12828169763088226,-0.1362229436635971,-0.3793473243713379
1732873209512402400,3.16540234375,-0.07941248267889023,-0.021380282938480377,-0.3683517575263977
1732873209522391000,3.17539111328125,-0.05192354694008827,0.07635815441608429,-0.342695415019989
1732873209532422100,3.185422119140625,-0.01466076634824276,0.13866640627384186,-0.3280346393585205
1732873209542380000,3.195380126953125,0.018936822190880775,0.12278391420841217,-0.35124751925468445
1732873209552411600,3.20541162109375,-0.019547687843441963,-0.02932153269648552,-0.4508185386657715
1732873209562399500,3.2153994140625,-0.11850785464048386,-0.16432274878025055,-0.5277875661849976
1732873209572400600,3.225400634765625,-0.1814269721508026,-0.23640485107898712,-0.5766568183898926
1732873209582388700,3.235388671875,-0.17287486791610718,-0.20097467303276062,-0.5742133259773254
1732873209592418300,3.245418212890625,-0.13377949595451355,-0.10018189996480942,-0.5100724697113037
1732873209602376400,3.25537646484375,-0.10201449692249298,-0.02626720629632473,-0.41722095012664795
1732873209612408000,3.265407958984375,-0.08979719132184982,-0.00855211354792118,-0.2981022298336029
1732873209622396200,3.275396240234375,-0.10018189996480942,-0.08246681094169617,-0.09040805697441101
1732873209632397300,3.285397216796875,-0.1319468915462494,-0.21991148591041565,0.05192354694008827
1732873209642385200,3.29538525390625,-0.17409659922122955,-0.39645153284072876,0.18570303916931152
1732873209652416800,3.305416748046875,-0.19364428520202637,-0.5174028873443604,0.3066543638706207
1732873209662374100,3.3153740234375,-0.18936823308467865,-0.5351179838180542,0.42577308416366577
1732873209672405800,3.32540576171875,-0.17898350954055786,-0.4703662395477295,0.5705481171607971
1732873209682393600,3.3353935546875,-0.17409659922122955,-0.33047810196876526,0.7470881938934326
1732873209692426000,3.345426025390625,-0.23518311977386475,-0.13377949595451355,1.0115928649902344
1732873209702383600,3.355383544921875,-0.20891591906547546,-0.02321287989616394,1.2150110006332397
1732873209712415000,3.3654150390625,-0.2272418737411499,0.06841690838336945,1.4196507930755615
1732873209722403300,3.3754033203125,-0.3335324227809906,0.05864306539297104,1.5632041692733765
1732873209732403000,3.38540283203125,-0.49785518646240234,-0.05009094998240471,1.5974125862121582
1732873209742392300,3.395392333984375,-0.6688974499702454,-0.20830504596233368,1.4996742010116577
1732873209752422400,3.40542236328125,-0.8045095205307007,-0.34513887763023376,1.2754865884780884
1732873209762381000,3.415381103515625,-0.8582656979560852,-0.4202753007411957,0.9425650835037231
1732873209772411400,3.425411376953125,-0.7324274182319641,-0.35674530267715454,0.2779437005519867
1732873209782400500,3.435400390625,-0.5723807215690613,-0.2015855312347412,-0.19792033731937408
1732873209792400600,3.445400634765625,-0.44837507605552673,-0.005497787147760391,-0.5845980644226074
1732873209802389800,3.4553896484375,-0.44165557622909546,0.0806342139840126,-0.7782423496246338
1732873209812421000,3.465421142578125,-0.45204028487205505,0.06230825558304787,-0.8191702961921692
1732873209822378800,3.475378662109375,-0.4489859640598297,0.05803219974040985,-0.7745771408081055
1732873209832410400,3.485410400390625,-0.455705463886261,0.07452555745840073,-0.6902777552604675
1732873209842398200,3.495398193359375,-0.5925393104553223,0.20097467303276062,-0.5577199459075928
1732873209852399400,3.5053994140625,-0.6768386960029602,0.26572638750076294,-0.4807509481906891
1732873209862387200,3.51538720703125,-0.6780604124069214,0.2431243658065796,-0.39156460762023926
1732873209872417800,3.525417724609375,-0.5937610268592834,0.15760323405265808,-0.29138273000717163
1732873209882376200,3.535376220703125,-0.46670106053352356,0.02321287989616394,-0.18570303916931152
1732873209892406800,3.54540673828125,-0.32559117674827576,-0.06719517707824707,-0.09285151958465576
1732873209902396000,3.55539599609375,-0.22907446324825287,-0.02076941914856434,-0.015882495790719986
1732873209912396500,3.565396484375,-0.182648703455925,0.11362093687057495,0.06841690838336945
1732873209922384600,3.575384521484375,-0.16004669666290283,0.1362229436635971,0.11056660860776901
1732873209932416000,3.585416015625,-0.13866640627384186,0.11362093687057495,0.13255776464939117
1732873209942404000,3.595404052734375,-0.1319468915462494,0.08979719132184982,0.11667526513338089
1732873209952405000,3.605405029296875,-0.14782938361167908,0.07696902006864548,0.05375614017248154
1732873209962291000,3.615291015625,-0.18325957655906677,0.0806342139840126,-0.06658431142568588
1732873209972322000,3.625322021484375,-0.22663100063800812,0.09529497474431992,-0.21441370248794556
1732873209982280000,3.635280029296875,-0.2669481039047241,0.12522737681865692,-0.33597588539123535
1732873209992311600,3.6453115234375,-0.2840523421764374,0.1618792861700058,-0.3952298164367676
1732873210002299600,3.655299560546875,-0.2541199326515198,0.1765400618314743,-0.34208452701568604
1732873210012300300,3.66530029296875,-0.19914206862449646,0.19425514340400696,-0.22968533635139465
1732873210022288400,3.675288330078125,-0.1362229436635971,0.23579397797584534,-0.09040805697441101
1732873210032320000,3.685320068359375,-0.06414084881544113,0.29565876722335815,0.04214970022439957
1732873210042277400,3.69527734375,0.01160643994808197,0.34758231043815613,0.14905111491680145
1732873210052309000,3.70530908203125,0.07941248267889023,0.36713001132011414,0.23579397797584534
1732873210062297000,3.715297119140625,0.14294247329235077,0.33719760179519653,0.32559117674827576
1732873210072298200,3.72529833984375,0.15760323405265808,0.2926044464111328,0.3500257730484009
1732873210082286000,3.7352861328125,0.14538592100143433,0.21807889640331268,0.3549126982688904
1732873210092317700,3.745317626953125,0.11362093687057495,0.12217304855585098,0.33597588539123535
1732873210102275000,3.755275146484375,0.08918632566928864,0.012217304669320583,0.3066543638706207
1732873210112306700,3.765306640625,0.08552113175392151,-0.0910189226269722,0.2877175211906433
1732873210122294800,3.775294677734375,0.12034045159816742,-0.14844025671482086,0.30970868468284607
1732873210132295700,3.785295654296875,0.1966986060142517,-0.17470745742321014,0.4294382631778717
1732873210142283500,3.795283447265625,0.24495697021484375,-0.18387043476104736,0.5277875661849976
1732873210152314400,3.805314453125,0.2877175211906433,-0.17837265133857727,0.6163630485534668
1732873210162272500,3.8152724609375,0.32498031854629517,-0.17287486791610718,0.6713408827781677
1732873210172304000,3.825303955078125,0.3292563557624817,-0.19058994948863983,0.656069278717041
1732873210182292200,3.835292236328125,0.29138273000717163,-0.2577851414680481,0.5534439086914062
1732873210192323600,3.845323486328125,0.19547687470912933,-0.4105014503002167,0.3585779070854187
1732873210202281200,3.85528125,0.04337143152952194,-0.6188064813613892,0.12461651116609573
1732873210212312600,3.8653125,-0.11301007121801376,-0.8356636762619019,-0.13316862285137177
1732873210222301000,3.875301025390625,-0.15271630883216858,-0.808174729347229,-0.12278391420841217
1732873210232300300,3.88530029296875,-0.12461651116609573,-0.6102544069290161,0.07635815441608429
1732873210242289700,3.89528955078125,-0.018325956538319588,-0.29993483424186707,0.40622538328170776
1732873210252320000,3.905320068359375,0.15332718193531036,0.04398229718208313,0.7825183868408203
1732873210262279000,3.91527880859375,0.3677408695220947,0.2993239760398865,1.10139000415802
1732873210272309200,3.925309326171875,0.5687155723571777,0.40683624148368835,1.281595230102539
1732873210282298000,3.935298095703125,0.7031059265136719,0.41599923372268677,1.1924089193344116
1732873210292300300,3.94530029296875,0.6426302194595337,0.31520646810531616,0.8631525635719299
1732873210302287400,3.955287353515625,0.4966334402561188,0.15027284622192383,0.3677408695220947
1732873210312317700,3.965317626953125,0.304210901260376,-0.006719517521560192,-0.19792033731937408
1732873210322276000,3.975276123046875,0.11362093687057495,-0.13377949595451355,-0.7141014933586121
1732873210332307700,3.9853076171875,-0.0354301854968071,-0.20952677726745605,-1.0769554376602173
1732873210342295800,3.9952958984375,-0.12400564551353455,-0.26511552929878235,-1.2229522466659546
1732873210352296700,4.005296630859375,-0.1062905490398407,-0.29993483424186707,-1.10139000415802
1732873210362284800,4.015284912109375,-0.006719517521560192,-0.2565633952617645,-0.8717046976089478
1732873210372316400,4.02531640625,0.13255776464939117,-0.1820378452539444,-0.5797111392021179
1732873210382273800,4.035273681640625,0.2785545587539673,-0.11484266817569733,-0.2736676335334778
1732873210392305400,4.045305419921875,0.40133845806121826,-0.06291911751031876,-0.015271631069481373
1732873210402293500,4.05529345703125,0.4709770977497101,-0.04153883829712868,0.14233160018920898
1732873210412294000,4.0652939453125,0.4893030524253845,-0.04214970022439957,0.18448130786418915
1732873210422282500,4.075282470703125,0.46670106053352356,-0.060475658625364304,0.14905111491680145
1732873210432313600,4.085313720703125,0.37568211555480957,-0.15332718193531036,0.03420845419168472
1732873210442302000,4.095302001953125,0.29626965522766113,-0.2376265823841095,-0.045204028487205505
1732873210452302600,4.105302490234375,0.22968533635139465,-0.28466320037841797,-0.10384709388017654
1732873210462291000,4.115291015625,0.1869247704744339,-0.2919935882091522,-0.13011430203914642
1732873210472322000,4.125322021484375,0.14966198801994324,-0.29504790902137756,-0.14233160018920898
1732873210482280000,4.135280029296875,0.12339477986097336,-0.2840523421764374,-0.15882496535778046
1732873210492311000,4.14531103515625,0.1062905490398407,-0.25106561183929443,-0.17531833052635193
1732873210502299600,4.155299560546875,0.07635815441608429,-0.19547687470912933,-0.2015855312347412
1732873210512300300,4.16530029296875,0.05742133408784866,-0.15821409225463867,-0.20463985204696655
1732873210522289000,4.175288818359375,0.03298672288656235,-0.1313360333442688,-0.18570303916931152
1732873210532319500,4.185319580078125,0.00366519158706069,-0.1111774742603302,-0.1368338167667389
1732873210542277600,4.195277587890625,-0.02076941914856434,-0.1007927656173706,-0.06169738993048668
1732873210552309200,4.205309326171875,-0.03237585723400116,-0.09529497474431992,0.04581489413976669
1732873210562297000,4.215297119140625,-0.02932153269648552,-0.08674286305904388,0.1722639948129654
1732873210572298200,4.22529833984375,-0.02626720629632473,-0.07635815441608429,0.35246923565864563
1732873210582286000,4.2352861328125,-0.04153883829712868,-0.07024950534105301,0.43127086758613586
1732873210592315100,4.245315185546875,-0.07330382615327835,-0.059864792972803116,0.45753806829452515
1732873210602274000,4.255274169921875,-0.10751228034496307,-0.04092797264456749,0.4349360466003418
1732873210612305200,4.26530517578125,-0.13866640627384186,-0.00427605677396059,0.3897320330142975
1732873210622293800,4.275293701171875,-0.152105450630188,0.036651913076639175,0.33475416898727417
1732873210632294100,4.285294189453125,-0.152105450630188,0.04398229718208313,0.2669481039047241
1732873210642282800,4.29528271484375,-0.16065755486488342,0.00366519158706069,0.15027284622192383
1732873210652314400,4.305314453125,-0.27488934993743896,-0.0403171069920063,-0.1459967941045761
1732873210662272000,4.31527197265625,-0.4043927788734436,-0.001832595793530345,-0.38117989897727966
1732873210672303600,4.3253037109375,-0.5314527750015259,0.019547687843441963,-0.5992587804794312
1732873210682319600,4.335319580078125,-0.6224716901779175,-0.013439035043120384,-0.7452555894851685
1732873210692323600,4.345323486328125,-0.6701191663742065,-0.09285151958465576,-0.7751879692077637
1732873210702281200,4.35528125,-0.6841690540313721,-0.18387043476104736,-0.6994407176971436
1732873210712312600,4.3653125,-0.6475171446800232,-0.23884831368923187,-0.5296201705932617
1732873210722300700,4.37530078125,-0.5051855444908142,-0.12278391420841217,-0.051312681287527084
1732873210732301800,4.3853017578125,-0.3591887652873993,0.04092797264456749,0.38728857040405273
1732873210742289700,4.39528955078125,-0.21991148591041565,0.18448130786418915,0.8326093554496765
1732873210752321300,4.4053212890625,-0.13561208546161652,0.24556782841682434,1.1661417484283447
1732873210762278700,4.415278564453125,-0.10567969083786011,0.22663100063800812,1.3426817655563354
1732873210772309000,4.42530908203125,-0.1319468915462494,0.1466076523065567,1.3720033168792725
1732873210782298400,4.43529833984375,-0.1918116807937622,0.03481931984424591,1.2589932680130005
1732873210792298000,4.445298095703125,-0.3072652220726013,-0.1264491081237793,0.8509352803230286
1732873210802287400,4.455287353515625,-0.38667771220207214,-0.21013765037059784,0.48319441080093384
1732873210812317400,4.4653173828125,-0.44776421785354614,-0.2370157092809677,0.10506882518529892
1732873210822276000,4.475276123046875,-0.4917465150356293,-0.21563543379306793,-0.2168571650981903
1732873210832307500,4.485307373046875,-0.5149593949317932,-0.2021963894367218,-0.44654250144958496
1732873210842295800,4.4952958984375,-0.513126790523529,-0.1814269721508026,-0.5845980644226074
1732873210852296700,4.505296630859375,-0.49357911944389343,-0.14233160018920898,-0.6407976150512695
1732873210862284800,4.515284912109375,-0.46731191873550415,-0.09712757170200348,-0.6328563690185547
1732873210872316700,4.525316650390625,-0.42760565876960754,-0.04214970022439957,-0.5418374538421631
1732873210882273800,4.535273681640625,-0.40133845806121826,-0.010995574295520782,-0.4447098970413208
1732873210892305400,4.545305419921875,-0.37629300355911255,0.02076941914856434,-0.32986724376678467
1732873210902293500,4.55529345703125,-0.35063666105270386,0.051312681287527084,-0.21380282938480377
1732873210912294400,4.56529443359375,-0.3274237811565399,0.07635815441608429,-0.10445795953273773
1732873210922282200,4.5752822265625,-0.3078760802745819,0.07757988572120667,-0.006719517521560192
1732873210932313600,4.585313720703125,-0.28588494658470154,0.0507018156349659,0.06169738993048668
1732873210942302000,4.595302001953125,-0.25534167885780334,0.006108652334660292,0.09285151958465576
1732873210952302800,4.605302734375,-0.2376265823841095,-0.02015855349600315,0.06902777403593063
1732873210962291000,4.615291015625,-0.22296582162380219,-0.03481931984424591,0.014049900695681572
1732873210972322000,4.625322021484375,-0.2064724564552307,-0.059864792972803116,-0.060475658625364304
1732873210982280000,4.635280029296875,-0.1869247704744339,-0.0910189226269722,-0.1417207419872284
1732873210992311000,4.64531103515625,-0.16310101747512817,-0.09285151958465576,-0.21074850857257843
1732873211002299600,4.655299560546875,-0.13561208546161652,-0.07024950534105301,-0.25045475363731384
1732873211012299800,4.6652998046875,-0.09834930300712585,-0.054367005825042725,-0.26022860407829285
1732873211022288600,4.67528857421875,-0.07635815441608429,-0.0555887371301651,-0.2480112910270691
1732873211032319200,4.6853193359375,-0.06719517707824707,-0.07757988572120667,-0.23396138846874237
1732873211042277600,4.695277587890625,-0.06841690838336945,-0.11484266817569733,-0.2119702398777008
1732873211052308200,4.70530810546875,-0.06475171446800232,-0.16859880089759827,-0.17776179313659668
1732873211062297000,4.715297119140625,-0.05925392732024193,-0.21074850857257843,-0.12400564551353455
1732873211072297500,4.72529736328125,-0.04153883829712868,-0.19120082259178162,-0.048258353024721146
1732873211082286000,4.7352861328125,-0.01771509274840355,-0.12828169763088226,0.03787364438176155
1732873211092317000,4.74531689453125,0.03176499158143997,-0.030543262138962746,0.13561208546161652
1732873211102275000,4.755275146484375,0.04398229718208313,-0.004886921960860491,0.152105450630188
1732873211112306200,4.76530615234375,0.027488935738801956,0,0.11667526513338089
1732873211122294800,4.775294677734375,-0.012828170321881771,-0.022602014243602753,0.03420845419168472
1732873211132294700,4.785294677734375,-0.060475658625364304,-0.06230825558304787,-0.06475171446800232
1732873211142283500,4.795283447265625,-0.10995574295520782,-0.12034045159816742,-0.16065755486488342
1732873211152315000,4.80531494140625,-0.14294247329235077,-0.19120082259178162,-0.2321287989616394
1732873211162272500,4.8152724609375,-0.13744467496871948,-0.2632829248905182,-0.23396138846874237
1732873211172304000,4.825303955078125,-0.10445795953273773,-0.2681698501110077,-0.1569923609495163
1732873211182292200,4.835292236328125,-0.04642575979232788,-0.2382374405860901,-0.056810468435287476
1732873211192323600,4.845323486328125,0.036651913076639175,-0.15271630883216858,0.05619960278272629
1732873211202281200,4.85528125,0.11789698898792267,-0.07880161702632904,0.16859880089759827
1732873211212312800,4.865312744140625,0.17837265133857727,-0.059864792972803116,0.2571742534637451
1732873211222300700,4.87530078125,0.2015855312347412,-0.08979719132184982,0.27977627515792847
1732873211232301600,4.885301513671875,0.15943582355976105,-0.18875735998153687,0.15271630883216858
1732873211242290000,4.8952900390625,0.11911872029304504,-0.2070833146572113,0.0354301854968071
1732873211252321300,4.9053212890625,0.10751228034496307,-0.11911872029304504,-0.003054326167330146
1732873211262278700,4.915278564453125,0.15027284622192383,0.022602014243602753,0.09346238523721695
1732873211272310500,4.925310546875,0.23945917189121246,0.13988813757896423,0.27611109614372253
1732873211282298400,4.93529833984375,0.3292563557624817,0.2125810980796814,0.45631635189056396
1732873211292299300,4.94529931640625,0.394008070230484,0.22663100063800812,0.5644394755363464
1732873211302287400,4.955287353515625,0.41111230850219727,0.1814269721508026,0.5644394755363464
1732873211312318200,4.965318115234375,0.3286454975605011,0.08002334833145142,0.3836233615875244
1732873211322276400,4.9752763671875,0.23090706765651703,0.004886921960860491,0.1973094791173935
1732873211332307700,4.9853076171875,0.13988813757896423,-0.05742133408784866,0.02015855349600315
1732873211342295800,4.9952958984375,0.08307767659425735,-0.08857546001672745,-0.09162978827953339
1732873211352296700,5.005296630859375,0.07208210229873657,-0.09896016865968704,-0.12217304855585098
1732873211362284800,5.015284912109375,0.08979719132184982,-0.09468411654233932,-0.06963863968849182
1732873211372316200,5.025316162109375,0.12950342893600464,-0.08552113175392151,0.030543262138962746
1732873211382274000,5.035274169921875,0.2015855312347412,-0.06108652427792549,0.1765400618314743
1732873211392305000,5.045304931640625,0.23518311977386475,-0.0403171069920063,0.24007004499435425
1732873211402293500,5.05529345703125,0.2528982162475586,-0.03726277872920036,0.27000242471694946
1732873211412294000,5.0652939453125,0.25595253705978394,-0.04581489413976669,0.2742784917354584
1732873211422282500,5.075282470703125,0.23640485107898712,-0.05864306539297104,0.25961771607398987
1732873211432313300,5.085313232421875,0.20525072515010834,-0.07147123664617538,0.22418753802776337
1732873211442302000,5.095302001953125,0.17043140530586243,-0.09224065393209457,0.16920967400074005
1732873211452302600,5.105302490234375,0.12522737681865692,-0.11362093687057495,0.07513642311096191
1732873211462291000,5.115291015625,0.09896016865968704,-0.11178833991289139,0.01038470957428217
1732873211472322000,5.125322021484375,0.07147123664617538,-0.10323622822761536,-0.051312681287527084
1732873211482280000,5.135280029296875,0.04398229718208313,-0.11301007121801376,-0.10751228034496307
1732873211492311000,5.14531103515625,0.021991148591041565,-0.11972958594560623,-0.15577064454555511
1732873211502299600,5.155299560546875,0.009162978269159794,-0.12522737681865692,-0.18325957655906677
1732873211512300000,5.165300048828125,0.0024434609804302454,-0.1264491081237793,-0.1875356286764145
1732873211522288600,5.17528857421875,0.0006108652451075613,-0.1258382350206375,-0.16920967400074005
1732873211532319200,5.1853193359375,0.006719517521560192,-0.14355333149433136,-0.11301007121801376
1732873211542277600,5.195277587890625,0.003054326167330146,-0.16371189057826996,-0.07147123664617538
1732873211552309200,5.205309326171875,-0.012828170321881771,-0.17104226350784302,-0.036041051149368286
1732873211562297000,5.215297119140625,-0.04459316283464432,-0.17409659922122955,0.0006108652451075613
1732873211572297500,5.22529736328125,-0.07880161702632904,-0.18325957655906677,0.04459316283464432
1732873211582286300,5.235286376953125,-0.11545353382825851,-0.20952677726745605,0.07696902006864548
1732873211592315400,5.2453154296875,-0.15760323405265808,-0.2535090744495392,0.05925392732024193
1732873211602274000,5.255274169921875,-0.21502456068992615,-0.33658674359321594,-0.060475658625364304
1732873211612305200,5.26530517578125,-0.23640485107898712,-0.3927863538265228,-0.1618792861700058
1732873211622293800,5.275293701171875,-0.24129177629947662,-0.4508185386657715,-0.27000242471694946
1732873211632294100,5.285294189453125,-0.2223549485206604,-0.47769662737846375,-0.34147366881370544
1732873211642282800,5.29528271484375,-0.2028072625398636,-0.4715879559516907,-0.35185837745666504
1732873211652313900,5.30531396484375,-0.17409659922122955,-0.4306600093841553,-0.3182607889175415
1732873211662271700,5.315271728515625,-0.14355333149433136,-0.4153883755207062,-0.2638937830924988
1732873211672303400,5.325303466796875,-0.16798794269561768,-0.375071257352829,-0.19975294172763824
1732873211682291500,5.33529150390625,-0.22846360504627228,-0.31520646810531616,-0.1966986060142517
1732873211692323600,5.345323486328125,-0.2773328125476837,-0.24068090319633484,-0.2168571650981903
1732873211702281200,5.35528125,-0.2926044464111328,-0.1869247704744339,-0.22602014243602753
1732873211712312800,5.365312744140625,-0.28527405858039856,-0.20830504596233368,-0.20830504596233368
1732873211722301000,5.375301025390625,-0.2626720666885376,-0.3078760802745819,-0.1569923609495163
1732873211732301800,5.3853017578125,-0.23457226157188416,-0.37262779474258423,-0.06414084881544113
1732873211742289700,5.39528955078125,-0.19853121042251587,-0.31154128909111023,0.10690141469240189
1732873211752321500,5.405321533203125,-0.12889257073402405,0.02932153269648552,0.5852088928222656
1732873211762278700,5.415278564453125,-0.09529497474431992,0.3237585723400116,0.960280179977417
1732873211772310000,5.42531005859375,-0.05314527451992035,0.5992587804794312,1.2870930433273315
1732873211782298400,5.43529833984375,-0.006719517521560192,0.7721336483955383,1.492343783378601
1732873211792298000,5.445298095703125,0.014049900695681572,0.8381071090698242,1.5473216772079468
1732873211802287400,5.455287353515625,-0.00855211354792118,0.8002334833145142,1.4220943450927734
1732873211812317400,5.4653173828125,-0.060475658625364304,0.618195652961731,1.1087204217910767
1732873211822276400,5.4752763671875,-0.2217440903186798,0.14294247329235077,0.37262779474258423
1732873211832306400,5.485306396484375,-0.3396410644054413,-0.14294247329235077,-0.17043140530586243
1732873211842295600,5.495295654296875,-0.4294382631778717,-0.303600013256073,-0.6126978397369385
1732873211852297000,5.505296875,-0.47769662737846375,-0.34636059403419495,-0.8680394887924194
1732873211862284800,5.515284912109375,-0.4740314185619354,-0.2889392673969269,-0.9272934198379517
1732873211872316200,5.525316162109375,-0.43127086758613586,-0.1508837193250656,-0.8319984674453735
1732873211882273800,5.535273681640625,-0.36713001132011414,0.024434609338641167,-0.6340781450271606
1732873211892305200,5.54530517578125,-0.30054569244384766,0.29138273000717163,-0.3084869384765625
1732873211902293200,5.555293212890625,-0.252287358045578,0.4141666293144226,-0.1618792861700058
1732873211912294400,5.56529443359375,-0.251676470041275,0.4612032473087311,-0.10262536257505417
1732873211922282200,5.5752822265625,-0.2791654169559479,0.4404338300228119,-0.11911872029304504
1732873211932313300,5.585313232421875,-0.3335324227809906,0.3744603991508484,-0.18631389737129211
1732873211942301700,5.5953017578125,-0.39217549562454224,0.28466320037841797,-0.2816088795661926
1732873211952302600,5.605302490234375,-0.4343251883983612,0.16554448008537292,-0.38606682419776917
1732873211962291000,5.615291015625,-0.45814892649650574,0.04886921867728233,-0.47280970215797424
1732873211972321800,5.62532177734375,-0.44593164324760437,-0.02932153269648552,-0.5375614166259766
1732873211982280000,5.635280029296875,-0.4098905920982361,-0.056810468435287476,-0.5485569834709167
1732873211992311000,5.64531103515625,-0.3628539443016052,-0.06108652427792549,-0.5503895878791809
1732873212002299600,5.655299560546875,-0.313373863697052,-0.05375614017248154,-0.5424483418464661
1732873212012299800,5.6652998046875,-0.27061331272125244,-0.04153883829712868,-0.5283984541893005
1732873212022288600,5.67528857421875,-0.22846360504627228,-0.02687807008624077,-0.49846604466438293
1732873212032320000,5.685320068359375,-0.1875356286764145,-0.018325956538319588,-0.4495968222618103
1732873212042277400,5.69527734375,-0.13072516024112701,-0.025045474991202354,-0.33169981837272644
1732873212052309200,5.705309326171875,-0.09468411654233932,-0.05497787147760391,-0.22907446324825287
1732873212062297000,5.715297119140625,-0.06169738993048668,-0.1007927656173706,-0.12034045159816742
1732873212072298000,5.725298095703125,-0.029932396486401558,-0.12767083942890167,-0.01160643994808197
1732873212082286000,5.7352861328125,0.005497787147760391,-0.10812314599752426,0.09040805697441101
1732873212092317000,5.74531689453125,0.05009094998240471,-0.05009094998240471,0.18020524084568024
1732873212102275000,5.755275146484375,0.10201449692249298,0.01710422709584236,0.2583959996700287
1732873212112306200,5.76530615234375,0.1514945775270462,0.0555887371301651,0.2981022298336029
1732873212122294800,5.775294677734375,0.1820378452539444,0.07635815441608429,0.23335053026676178
1732873212132295000,5.785294921875,0.16310101747512817,0.06536258012056351,0.1111774742603302
1732873212142283500,5.795283447265625,0.11362093687057495,0.03481931984424591,-0.05314527451992035
1732873212152315400,5.8053154296875,0.04642575979232788,-0.025656340643763542,-0.24373523890972137
1732873212162272500,5.8152724609375,-0.025045474991202354,-0.11239920556545258,-0.4251621961593628
1732873212172304100,5.82530419921875,-0.08307767659425735,-0.19486601650714874,-0.5705481171607971
1732873212182292200,5.835292236328125,-0.11484266817569733,-0.2583959996700287,-0.6572909951210022
1732873212192323600,5.845323486328125,-0.09773843735456467,-0.23151792585849762,-0.6243042945861816
1732873212202281200,5.85528125,-0.04948008432984352,-0.1264491081237793,-0.48685958981513977
1732873212212312600,5.8653125,0.04948008432984352,0.048258353024721146,-0.2370157092809677
1732873212222301000,5.875301025390625,0.17837265133857727,0.2571742534637451,0.0757472887635231
1732873212232301600,5.885301513671875,0.2718350291252136,0.394618958234787,0.3530801236629486
1732873212242289700,5.89528955078125,0.3084869384765625,0.38117989897727966,0.49846604466438293
1732873212252321300,5.9053212890625,0.2767219543457031,0.26083946228027344,0.4691445231437683
1732873212262278700,5.915278564453125,0.12522737681865692,0.09162978827953339,0.21319197118282318
1732873212272310300,5.925310302734375,0.018325956538319588,0.03420845419168472,0.05619960278272629
1732873212282298400,5.93529833984375,-0.012217304669320583,0.0403171069920063,0.07269296050071716
1732873212292298000,5.945298095703125,0.06536258012056351,0.12950342893600464,0.31093040108680725
1732873212302287400,5.955287353515625,0.22418753802776337,0.2926044464111328,0.7171558141708374
1732873212312317400,5.9653173828125,0.4184426963329315,0.44165557622909546,1.1649199724197388
1732873212322276400,5.9752763671875,0.617584764957428,0.5393940210342407,1.5534303188323975
1732873212332306700,5.985306640625,0.769690215587616,0.5650503635406494,1.793500304222107
1732873212342295800,5.9952958984375,0.8142833709716797,0.44837507605552673,1.7702875137329102
1732873212352295700,6.005295654296875,0.7183775305747986,0.28099802136421204,1.4966198205947876
1732873212362284800,6.015284912109375,0.5491678714752197,0.07391469180583954,1.06351637840271
1732873212372315100,6.025315185546875,0.3591887652873993,-0.1313360333442688,0.5644394755363464
1732873212382273800,6.035273681640625,0.17531833052635193,-0.2742784917354584,0.08368854224681854
1732873212392304400,6.045304443359375,0.04092797264456749,-0.3689626157283783,-0.30970868468284607
1732873212402293500,6.05529345703125,-0.025656340643763542,-0.44165557622909546,-0.5503895878791809
1732873212412292900,6.06529296875,-0.02076941914856434,-0.4899139404296875,-0.6444628238677979
1732873212422282500,6.075282470703125,0.03176499158143997,-0.4599815309047699,-0.5876523852348328
1732873212432314000,6.085314208984375,0.10445795953273773,-0.4050036668777466,-0.4862487316131592
1732873212442302000,6.095302001953125,0.18020524084568024,-0.32986724376678467,-0.3732386529445648
1732873212452303000,6.10530322265625,0.2474004179239273,-0.252287358045578,-0.2730567753314972
1732873212462291000,6.115291015625,0.29077184200286865,-0.20097467303276062,-0.21135938167572021
1732873212472322600,6.125322509765625,0.3078760802745819,-0.1875356286764145,-0.19303341209888458
1732873212482280000,6.135280029296875,0.29565876722335815,-0.2064724564552307,-0.2431243658065796
1732873212492311000,6.14531103515625,0.27061331272125244,-0.22418753802776337,-0.304210901260376
1732873212502299600,6.155299560546875,0.24190263450145721,-0.24129177629947662,-0.3781255781650543
1732873212512300300,6.16530029296875,0.20525072515010834,-0.26145032048225403,-0.4489859640598297
1732873212522289000,6.175288818359375,0.17470745742321014,-0.28649580478668213,-0.513126790523529
1732873212532319500,6.185319580078125,0.1459967941045761,-0.3084869384765625,-0.5638286471366882
1732873212542277600,6.195277587890625,0.12278391420841217,-0.31642818450927734,-0.6010913848876953
1732873212552308500,6.20530859375,0.10018189996480942,-0.3194825351238251,-0.6279694437980652
1732873212562297000,6.215297119140625,0.05803219974040985,-0.29993483424186707,-0.6627888083457947
1732873212572297500,6.22529736328125,0.025045474991202354,-0.2724458873271942,-0.6768386960029602
1732873212582286000,6.2352861328125,-0.00855211354792118,-0.2480112910270691,-0.6774495840072632
1732873212592316000,6.24531591796875,-0.04092797264456749,-0.2272418737411499,-0.6603453159332275
1732873212602274300,6.2552744140625,-0.07452555745840073,-0.18814650177955627,-0.6126978397369385
1732873212612305700,6.2653056640625,-0.10201449692249298,-0.1417207419872284,-0.5326744914054871
1732873212622293800,6.275293701171875,-0.11972958594560623,-0.0959058403968811,-0.4184426963329315
1732873212632294700,6.285294677734375,-0.13744467496871948,-0.07208210229873657,-0.2021963894367218
1732873212642282800,6.29528271484375,-0.152105450630188,-0.08246681094169617,-0.051312681287527084
1732873212652314400,6.305314453125,-0.16310101747512817,-0.09773843735456467,0.08918632566928864
1732873212662271700,6.315271728515625,-0.16065755486488342,-0.10690141469240189,0.2125810980796814
1732873212672303400,6.325303466796875,-0.13927727937698364,-0.09346238523721695,0.323147714138031
1732873212682320000,6.33531982421875,-0.10201449692249298,-0.04214970022439957,0.4202753007411957
1732873212692323600,6.345323486328125,-0.0555887371301651,0.029932396486401558,0.4996877610683441
1732873212702281200,6.35528125,0.013439035043120384,0.07757988572120667,0.5595525503158569
1732873212712312600,6.3653125,0.015271631069481373,0.059864792972803116,0.5424483418464661
1732873212722300700,6.37530078125,-0.015271631069481373,0.06841690838336945,0.47708576917648315
1732873212732301800,6.3853017578125,-0.06352998316287994,0.10995574295520782,0.3952298164367676
1732873212742289700,6.39528955078125,-0.10873401165008545,0.1508837193250656,0.33108896017074585
1732873212752321300,6.4053212890625,-0.152105450630188,0.10812314599752426,0.26633724570274353
1732873212762278700,6.415278564453125,-0.18570303916931152,-0.0006108652451075613,0.15027284622192383
1732873212772310300,6.425310302734375,-0.2168571650981903,-0.12400564551353455,0.009162978269159794
1732873212782298400,6.43529833984375,-0.23090706765651703,-0.20036379992961884,-0.08491026610136032
1732873212792299300,6.44529931640625,-0.21135938167572021,-0.10445795953273773,0.01160643994808197
1732873212802287400,6.455287353515625,-0.1716531366109848,0.06902777403593063,0.25961771607398987
1732873212812318700,6.465318603515625,-0.11484266817569733,0.25595253705978394,0.6236934065818787
1732873212822276000,6.475276123046875,-0.054367005825042725,0.40072759985923767,1.014647126197815
1732873212832308000,6.485307861328125,0.00366519158706069,0.47342056035995483,1.3439035415649414
1732873212842295800,6.4952958984375,0.04703662544488907,0.4960225820541382,1.5436564683914185
1732873212852295700,6.505295654296875,0.06291911751031876,0.4544837474822998,1.5467108488082886
1732873212862285000,6.51528515625,0.025045474991202354,0.3842342495918274,1.3555099964141846
1732873212872315000,6.52531494140625,-0.04764748737215996,0.27061331272125244,1.0427470207214355
1732873212882273800,6.535273681640625,-0.13866640627384186,0.14782938361167908,0.6597344875335693
1732873212892304100,6.54530419921875,-0.23579397797584534,0.04337143152952194,0.2669481039047241
1732873212902293500,6.55529345703125,-0.32620203495025635,-0.051312681287527084,-0.08552113175392151
1732873212912294100,6.565294189453125,-0.3891211748123169,-0.1313360333442688,-0.3481931984424591
1732873212922282500,6.575282470703125,-0.45875978469848633,-0.1716531366109848,-0.5119050741195679
1732873212932313000,6.58531298828125,-0.4954117238521576,-0.1612684279680252,-0.49785518646240234
1732873212942302000,6.595302001953125,-0.513737678527832,-0.14416420459747314,-0.4239404797554016
1732873212952302300,6.60530224609375,-0.5186246037483215,-0.11789698898792267,-0.32498031854629517
1732873212962291000,6.615291015625,-0.5204572081565857,-0.07452555745840073,-0.2272418737411499
1732873212972322000,6.625322021484375,-0.5241223573684692,-0.014049900695681572,-0.16065755486488342
1732873212982280000,6.635280029296875,-0.5290092825889587,0.03298672288656235,-0.14233160018920898
1732873212992311000,6.64531103515625,-0.5400048494338989,0.06352998316287994,-0.1667662113904953
1732873213002299600,6.655299560546875,-0.5528330206871033,0.06841690838336945,-0.2626720666885376
1732873213012300000,6.665300048828125,-0.5613851547241211,0.03848451003432274,-0.33475416898727417
1732873213022288600,6.67528857421875,-0.5650503635406494,0.0012217304902151227,-0.3933972120285034
1732873213032319500,6.685319580078125,-0.5650503635406494,-0.04214970022439957,-0.4288274049758911
1732873213042277600,6.695277587890625,-0.5448917746543884,-0.06780604273080826,-0.43676865100860596
1732873213052308500,6.70530859375,-0.513737678527832,-0.07635815441608429,-0.41661009192466736
1732873213062297000,6.715297119140625,-0.46670106053352356,-0.07147123664617538,-0.3597996234893799
1732873213072297500,6.72529736328125,-0.3805690407752991,-0.05375614017248154,-0.21013765037059784
1732873213082286000,6.7352861328125,-0.323147714138031,-0.07330382615327835,-0.09162978827953339
1732873213092317000,6.74531689453125,-0.26939156651496887,-0.1111774742603302,0.02076941914856434
1732873213102275000,6.755275146484375,-0.22479841113090515,-0.15332718193531036,0.11667526513338089
1732873213112306200,6.76530615234375,-0.18325957655906677,-0.18325957655906677,0.19914206862449646
1732873213122294800,6.775294677734375,-0.1459967941045761,-0.17776179313659668,0.2724458873271942
1732873213132295000,6.785294921875,-0.09957103431224823,-0.1362229436635971,0.3500257730484009
1732873213142283500,6.795283447265625,-0.03298672288656235,-0.03848451003432274,0.4697553813457489
1732873213152314400,6.805314453125,-0.022602014243602753,0.0006108652451075613,0.50335294008255
1732873213162272500,6.8152724609375,-0.04337143152952194,0.01710422709584236,0.45265114307403564
1732873213172303600,6.8253037109375,-0.08674286305904388,0.03726277872920036,0.32498031854629517
1732873213182292200,6.835292236328125,-0.1362229436635971,0.06902777403593063,0.16554448008537292
1732873213192323000,6.845322998046875,-0.19975294172763824,0.10506882518529892,0
1732873213202281200,6.85528125,-0.25534167885780334,0.11056660860776901,-0.1618792861700058
1732873213212312300,6.865312255859375,-0.29077184200286865,0.07941248267889023,-0.3084869384765625
1732873213222300700,6.87530078125,-0.31093040108680725,0.03787364438176155,-0.4544837474822998
1732873213232301800,6.8853017578125,-0.2919935882091522,0.06169738993048668,-0.47219884395599365
1732873213242289700,6.89528955078125,-0.24068090319633484,0.15515977144241333,-0.42638394236564636
1732873213252320500,6.905320556640625,-0.16859880089759827,0.2871066629886627,-0.33169981837272644
1732873213262278700,6.915278564453125,-0.08796459436416626,0.3738495409488678,-0.2370157092809677
1732873213272310300,6.925310302734375,-0.03726277872920036,0.3897320330142975,-0.2076941877603531
1732873213282298400,6.93529833984375,-0.04948008432984352,0.2987131178379059,-0.2932153046131134
1732873213292299000,6.945299072265625,-0.20402899384498596,-0.001832595793530345,-0.6053674817085266
1732873213302287400,6.955287353515625,-0.3597996234893799,-0.1869247704744339,-0.8185594081878662
1732873213312318700,6.965318603515625,-0.4648684561252594,-0.29993483424186707,-0.8662069439888
1732873213322276000,6.975276123046875,-0.4960225820541382,-0.3090978264808655,-0.6108652353286743
1732873213332307700,6.9853076171875,-0.4434881806373596,-0.19547687470912933,-0.09407325088977814
1732873213342295800,6.9952958984375,-0.2828305959701538,-0.030543262138962746,0.5827654600143433
1732873213352296700,7.005296630859375,-0.05375614017248154,0.152105450630188,1.2974777221679688
1732873213362284800,7.015284912109375,0.31154128909111023,0.44104471802711487,2.193617105484009
1732873213372315100,7.025315185546875,0.4605923891067505,0.5839871764183044,2.492330312728882
1732873213382274000,7.035274169921875,0.5198463201522827,0.6517932415008545,2.479501962661743
1732873213392306400,7.045306396484375,0.4789183437824249,0.6493497490882874,2.183232307434082
1732873213402293500,7.05529345703125,0.35185837745666504,0.5797111392021179,1.6713273525238037
1732873213412292900,7.06529296875,0.16920967400074005,0.4337143301963806,1.0005972385406494
1732873213422282500,7.075282470703125,-0.04092797264456749,0.2528982162475586,0.2583959996700287
1732873213432313300,7.085313232421875,-0.251676470041275,0.0757472887635231,-0.44593164324760437
1732873213442302000,7.095302001953125,-0.4740314185619354,-0.14782938361167908,-1.2223412990570068
1732873213452303000,7.10530322265625,-0.5491678714752197,-0.251676470041275,-1.4654656648635864
1732873213462291000,7.115291015625,-0.5656611919403076,-0.3084869384765625,-1.4917329549789429
1732873213472322600,7.125322509765625,-0.5186246037483215,-0.31154128909111023,-1.321912407875061
1732873213482280000,7.135280029296875,-0.4306600093841553,-0.2669481039047241,-0.9975429177284241
1732873213492311600,7.1453115234375,-0.3194825351238251,-0.21074850857257843,-0.5998696684837341
1732873213502299600,7.155299560546875,-0.19608774781227112,-0.15027284622192383,-0.20036379992961884
1732873213512300500,7.165300537109375,-0.08124507963657379,-0.06719517707824707,0.23273965716362
1732873213522289000,7.175288818359375,-0.05925392732024193,-0.08246681094169617,0.33719760179519653
1732873213532320000,7.185320068359375,-0.08368854224681854,-0.15332718193531036,0.32986724376678467
1732873213542277600,7.195277587890625,-0.15027284622192383,-0.24984388053417206,0.2565633952617645
1732873213552308500,7.20530859375,-0.23273965716362,-0.34574973583221436,0.1411098688840866
1732873213562297300,7.21529736328125,-0.3090978264808655,-0.4300491213798523,0.02382374368607998
1732873213572297700,7.225297607421875,-0.38117989897727966,-0.5149593949317932,-0.06414084881544113
1732873213582286000,7.2352861328125,-0.46181413531303406,-0.5772676467895508,-0.12095131725072861
1732873213592315400,7.2453154296875,-0.49296826124191284,-0.5711590051651001,-0.12889257073402405
1732873213602274000,7.255274169921875,-0.513737678527832,-0.5400048494338989,-0.11911872029304504
1732873213612305200,7.26530517578125,-0.5271766781806946,-0.4960225820541382,-0.08918632566928864
1732873213622293800,7.275293701171875,-0.5418374538421631,-0.4343251883983612,-0.04092797264456749
1732873213632294100,7.285294189453125,-0.5534439086914062,-0.3604104816913605,0.012828170321881771
1732873213642283000,7.295282958984375,-0.5693264007568359,-0.29077184200286865,0.06780604273080826
1732873213652313900,7.30531396484375,-0.5913175344467163,-0.2431243658065796,0.12767083942890167
1732873213662271700,7.315271728515625,-0.6377432942390442,-0.18875735998153687,0.19853121042251587
1732873213672303000,7.32530322265625,-0.6731734871864319,-0.16004669666290283,0.22540926933288574
1732873213682291200,7.335291259765625,-0.7165449261665344,-0.14477506279945374,0.23579397797584534
1732873213692323300,7.3453232421875,-0.7641924023628235,-0.14905111491680145,0.22296582162380219
1732873213702281200,7.35528125,-0.8057312369346619,-0.14844025671482086,0.19303341209888458
1732873213712312300,7.365312255859375,-0.8252789378166199,-0.12461651116609573,0.1667662113904953
1732873213722300700,7.37530078125,-0.8234463334083557,-0.09162978827953339,0.14477506279945374
1732873213732301300,7.38530126953125,-0.8130616545677185,-0.02321287989616394,0.09162978827953339
1732873213742290000,7.3952900390625,-0.8130616545677185,0.033597588539123535,0.02626720629632473
1732873213752320800,7.40532080078125,-0.8197811841964722,0.10201449692249298,-0.06841690838336945
1732873213762278700,7.415278564453125,-0.8313875794410706,0.20952677726745605,-0.17409659922122955
1732873213772309800,7.425309814453125,-0.8509352803230286,0.3072652220726013,-0.28038713335990906
1732873213782298400,7.43529833984375,-0.8655960559844971,0.3885102868080139,-0.3396410644054413
1732873213792298800,7.445298828125,-0.8772025108337402,0.4349360466003418,-0.32559117674827576
1732873213802287400,7.455287353515625,-0.8802568316459656,0.31154128909111023,-0.19914206862449646
1732873213812319000,7.465319091796875,-0.8753699064254761,0.1973094791173935,-0.04092797264456749
1732873213822276400,7.4752763671875,-0.8759807348251343,0.08552113175392151,0.15332718193531036
1732873213832308000,7.485307861328125,-0.8894197940826416,0.006108652334660292,0.33292156457901
1732873213842295800,7.4952958984375,-0.9034696817398071,-0.00427605677396059,0.44654250144958496
1732873213852297000,7.505296875,-0.9474520087242126,-0.018936822190880775,0.4660901725292206
1732873213862284800,7.515284912109375,-1.0323622226715088,-0.0757472887635231,0.38728857040405273
1732873213872316000,7.52531591796875,-1.1227703094482422,-0.15027284622192383,0.23884831368923187
1732873213882273800,7.535273681640625,-1.2327260971069336,-0.22846360504627228,-0.0555887371301651
1732873213892305200,7.54530517578125,-1.2577714920043945,-0.23518311977386475,-0.24373523890972137
1732873213902293500,7.55529345703125,-1.2370021343231201,-0.24068090319633484,-0.42149701714515686
1732873213912294000,7.5652939453125,-1.1869112253189087,-0.2742784917354584,-0.607200026512146
1732873213922282200,7.5752822265625,-1.1557570695877075,-0.33108896017074585,-0.8069530129432678
1732873213932314000,7.585314208984375,-1.1465940475463867,-0.39156460762023926,-1.0183123350143433
1732873213942302000,7.595302001953125,-1.160033106803894,-0.4990769028663635,-1.1924089193344116
1732873213952302000,7.605302001953125,-1.186300277709961,-0.5729916095733643,-1.1582005023956299
1732873213962291000,7.615291015625,-1.158811330795288,-0.44165557622909546,-0.8106181621551514
1732873213972322600,7.625322509765625,-1.1154398918151855,-0.2638937830924988,-0.21807889640331268
1732873213982280000,7.635280029296875,-1.0464121103286743,-0.11728613078594208,0.45692721009254456
1732873213992311600,7.6453115234375,-0.9321803450584412,-0.028099801391363144,1.0311405658721924
1732873214002299400,7.65529931640625,-0.8057312369346619,0.018325956538319588,1.4117095470428467
1732873214012299000,7.665299072265625,-0.7226535677909851,0.04092797264456749,1.5717562437057495
1732873214022288600,7.67528857421875,-0.6957755088806152,0.048258353024721146,1.4037683010101318
1732873214032320800,7.68532080078125,-0.7422012686729431,0.05253441259264946,1.074512004852295
1732873214042277600,7.695277587890625,-0.8362745046615601,0.048258353024721146,0.6426302194595337
1732873214052310000,7.70531005859375,-0.9590584635734558,0.018325956538319588,0.17531833052635193
1732873214062296800,7.715296875,-1.1007791757583618,-0.01466076634824276,-0.25961771607398987
1732873214072297200,7.725297119140625,-1.2412781715393066,-0.09896016865968704,-0.5736024379730225
1732873214082286000,7.7352861328125,-1.36955988407135,-0.2064724564552307,-0.7336491346359253
1732873214092316400,7.74531640625,-1.4654656648635864,-0.34086281061172485,-0.7470881938934326
1732873214102275000,7.755275146484375,-1.5332717895507812,-0.3927863538265228,-0.5406157374382019
1732873214112306700,7.765306640625,-1.5265522003173828,-0.3549126982688904,-0.32681289315223694
1732873214122294800,7.775294677734375,-1.4972307682037354,-0.2974913716316223,-0.11362093687057495
1732873214132295700,7.785295654296875,-1.4685200452804565,-0.24129177629947662,0.05497787147760391
1732873214142283500,7.795283447265625,-1.455691933631897,-0.192422553896904,0.15515977144241333
1732873214152313900,7.80531396484375,-1.463022232055664,-0.1368338167667389,0.1820378452539444
1732873214162272500,7.8152724609375,-1.490511178970337,-0.09834930300712585,0.14966198801994324
1732873214172304100,7.82530419921875,-1.5351043939590454,-0.0507018156349659,0.048258353024721146
1732873214182292200,7.835292236328125,-1.5711454153060913,-0.025656340643763542,-0.03298672288656235
1732873214192323800,7.84532373046875,-1.6016886234283447,-0.019547687843441963,-0.10506882518529892
1732873214202281200,7.85528125,-1.6126842498779297,-0.04214970022439957,-0.14477506279945374
1732873214212312800,7.865312744140625,-1.6035212278366089,-0.07819075137376785,-0.1411098688840866
1732873214222300700,7.87530078125,-1.5815300941467285,-0.11178833991289139,-0.10567969083786011
1732873214232301800,7.8853017578125,-1.547932505607605,-0.1459967941045761,-0.045204028487205505
1732873214242289700,7.89528955078125,-1.4764612913131714,-0.19608774781227112,0.04886921867728233
1732873214252321500,7.905321533203125,-1.4385876655578613,-0.23151792585849762,0.08979719132184982
1732873214262278700,7.915278564453125,-1.4257594347000122,-0.2681698501110077,0.10201449692249298
1732873214272310500,7.925310546875,-1.4465289115905762,-0.304210901260376,0.07757988572120667
1732873214282298400,7.93529833984375,-1.4917329549789429,-0.3384193480014801,0.015271631069481373
1732873214292299500,7.945299560546875,-1.5558737516403198,-0.394618958234787,-0.06841690838336945
1732873214302287400,7.955287353515625,-1.643227458000183,-0.46242499351501465,-0.14966198801994324
1732873214312319000,7.965319091796875,-1.7556266784667969,-0.5442809462547302,-0.242513507604599
1732873214322276000,7.975276123046875,-1.9120081663131714,-0.6621779203414917,-0.3683517575263977
1732873214332308000,7.985307861328125,-1.976149082183838,-0.7171558141708374,-0.39706242084503174
1732873214342295800,7.9952958984375,-2.0140228271484375,-0.7458664774894714,-0.37201693654060364
1732873214352297200,8.005297119140625,-2.032959461212158,-0.7318165898323059,-0.3078760802745819
1732873214362284800,8.015284912109376,-2.0390682220458984,-0.6786713004112244,-0.21502456068992615
1732873214372316400,8.02531640625,-2.0311269760131836,-0.6096435189247131,-0.1160643994808197
1732873214382273800,8.035273681640625,-2.0085248947143555,-0.5277875661849976,-0.03176499158143997
1732873214392305000,8.045304931640626,-1.9523253440856934,-0.36224308609962463,0.06719517707824707
1732873214402293500,8.05529345703125,-1.9052886962890625,-0.23457226157188416,0.12522737681865692
1732873214412294100,8.065294189453125,-1.8625280857086182,-0.14355333149433136,0.16310101747512817
1732873214422282800,8.07528271484375,-1.8472565412521362,-0.10690141469240189,0.15821409225463867
1732873214432313300,8.085313232421875,-1.8429805040359497,-0.08307767659425735,0.12095131725072861
1732873214442302000,8.095302001953126,-1.8362609148025513,-0.0757472887635231,0.0708603709936142
1732873214452303400,8.105303466796874,-1.8203784227371216,-0.10445795953273773,0.02015855349600315
1732873214462291000,8.115291015625,-1.7556266784667969,-0.1661553531885147,-0.02015855349600315
1732873214472322800,8.12532275390625,-1.6878206729888916,-0.2028072625398636,-0.009162978269159794
1732873214482280000,8.135280029296876,-1.6090190410614014,-0.20463985204696655,0.03298672288656235
1732873214492311600,8.1453115234375,-1.531439185142517,-0.18875735998153687,0.08552113175392151
1732873214502299600,8.155299560546876,-1.4672982692718506,-0.1612684279680252,0.1362229436635971
1732873214512300800,8.16530078125,-1.4117095470428467,-0.09957103431224823,0.182648703455925
1732873214522288600,8.17528857421875,-1.3658946752548218,0.004886921960860491,0.22540926933288574
1732873214532319500,8.185319580078126,-1.3457361459732056,0.10812314599752426,0.24862214922904968
1732873214542277600,8.195277587890626,-1.3329079151153564,0.18631389737129211,0.1466076523065567
1732873214552308700,8.205308837890625,-1.3322970867156982,0.1716531366109848,-0.05803219974040985
1732873214562297000,8.215297119140626,-1.3542882204055786,0.03237585723400116,-0.3591887652873993
1732873214572298500,8.225298583984374,-1.4172073602676392,-0.21991148591041565,-0.7220427393913269
1732873214582286000,8.2352861328125,-1.4831807613372803,-0.49357911944389343,-1.0598511695861816
1732873214592315400,8.2453154296875,-1.5289957523345947,-0.6682865619659424,-1.2327260971069336
1732873214602274000,8.255274169921876,-1.5454890727996826,-0.6976081132888794,-1.0965031385421753
1732873214612305200,8.26530517578125,-1.4080443382263184,-0.4709770977497101,-0.2125810980796814
1732873214622293800,8.275293701171876,-1.224173903465271,-0.20463985204696655,0.6487388610839844
1732873214632295000,8.285294921875,-0.9957103729248047,-0.014049900695681572,1.4978415966033936
1732873214642282800,8.29528271484375,-0.7635815739631653,0.0910189226269722,2.158186912536621
1732873214652314400,8.305314453125,-0.5931501388549805,0.1466076523065567,2.5717427730560303
1732873214662271700,8.315271728515626,-0.504574716091156,0.14844025671482086,2.701857089996338
1732873214672302800,8.325302734375,-0.41172316670417786,0.26572638750076294,2.478891134262085
1732873214682318000,8.335318115234376,-0.6114761233329773,0.22663100063800812,1.7354681491851807
1732873214692324600,8.34532470703125,-0.7006624341011047,-0.16249015927314758,1.0800096988677979
1732873214702281200,8.35528125,-0.7641924023628235,-0.413555771112442,0.43127086758613586
1732873214712311600,8.3653115234375,-0.8967501521110535,-0.39156460762023926,-0.1459967941045761
1732873214722301000,8.375301025390625,-1.0366383790969849,-0.19608774781227112,-0.6499606370925903
1732873214732300500,8.385300537109375,-1.1368201971054077,-0.009162978269159794,-0.998153805732727
1732873214742289700,8.39528955078125,-1.1606439352035522,0.10934487730264664,-1.1044443845748901
1732873214752320300,8.4053203125,-1.0946705341339111,0.11484266817569733,-0.9615018963813782
1732873214762278700,8.415278564453125,-0.8906415104866028,0.0354301854968071,-0.4404338300228119
1732873214772309500,8.4253095703125,-0.645684540271759,-0.05925392732024193,-0.048258353024721146
1732873214782298400,8.43529833984375,-0.5119050741195679,-0.13500121235847473,0.32620203495025635
1732873214792298200,8.44529833984375,-0.4178318381309509,-0.17776179313659668,0.5589417219161987
1732873214802287400,8.455287353515626,-0.3194825351238251,-0.251676470041275,0.6145304441452026
1732873214812317400,8.4653173828125,-0.2718350291252136,-0.32620203495025635,0.5650503635406494
1732873214822276400,8.4752763671875,-0.2773328125476837,-0.3597996234893799,0.46303585171699524
1732873214832306700,8.485306640625,-0.31093040108680725,-0.32070425152778625,0.26939156651496887
1732873214842295800,8.4952958984375,-0.3378084897994995,-0.26939156651496887,0.16920967400074005
1732873214852296400,8.50529638671875,-0.3634648323059082,-0.2272418737411499,0.08857546001672745
1732873214862284800,8.515284912109376,-0.3903428912162781,-0.2015855312347412,0
1732873214872315600,8.525315673828125,-0.42760565876960754,-0.09285151958465576,-0.12217304855585098
1732873214882273800,8.535273681640625,-0.48258355259895325,-0.11850785464048386,-0.2028072625398636
1732873214892305200,8.54530517578125,-0.47342056035995483,-0.2321287989616394,-0.2217440903186798
1732873214902293500,8.55529345703125,-0.44654250144958496,-0.17348572611808777,-0.2840523421764374
1732873214912294000,8.5652939453125,-0.4495968222618103,-0.1466076523065567,-0.32681289315223694
1732873214922282500,8.575282470703126,-0.4202753007411957,-0.18020524084568024,-0.3549126982688904
1732873214932313300,8.585313232421875,-0.3830125033855438,-0.23884831368923187,-0.3799581825733185
1732873214942302000,8.595302001953126,-0.3439171314239502,-0.27611109614372253,-0.4080579876899719
1732873214952302300,8.60530224609375,-0.2926044464111328,-0.2822197377681732,-0.42271876335144043
1732873214962291000,8.615291015625,-0.24678955972194672,-0.2828305959701538,-0.4196644127368927
1732873214972321800,8.62532177734375,-0.2070833146572113,-0.27611109614372253,-0.40683624148368835
1732873214982280000,8.635280029296876,-0.15454891324043274,-0.2583959996700287,-0.3787364661693573
1732873214992311600,8.6453115234375,-0.13255776464939117,-0.26083946228027344,-0.34697145223617554
1732873215002299400,8.65529931640625,-0.12095131725072861,-0.2742784917354584,-0.303600013256073
1732873215012299500,8.665299560546876,-0.10812314599752426,-0.29138273000717163,-0.25045475363731384
1732873215022288600,8.67528857421875,-0.09529497474431992,-0.30115658044815063,-0.19547687470912933
1732873215032319500,8.685319580078126,-0.07513642311096191,-0.28649580478668213,-0.14477506279945374
1732873215042277600,8.695277587890626,-0.05253441259264946,-0.24373523890972137,-0.09834930300712585
1732873215052308500,8.70530859375,-0.022602014243602753,-0.19303341209888458,-0.06719517707824707
1732873215062297000,8.715297119140626,-0.00855211354792118,-0.16737708449363708,-0.08307767659425735
1732873215072297500,8.72529736328125,0.004886921960860491,-0.14294247329235077,-0.11239920556545258
1732873215082286000,8.7352861328125,0.00855211354792118,-0.11362093687057495,-0.13988813757896423
1732873215092317200,8.745317138671876,0.01038470957428217,-0.09407325088977814,-0.15760323405265808
1732873215102275300,8.755275390625,0.021991148591041565,-0.07391469180583954,-0.16737708449363708
1732873215112305200,8.76530517578125,0.048258353024721146,-0.04337143152952194,-0.15332718193531036
1732873215122294800,8.775294677734376,0.10018189996480942,0.01160643994808197,-0.06719517707824707
1732873215132294700,8.785294677734376,0.1411098688840866,0.04459316283464432,0.006108652334660292
1732873215142283500,8.795283447265625,0.19058994948863983,0.07391469180583954,0.05619960278272629
1732873215152315000,8.80531494140625,0.23518311977386475,0.09407325088977814,0.08185594528913498
1732873215162272500,8.8152724609375,0.2742784917354584,0.09651670604944229,0.09346238523721695
1732873215172303600,8.8253037109375,0.2974913716316223,0.05742133408784866,0.09834930300712585
1732873215182292000,8.8352919921875,0.3078760802745819,-0.00855211354792118,0.09712757170200348
1732873215192323800,8.84532373046875,0.2926044464111328,-0.10323622822761536,0.09407325088977814
1732873215202281200,8.85528125,0.25473082065582275,-0.23273965716362,0.0910189226269722
1732873215212312800,8.865312744140626,0.23335053026676178,-0.2767219543457031,0.10934487730264664
1732873215222300700,8.87530078125,0.2217440903186798,-0.2541199326515198,0.1508837193250656
1732873215232301800,8.8853017578125,0.21930062770843506,-0.23884831368923187,0.2021963894367218
1732873215242289700,8.89528955078125,0.2076941877603531,-0.29138273000717163,0.22602014243602753
1732873215252321300,8.9053212890625,0.16737708449363708,-0.37568211555480957,0.20036379992961884
1732873215262278700,8.915278564453125,0.09040805697441101,-0.4489859640598297,0.10384709388017654
1732873215272310000,8.92531005859375,-0.07513642311096191,-0.6004805564880371,-0.09712757170200348
1732873215282298400,8.93529833984375,-0.18997909128665924,-0.6963863968849182,-0.2028072625398636
1732873215292299300,8.94529931640625,-0.2785545587539673,-0.7574729323387146,-0.24434609711170197
1732873215302287400,8.955287353515626,-0.33292156457901,-0.799011766910553,-0.18814650177955627
1732873215312318700,8.965318603515625,-0.3585779070854187,-0.7947356700897217,-0.02932153269648552
1732873215322276400,8.9752763671875,-0.34636059403419495,-0.6817256212234497,0.23579397797584534
1732873215332308000,8.985307861328126,-0.29626965522766113,-0.42760565876960754,0.618195652961731
1732873215342295800,8.9952958984375,-0.16371189057826996,0.10323622822761536,1.2956452369689941
1732873215352296700,9.005296630859375,-0.07269296050071716,0.38240164518356323,1.6731599569320679
1732873215362284800,9.015284912109376,-0.007941247895359993,0.5510004758834839,1.9223929643630981
1732873215372315100,9.025315185546875,0.009773843921720982,0.6475171446800232,2.0176877975463867
1732873215382273800,9.035273681640625,-0.021380282938480377,0.6743952035903931,1.9437731504440308
1732873215392306400,9.045306396484374,-0.09224065393209457,0.6450737118721008,1.7146987915039062
1732873215402293500,9.05529345703125,-0.19547687470912933,0.5571091175079346,1.3561208248138428
1732873215412297500,9.06529736328125,-0.3194825351238251,0.4398229718208313,0.9224064946174622
1732873215422282500,9.075282470703126,-0.4960225820541382,0.28649580478668213,0.2816088795661926
1732873215432312800,9.085312744140625,-0.5803219676017761,0.2223549485206604,-0.05497787147760391
1732873215442302000,9.095302001953126,-0.6352998614311218,0.1722639948129654,-0.2938261926174164
1732873215452302300,9.10530224609375,-0.6743952035903931,0.13316862285137177,-0.46181413531303406
1732873215462291000,9.115291015625,-0.6939429044723511,0.09834930300712585,-0.5736024379730225
1732873215472322600,9.125322509765626,-0.6896668672561646,0.0708603709936142,-0.618195652961731
1732873215482280000,9.135280029296876,-0.6762278079986572,0.04703662544488907,-0.6096435189247131
1732873215492311600,9.1453115234375,-0.6536257863044739,0.01466076634824276,-0.5320636034011841
1732873215502299600,9.155299560546876,-0.626747727394104,0.006719517521560192,-0.45265114307403564
1732873215512300800,9.16530078125,-0.5815436840057373,0.03420845419168472,-0.3488040566444397
1732873215522288600,9.17528857421875,-0.5247332453727722,0.1014036312699318,-0.2321287989616394
1732873215532320300,9.1853203125,-0.4538728892803192,0.1765400618314743,-0.12400564551353455
1732873215542277600,9.195277587890626,-0.37568211555480957,0.20891591906547546,-0.03481931984424591
1732873215552309000,9.20530908203125,-0.30054569244384766,0.21135938167572021,0.025656340643763542
1732873215562297300,9.21529736328125,-0.2431243658065796,0.15821409225463867,0.06108652427792549
1732873215572298000,9.225298095703126,-0.20463985204696655,0.09285151958465576,0.04214970022439957
1732873215582286000,9.2352861328125,-0.20402899384498596,0.012217304669320583,0
1732873215592315400,9.2453154296875,-0.21868975460529327,-0.07757988572120667,-0.051312681287527084
1732873215602274000,9.255274169921876,-0.2321287989616394,-0.16493362188339233,-0.10506882518529892
1732873215612305200,9.26530517578125,-0.22602014243602753,-0.21807889640331268,-0.14477506279945374
1732873215622293800,9.275293701171876,-0.20036379992961884,-0.2272418737411499,-0.1569923609495163
1732873215632294400,9.28529443359375,-0.16249015927314758,-0.21319197118282318,-0.14355333149433136
1732873215642282800,9.29528271484375,-0.0910189226269722,-0.16982053220272064,-0.10690141469240189
1732873215652313900,9.30531396484375,-0.0507018156349659,-0.15454891324043274,-0.09224065393209457
1732873215662271700,9.315271728515626,-0.031154127791523933,-0.17959438264369965,-0.09957103431224823
1732873215672302800,9.325302734375,-0.03726277872920036,-0.24495697021484375,-0.12828169763088226
1732873215682291200,9.335291259765626,-0.06963863968849182,-0.3139847218990326,-0.16432274878025055
1732873215692322800,9.34532275390625,-0.11362093687057495,-0.4043927788734436,-0.18814650177955627
1732873215702281200,9.35528125,-0.1569923609495163,-0.46181413531303406,-0.192422553896904
1732873215712312600,9.3653125,-0.1973094791173935,-0.4349360466003418,-0.11301007121801376
1732873215722300700,9.37530078125,-0.19547687470912933,-0.3891211748123169,0.00733038317412138
1732873215732302000,9.385302001953125,-0.17837265133857727,-0.32070425152778625,0.15760323405265808
1732873215742289700,9.39528955078125,-0.13988813757896423,-0.2278527319431305,0.3090978264808655
1732873215752321000,9.405321044921875,-0.09468411654233932,-0.13316862285137177,0.42271876335144043
1732873215762278700,9.415278564453125,-0.04886921867728233,-0.04642575979232788,0.48747047781944275
1732873215772310300,9.425310302734376,-0.009773843921720982,-0.018325956538319588,0.4948008358478546
1732873215782298000,9.435298095703125,0.02321287989616394,-0.039095375686883926,0.44715335965156555
1732873215792299000,9.445299072265625,0.04886921867728233,-0.06902777403593063,0.32559117674827576
1732873215802287400,9.455287353515626,0.05253441259264946,-0.06536258012056351,0.2632829248905182
1732873215812318200,9.465318115234375,0.05864306539297104,-0.03176499158143997,0.24068090319633484
1732873215822276400,9.4752763671875,0.06291911751031876,0.001832595793530345,0.23029619455337524
1732873215832307200,9.48530712890625,0.05619960278272629,-0.006719517521560192,0.17837265133857727
1732873215842295800,9.4952958984375,0.012828170321881771,-0.09162978827953339,0.0507018156349659
1732873215852297000,9.505296875,-0.07819075137376785,-0.251676470041275,-0.13927727937698364
1732873215862284800,9.515284912109376,-0.2431243658065796,-0.46670106053352356,-0.3830125033855438
1732873215872316400,9.52531640625,-0.28038713335990906,-0.4715879559516907,-0.3701843321323395
1732873215882273800,9.535273681640625,-0.2174680233001709,-0.34086281061172485,-0.13866640627384186
1732873215892304400,9.545304443359376,-0.045204028487205505,-0.07024950534105301,0.2816088795661926
1732873215902293500,9.55529345703125,0.21013765037059784,0.2565633952617645,0.8112290501594543
1732873215912293000,9.565293212890625,0.4612032473087311,0.5412266254425049,1.3261884450912476
1732873215922282500,9.575282470703126,0.6707300543785095,0.7660250067710876,1.7049249410629272
1732873215932312600,9.5853125,0.8411614298820496,0.9376781582832336,1.891238808631897
1732873215942302000,9.595302001953126,0.846659243106842,0.9156870245933533,1.7507398128509521
1732873215952306200,9.60530615234375,0.769079327583313,0.8130616545677185,1.4031574726104736
1732873215962291000,9.615291015625,0.6298020482063293,0.6383541822433472,0.8851437568664551
1732873215972323300,9.6253232421875,0.4648684561252594,0.4105014503002167,0.2675589919090271
1732873215982280000,9.635280029296876,0.2938261926174164,0.2021963894367218,-0.34025195240974426
1732873215992310300,9.645310302734375,0.15271630883216858,0.022602014243602753,-0.8442157506942749
1732873216002299400,9.65529931640625,0.09529497474431992,-0.10567969083786011,-1.1826350688934326
1732873216012299000,9.665299072265626,0.12339477986097336,-0.2431243658065796,-1.361007809638977
1732873216022288600,9.67528857421875,0.18387043476104736,-0.2871066629886627,-1.299310326576233
1732873216032320000,9.685320068359376,0.2742784917354584,-0.26145032048225403,-1.1313223838806152
1732873216042277600,9.695277587890626,0.3738495409488678,-0.17592918872833252,-0.8930850028991699
1732873216052309000,9.70530908203125,0.46547931432724,-0.06963863968849182,-0.6328563690185547
1732873216062296800,9.715296875,0.5345070958137512,0.036651913076639175,-0.39584067463874817
1732873216072298500,9.725298583984374,0.5778785347938538,0.1215621829032898,-0.19853121042251587
1732873216082286000,9.7352861328125,0.5723807215690613,0.08918632566928864,-0.025045474991202354
1732873216092317200,9.745317138671876,0.513737678527832,-0.01466076634824276,0.018936822190880775
1732873216102275000,9.755275146484376,0.4294382631778717,-0.1362229436635971,0.012828170321881771
1732873216112306200,9.76530615234375,0.35063666105270386,-0.2535090744495392,-0.03237585723400116
1732873216122294800,9.775294677734376,0.2767219543457031,-0.3335324227809906,-0.08796459436416626
1732873216132295200,9.785295166015626,0.21991148591041565,-0.3799581825733185,-0.13866640627384186
1732873216142283500,9.795283447265625,0.18997909128665924,-0.40256020426750183,-0.16859880089759827
1732873216152314600,9.805314697265626,0.1618792861700058,-0.3597996234893799,-0.182648703455925
1732873216162272800,9.815272705078126,0.14844025671482086,-0.2724458873271942,-0.17592918872833252
1732873216172303600,9.8253037109375,0.1319468915462494,-0.18325957655906677,-0.16920967400074005
1732873216182292200,9.835292236328126,0.11056660860776901,-0.12217304855585098,-0.15515977144241333
1732873216192323000,9.845322998046875,0.08491026610136032,-0.09224065393209457,-0.12950342893600464
1732873216202281200,9.85528125,0.05253441259264946,-0.07024950534105301,-0.07941248267889023
1732873216212312000,9.86531201171875,0.02687807008624077,-0.056810468435287476,-0.01038470957428217
1732873216222300700,9.87530078125,0.006108652334660292,-0.0507018156349659,0.07819075137376785
1732873216232301000,9.885301025390625,-0.033597588539123535,-0.05314527451992035,0.1973094791173935
1732873216242290000,9.8952900390625,-0.06108652427792549,-0.07024950534105301,0.2376265823841095
1732873216252320800,9.90532080078125,-0.08857546001672745,-0.10323622822761536,0.24068090319633484
1732873216262278700,9.915278564453125,-0.12339477986097336,-0.15577064454555511,0.21563543379306793
1732873216272309800,9.925309814453126,-0.16249015927314758,-0.22113321721553802,0.1667662113904953
1732873216282298400,9.93529833984375,-0.19975294172763824,-0.26145032048225403,0.10690141469240189
1732873216292298800,9.945298828125,-0.23090706765651703,-0.25534167885780334,0.0507018156349659
1732873216302287400,9.955287353515626,-0.28527405858039856,-0.2168571650981903,-0.04214970022439957
1732873216312318500,9.965318359375,-0.33475416898727417,-0.24007004499435425,-0.13072516024112701
1732873216322276400,9.9752763671875,-0.41172316670417786,-0.30115658044815063,-0.23273965716362
1732873216332308000,9.985307861328126,-0.5192354321479797,-0.35552358627319336,-0.33169981837272644
1732873216342295800,9.9952958984375,-0.6261368989944458,-0.3830125033855438,-0.40256020426750183
1732873216352297000,10.005296875,-0.6982190012931824,-0.3927863538265228,-0.43799036741256714
1732873216362284800,10.015284912109376,-0.7195992469787598,-0.42210787534713745,-0.4300491213798523
1732873216372316700,10.025316650390625,-0.6914994716644287,-0.5247332453727722,-0.37262779474258423
1732873216382273800,10.035273681640625,-0.6579018831253052,-0.5473352670669556,-0.2981022298336029
1732873216392305400,10.045305419921876,-0.6255260109901428,-0.4495968222618103,-0.14782938361167908
1732873216402293500,10.05529345703125,-0.5571091175079346,-0.24923302233219147,0.12400564551353455
1732873216412294700,10.065294677734375,-0.45631635189056396,0.02076941914856434,0.4789183437824249
1732873216422282500,10.075282470703126,-0.34636059403419495,0.27122417092323303,0.8509352803230286
1732873216432313900,10.08531396484375,-0.2687807083129883,0.45875978469848633,1.1734721660614014
1732873216442302000,10.095302001953126,-0.23579397797584534,0.5455026626586914,1.389107584953308
1732873216452302300,10.10530224609375,-0.24007004499435425,0.6627888083457947,1.472796082496643
1732873216462291000,10.115291015625,-0.2577851414680481,0.66584312915802,1.321912407875061
1732873216472323600,10.125323486328124,-0.2938261926174164,0.5442809462547302,1.015868902206421
1732873216482280000,10.135280029296876,-0.3500257730484009,0.35185837745666504,0.598647952079773
1732873216492312600,10.1453125,-0.4349360466003418,0.18081611394882202,0.13561208546161652
1732873216502299600,10.155299560546876,-0.5308418869972229,0.04581489413976669,-0.32070425152778625
1732873216512300300,10.16530029296875,-0.598647952079773,-0.0354301854968071,-0.7006624341011047
1732873216522288600,10.17528857421875,-0.6096435189247131,-0.11972958594560623,-1.0170906782150269
1732873216532320300,10.1853203125,-0.5723807215690613,-0.14844025671482086,-1.0299187898635864
1732873216542277600,10.195277587890626,-0.513126790523529,-0.16310101747512817,-0.9156870245933533
1732873216552309200,10.205309326171875,-0.4300491213798523,-0.15393804013729095,-0.7134906053543091
1732873216562297000,10.215297119140626,-0.3390302062034607,-0.12095131725072861,-0.45142942667007446
1732873216572298200,10.22529833984375,-0.2620611786842346,-0.07696902006864548,-0.18631389737129211
1732873216582286300,10.235286376953125,-0.20341812074184418,-0.04459316283464432,0.02871066704392433
1732873216592315600,10.245315673828125,-0.15821409225463867,-0.014049900695681572,0.1820378452539444
1732873216602274000,10.255274169921876,-0.1569923609495163,-0.021380282938480377,0.18081611394882202
1732873216612305400,10.265305419921875,-0.1722639948129654,-0.05314527451992035,0.11789698898792267
1732873216622293800,10.275293701171876,-0.19547687470912933,-0.08491026610136032,0.02687807008624077
1732873216632294400,10.28529443359375,-0.21380282938480377,-0.11178833991289139,-0.06108652427792549
1732873216642282800,10.29528271484375,-0.2064724564552307,-0.12950342893600464,-0.11301007121801376
1732873216652313900,10.30531396484375,-0.17898350954055786,-0.12522737681865692,-0.09834930300712585
1732873216662271700,10.315271728515626,-0.13805554807186127,-0.11178833991289139,-0.019547687843441963
1732873216672303000,10.32530322265625,-0.06414084881544113,-0.11423180252313614,0.1472185254096985
1732873216682320000,10.33531982421875,-0.021380282938480377,-0.13744467496871948,0.2577851414680481
1732873216692323000,10.345322998046875,0.00855211354792118,-0.16065755486488342,0.33475416898727417
1732873216702281200,10.35528125,0.02871066704392433,-0.17104226350784302,0.38117989897727966
1732873216712311800,10.365311767578126,0.04398229718208313,-0.152105450630188,0.40744712948799133
1732873216722301000,10.375301025390625,0.051312681287527084,-0.10201449692249298,0.4239404797554016
1732873216732301300,10.38530126953125,0.06108652427792549,-0.036651913076639175,0.44104471802711487
1732873216742289700,10.39528955078125,0.09162978827953339,0.0507018156349659,0.4893030524253845
1732873216752320500,10.405320556640625,0.1111774742603302,0.06169738993048668,0.5406157374382019
1732873216762278700,10.415278564453125,0.13255776464939117,0.0354301854968071,0.5968153476715088
1732873216772309800,10.425309814453126,0.1417207419872284,-0.016493361443281174,0.6108652353286743
1732873216782298400,10.43529833984375,0.1215621829032898,-0.08368854224681854,0.5650503635406494
1732873216792298800,10.445298828125,0.08796459436416626,-0.1612684279680252,0.4612032473087311
1732873216802287400,10.455287353515626,0.04398229718208313,-0.23335053026676178,0.3072652220726013
1732873216812318200,10.465318115234375,-0.030543262138962746,-0.3084869384765625,0.04337143152952194
1732873216822276400,10.4752763671875,-0.0659734457731247,-0.323147714138031,-0.10506882518529892
1732873216832307200,10.48530712890625,-0.07024950534105301,-0.29626965522766113,-0.20586158335208893
1732873216842295800,10.4952958984375,-0.042760565876960754,-0.2431243658065796,-0.24434609711170197
1732873216852296400,10.50529638671875,0.01466076634824276,-0.1765400618314743,-0.23029619455337524
1732873216862284800,10.515284912109376,0.09162978827953339,-0.1215621829032898,-0.19914206862449646
1732873216872315600,10.525315673828125,0.15027284622192383,-0.12828169763088226,-0.1966986060142517
1732873216882273800,10.535273681640625,0.1667662113904953,-0.2382374405860901,-0.27611109614372253
1732873216892305400,10.545305419921876,0.10506882518529892,-0.5326744914054871,-0.5601634383201599
1732873216902293500,10.55529345703125,0.019547687843441963,-0.7195992469787598,-0.7605272531509399
1732873216912294400,10.56529443359375,-0.0708603709936142,-0.7672467231750488,-0.8723155856132507
1732873216922282500,10.575282470703126,-0.07880161702632904,-0.6377432942390442,-0.789237916469574
1732873216932313900,10.58531396484375,0.005497787147760391,-0.3781255781650543,-0.4282165467739105
1732873216942302000,10.595302001953126,0.14355333149433136,-0.10323622822761536,0.16065755486488342
1732873216952301600,10.605301513671876,0.323147714138031,0.09834930300712585,0.8240572214126587
1732873216962291000,10.615291015625,0.5894849896430969,0.28038713335990906,1.6029103994369507
1732873216972321300,10.6253212890625,0.6829473376274109,0.3188716471195221,1.8417587280273438
1732873216982280000,10.635280029296876,0.6914994716644287,0.28955012559890747,1.8008307218551636
1732873216992312300,10.645312255859375,0.6438519954681396,0.18081611394882202,1.5076154470443726
1732873217002299600,10.655299560546876,0.543059229850769,0.004886921960860491,1.0152580738067627
1732873217012299000,10.665299072265626,0.40256020426750183,-0.19853121042251587,0.3787364661693573
1732873217022288600,10.67528857421875,0.2620611786842346,-0.35246923565864563,-0.32070425152778625
1732873217032319500,10.685319580078126,0.16859880089759827,-0.4349360466003418,-1.2394455671310425
1732873217042277600,10.695277587890626,0.15577064454555511,-0.4251621961593628,-1.63467538356781
1732873217052309000,10.70530908203125,0.1466076523065567,-0.4337143301963806,-1.814269781112671
1732873217062297000,10.715297119140626,0.1612684279680252,-0.4502076804637909,-1.786780834197998
1732873217072298000,10.725298095703126,0.2076941877603531,-0.4288274049758911,-1.588249683380127
1732873217082286000,10.7352861328125,0.27061331272125244,-0.34513887763023376,-1.2791517972946167
1732873217092317700,10.745317626953126,0.34025195240974426,-0.19792033731937408,-0.9108000993728638
1732873217102275000,10.755275146484376,0.40072759985923767,-0.029932396486401558,-0.5357288122177124
1732873217112306700,10.765306640625,0.45631635189056396,0.13805554807186127,-0.09834930300712585
1732873217122294800,10.775294677734376,0.4612032473087311,0.13866640627384186,0.05497787147760391
1732873217132295400,10.78529541015625,0.43676865100860596,0.08735372871160507,0.10934487730264664
1732873217142283500,10.795283447265625,0.3891211748123169,0.015882495790719986,0.09468411654233932
1732873217152315000,10.80531494140625,0.3237585723400116,-0.07330382615327835,0.02321287989616394
1732873217162272500,10.8152724609375,0.25961771607398987,-0.15821409225463867,-0.07147123664617538
1732873217172303600,10.8253037109375,0.20402899384498596,-0.21868975460529327,-0.1661553531885147
1732873217182292000,10.8352919921875,0.13561208546161652,-0.23090706765651703,-0.27122417092323303
1732873217192323000,10.845322998046875,0.1014036312699318,-0.19058994948863983,-0.3176499307155609
1732873217202281200,10.85528125,0.07391469180583954,-0.1258382350206375,-0.34147366881370544
1732873217212311800,10.865311767578126,0.04337143152952194,-0.05803219974040985,-0.33719760179519653
1732873217222301000,10.875301025390625,0.016493361443281174,-0.012828170321881771,-0.30482175946235657
1732873217232301800,10.8853017578125,-0.012828170321881771,0.009162978269159794,-0.25045475363731384
1732873217242289700,10.89528955078125,-0.042760565876960754,0.013439035043120384,-0.1661553531885147
1732873217252321300,10.9053212890625,-0.08735372871160507,0.021991148591041565,-0.005497787147760391
1732873217262278700,10.915278564453125,-0.11056660860776901,0.02382374368607998,0.10445795953273773
1732873217272309800,10.925309814453126,-0.12889257073402405,0.016493361443281174,0.2028072625398636
1732873217282298400,10.93529833984375,-0.14233160018920898,0.01160643994808197,0.28099802136421204
1732873217292298500,10.945298583984375,-0.15454891324043274,0.016493361443281174,0.3323107063770294
1732873217302287400,10.955287353515626,-0.1667662113904953,0.010995574295520782,0.3488040566444397
1732873217312318000,10.96531787109375,-0.1869247704744339,-0.019547687843441963,0.33047810196876526
1732873217322276400,10.9752763671875,-0.2076941877603531,-0.05497787147760391,0.2981022298336029
1732873217332307500,10.985307373046876,-0.23029619455337524,-0.05742133408784866,0.25473082065582275
1732873217342295800,10.9952958984375,-0.24007004499435425,-0.02321287989616394,0.2376265823841095
1732873217352296400,11.00529638671875,-0.2571742534637451,-0.009773843921720982,0.22113321721553802
1732873217362284800,11.015284912109376,-0.29138273000717163,-0.045204028487205505,0.17776179313659668
1732873217372316400,11.02531640625,-0.34636059403419495,-0.08185594528913498,0.10201449692249298
1732873217382273800,11.035273681640625,-0.42088615894317627,-0.06230825558304787,0.010995574295520782
1732873217392305000,11.045304931640626,-0.48869219422340393,-0.009773843921720982,-0.07147123664617538
1732873217402293500,11.05529345703125,-0.5271766781806946,0.04703662544488907,-0.1514945775270462
1732873217412294700,11.065294677734375,-0.5381723046302795,-0.004886921960860491,-0.1966986060142517
1732873217422282500,11.075282470703126,-0.5497786998748779,-0.1014036312699318,-0.2590068578720093
1732873217432314000,11.085314208984375,-0.5607742667198181,-0.18814650177955627,-0.3170390725135803
1732873217442302000,11.095302001953126,-0.5693264007568359,-0.18875735998153687,-0.32070425152778625
1732873217452303000,11.10530322265625,-0.5540547966957092,-0.09529497474431992,-0.2015855312347412
1732873217462291000,11.115291015625,-0.5180137157440186,0.05192354694008827,0.06841690838336945
1732873217472322600,11.125322509765626,-0.45875978469848633,0.23579397797584534,0.5992587804794312
1732873217482280000,11.135280029296876,-0.42149701714515686,0.27550023794174194,0.9101892113685608
1732873217492310000,11.14531005859375,-0.3897320330142975,0.28955012559890747,1.1117748022079468
1732873217502299600,11.155299560546876,-0.37079519033432007,0.2730567753314972,1.1673635244369507
1732873217512299500,11.165299560546876,-0.3787364661693573,0.2076941877603531,1.073290228843689
1732873217522288600,11.17528857421875,-0.40072759985923767,0.10506882518529892,0.8515461683273315
1732873217532319000,11.185319091796876,-0.43249258399009705,0.012828170321881771,0.5510004758834839
1732873217542278000,11.19527783203125,-0.47769662737846375,-0.04948008432984352,0.21502456068992615
1732873217552308500,11.20530859375,-0.53328537940979,-0.05864306539297104,-0.252287358045578
1732873217562297300,11.21529736328125,-0.5589417219161987,-0.039095375686883926,-0.45692721009254456
1732873217572298200,11.22529833984375,-0.5827654600143433,-0.01710422709584236,-0.5473352670669556
1732873217582286300,11.235286376953125,-0.6029239892959595,-0.0012217304902151227,-0.5345070958137512
1732873217592316000,11.24531591796875,-0.6035348773002625,0.01038470957428217,-0.44593164324760437
1732873217602274000,11.255274169921876,-0.5876523852348328,0.02687807008624077,-0.3121521472930908
1732873217612305700,11.2653056640625,-0.5638286471366882,0.04459316283464432,-0.1612684279680252
1732873217622293800,11.275293701171876,-0.5253441333770752,0.05803219974040985,0.013439035043120384
1732873217632294400,11.28529443359375,-0.503963828086853,0.05864306539297104,0.06169738993048668
1732873217642282800,11.29528271484375,-0.48380526900291443,0.039706241339445114,0.05192354694008827
1732873217652313900,11.30531396484375,-0.47342056035995483,0.01710422709584236,0.006108652334660292
1732873217662271700,11.315271728515626,-0.4715879559516907,-0.009162978269159794,-0.06108652427792549
1732873217672303000,11.32530322265625,-0.4740314185619354,-0.031154127791523933,-0.13561208546161652
1732873217682291200,11.335291259765626,-0.475253164768219,-0.04398229718208313,-0.21502456068992615
1732873217692323300,11.3453232421875,-0.4862487316131592,-0.03237585723400116,-0.30054569244384766
1732873217702281200,11.35528125,-0.48747047781944275,-0.02015855349600315,-0.3243694305419922
1732873217712312300,11.365312255859376,-0.47708576917648315,-0.02076941914856434,-0.33047810196876526
1732873217722301000,11.375301025390625,-0.4648684561252594,-0.028099801391363144,-0.31031954288482666
1732873217732301000,11.385301025390625,-0.44165557622909546,-0.0555887371301651,-0.2736676335334778
1732873217742289700,11.39528955078125,-0.41599923372268677,-0.09346238523721695,-0.2278527319431305
1732873217752321500,11.405321533203125,-0.38728857040405273,-0.12278391420841217,-0.17348572611808777
1732873217762278700,11.415278564453125,-0.36713001132011414,-0.14049901068210602,-0.1014036312699318
1732873217772310300,11.425310302734376,-0.34147366881370544,-0.1459967941045761,0.039095375686883926
1732873217782298400,11.43529833984375,-0.31642818450927734,-0.12767083942890167,0.14294247329235077
1732873217792298800,11.445298828125,-0.2889392673969269,-0.09040805697441101,0.2474004179239273
1732873217802287400,11.455287353515626,-0.27000242471694946,-0.05375614017248154,0.32498031854629517
1732873217812318500,11.465318359375,-0.2681698501110077,-0.030543262138962746,0.3445279896259308
1732873217822276400,11.4752763671875,-0.28588494658470154,-0.007941247895359993,0.2938261926174164
1732873217832307200,11.48530712890625,-0.32131510972976685,0.018936822190880775,0.1820378452539444
1732873217842295800,11.4952958984375,-0.38728857040405273,0.02076941914856434,-0.04764748737215996
1732873217852296200,11.505296142578125,-0.41722095012664795,0.001832595793530345,-0.18875735998153687
1732873217862284800,11.515284912109376,-0.4349360466003418,0.001832595793530345,-0.2828305959701538
1732873217872316700,11.525316650390625,-0.4294382631778717,0.01160643994808197,-0.3219259977340698
1732873217882273800,11.535273681640625,-0.3878994286060333,0.030543262138962746,-0.30604347586631775
1732873217892305200,11.54530517578125,-0.3237585723400116,0.0659734457731247,-0.2431243658065796
1732873217902293500,11.55529345703125,-0.2431243658065796,0.12339477986097336,-0.16982053220272064
1732873217912294100,11.565294189453125,-0.14294247329235077,0.2070833146572113,-0.14844025671482086
1732873217922282500,11.575282470703126,-0.11362093687057495,0.18631389737129211,-0.24678955972194672
1732873217932313900,11.58531396484375,-0.1417207419872284,0.08491026610136032,-0.4306600093841553
1732873217942302000,11.595302001953126,-0.24129177629947662,-0.06230825558304787,-0.637132465839386
1732873217952303000,11.60530322265625,-0.37690386176109314,-0.1973094791173935,-0.7770205736160278
1732873217962291000,11.615291015625,-0.4648684561252594,-0.26083946228027344,-0.7434229850769043
1732873217972322600,11.625322509765626,-0.4691445231437683,-0.22357667982578278,-0.4355469346046448
1732873217982280000,11.635280029296876,-0.38606682419776917,-0.14233160018920898,0.1160643994808197
1732873217992311600,11.6453115234375,-0.1563815027475357,-0.028099801391363144,1.1465940475463867
1732873218002299600,11.655299560546876,0.03848451003432274,0.07452555745840073,1.7886134386062622
1732873218012300300,11.66530029296875,0.21380282938480377,0.17776179313659668,2.247373342514038
1732873218022288600,11.67528857421875,0.3072652220726013,0.26145032048225403,2.451402187347412
1732873218032321800,11.68532177734375,0.3078760802745819,0.31520646810531616,2.367713689804077
1732873218042277600,11.695277587890626,0.24862214922904968,0.3439171314239502,2.0176877975463867
1732873218052308200,11.70530810546875,0.13072516024112701,0.33536502718925476,1.454470157623291
1732873218062297000,11.715297119140626,-0.09407325088977814,0.16982053220272064,0.3390302062034607
1732873218072297200,11.725297119140626,-0.2675589919090271,-0.001832595793530345,-0.4612032473087311
1732873218082286000,11.7352861328125,-0.41661009192466736,-0.1612684279680252,-1.158811330795288
1732873218092317400,11.7453173828125,-0.5125159621238708,-0.2981022298336029,-1.665218710899353
1732873218102275000,11.755275146484376,-0.5601634383201599,-0.4184426963329315,-1.9339994192123413
1732873218112306400,11.765306396484375,-0.5583308339118958,-0.4764748811721802,-1.9541579484939575
1732873218122294800,11.775294677734376,-0.513126790523529,-0.44654250144958496,-1.7507398128509521
1732873218132295700,11.785295654296876,-0.3982841372489929,-0.2828305959701538,-1.130711555480957
1732873218142283500,11.795283447265625,-0.3139847218990326,-0.13561208546161652,-0.607810914516449
1732873218152315100,11.805315185546876,-0.24007004499435425,-0.015271631069481373,-0.12461651116609573
1732873218162272500,11.8152724609375,-0.1973094791173935,0.05497787147760391,0.22479841113090515
1732873218172304000,11.825303955078125,-0.19792033731937408,0.07024950534105301,0.39767327904701233
1732873218182292000,11.8352919921875,-0.23945917189121246,0.04092797264456749,0.42088615894317627
1732873218192323000,11.845322998046875,-0.31520646810531616,-0.013439035043120384,0.342695415019989
1732873218202281200,11.85528125,-0.40744712948799133,-0.0910189226269722,0.22540926933288574
1732873218212312300,11.865312255859376,-0.5308418869972229,-0.22052235901355743,0.07635815441608429
1732873218222300700,11.87530078125,-0.598647952079773,-0.2834414839744568,0.014049900695681572
1732873218232301300,11.88530126953125,-0.6603453159332275,-0.303600013256073,-0.024434609338641167
1732873218242290000,11.8952900390625,-0.7189884185791016,-0.303600013256073,-0.0708603709936142
1732873218252320800,11.90532080078125,-0.778853178024292,-0.30115658044815063,-0.1459967941045761
1732873218262278700,11.915278564453125,-0.8405506014823914,-0.3023782968521118,-0.23518311977386475
1732873218272309800,11.925309814453126,-0.9004153609275818,-0.2981022298336029,-0.31642818450927734
1732873218282298400,11.93529833984375,-0.9822713136672974,-0.2687807083129883,-0.37140607833862305
1732873218292299300,11.94529931640625,-1.0225883722305298,-0.21991148591041565,-0.34513887763023376
1732873218302287400,11.955287353515626,-1.0464121103286743,-0.15454891324043274,-0.26145032048225403
1732873218312812800,11.965812744140624,-1.0616837739944458,-0.08491026610136032,-0.13439035415649414
1732873218322770200,11.975770263671874,-1.0739010572433472,-0.030543262138962746,0.009162978269159794
1732873218332802000,11.985802001953125,-1.0952813625335693,0.003054326167330146,0.1319468915462494
1732873218342789600,11.99578955078125,-1.1258246898651123,0.003054326167330146,0.19608774781227112
1732873218352790800,12.005790771484374,-1.1728612184524536,-0.09407325088977814,0.17470745742321014
1732873218362778600,12.015778564453125,-1.2082914113998413,-0.18387043476104736,0.11789698898792267
1732873218372810200,12.025810302734374,-1.2424999475479126,-0.2565633952617645,0.06475171446800232
1732873218382767600,12.035767578125,-1.2754865884780884,-0.2889392673969269,0.04948008432984352
1732873218392799500,12.045799560546875,-1.3017538785934448,-0.2987131178379059,0.08857546001672745
1732873218402787300,12.055787353515624,-1.3127493858337402,-0.3029891550540924,0.16554448008537292
1732873218412788500,12.06578857421875,-1.3170254230499268,-0.3139847218990326,0.2632829248905182
1732873218422776300,12.0757763671875,-1.3347405195236206,-0.31459560990333557,0.3543018400669098
1732873218432808000,12.085807861328124,-1.3848315477371216,-0.2675589919090271,0.44776421785354614
1732873218442795800,12.095795654296875,-1.4501941204071045,-0.2021963894367218,0.46670106053352356
1732873218452797000,12.105796875,-1.5454890727996826,-0.11667526513338089,0.44104471802711487
1732873218462784800,12.11578466796875,-1.6688838005065918,0,0.35246923565864563
1732873218472815900,12.12581591796875,-1.7122552394866943,0.10690141469240189,0.21380282938480377
1732873218482773800,12.135773681640625,-1.7244726419448853,0.17104226350784302,0.060475658625364304
1732873218492805000,12.14580517578125,-1.7061465978622437,0.1661553531885147,-0.11178833991289139
1732873218502793500,12.15579345703125,-1.6413949728012085,-0.09407325088977814,-0.4990769028663635
1732873218512793300,12.16579345703125,-1.6847662925720215,-0.24556782841682434,-0.8405506014823914
1732873218522782500,12.175782470703124,-1.7904460430145264,-0.2724458873271942,-1.1398745775222778
1732873218532814000,12.18581396484375,-1.9230037927627563,-0.25961771607398987,-1.3017538785934448
1732873218542771500,12.195771484375,-1.987755537033081,-0.26022860407829285,-1.2192870378494263
1732873218552803000,12.205802978515624,-1.9895881414413452,-0.2718350291252136,-0.846659243106842
1732873218562791000,12.215791015625,-1.9529361724853516,-0.30482175946235657,-0.27550023794174194
1732873218572792300,12.225792236328125,-1.8124371767044067,-0.36713001132011414,0.6340781450271606
1732873218582780200,12.2357802734375,-1.6982053518295288,-0.313373863697052,1.1184942722320557
1732873218592808700,12.24580859375,-1.6218472719192505,-0.13255776464939117,1.4172073602676392
1732873218602768000,12.255767822265625,-1.577254056930542,0.07819075137376785,1.49906325340271
1732873218612802600,12.265802490234375,-1.5790866613388062,0.21868975460529327,1.3652838468551636
1732873218622787600,12.27578759765625,-1.63467538356781,0.2590068578720093,1.0231993198394775
1732873218632791600,12.28579150390625,-1.7324138879776,0.20402899384498596,0.5296201705932617
1732873218642776300,12.2957763671875,-1.872912883758545,0.08307767659425735,-0.04398229718208313
1732873218652807000,12.305806884765625,-2.1349740028381348,-0.06536258012056351,-0.8686503767967224
1732873218662765300,12.315765380859375,-2.2883012294769287,-0.09773843735456467,-1.2571606636047363
1732873218672797400,12.32579736328125,-2.37626576423645,-0.10995574295520782,-1.4440854787826538
1732873218682812000,12.33581201171875,-2.3829853534698486,-0.09468411654233932,-1.4257594347000122
1732873218692817700,12.345817626953124,-2.3127357959747314,-0.05314527451992035,-1.2137892246246338
1732873218702775000,12.355775146484374,-2.1844542026519775,-0.01710422709584236,-0.8533787727355957
1732873218712806700,12.365806640625,-2.0164661407470703,-0.00427605677396059,-0.41722095012664795
1732873218722794200,12.375794189453124,-1.7440202236175537,-0.015882495790719986,0.20341812074184418
1732873218732795600,12.385795654296874,-1.6029103994369507,-0.036041051149368286,0.485027015209198
1732873218742783500,12.395783447265625,-1.513113260269165,-0.05742133408784866,0.6236934065818787
1732873218752815000,12.405815185546874,-1.472796082496643,-0.08307767659425735,0.6340781450271606
1732873218762772700,12.415772705078124,-1.4752395153045654,-0.09651670604944229,0.5668829679489136
1732873218772803600,12.425803466796875,-1.503339409828186,-0.09162978827953339,0.46242499351501465
1732873218782792000,12.4357919921875,-1.5436564683914185,-0.07208210229873657,0.35185837745666504
