time,seconds_elapsed,z,y,x
1732873206542139100,0.19513916015625,10.280701637268066,1.381454348564148,-0.3734954595565796
1732873206552246000,0.20524609375,10.287884712219238,1.3934253454208374,-0.36152446269989014
1732873206562256000,0.215255859375,10.24000072479248,1.3982137441635132,-0.3447650372982025
1732873206572235000,0.225235107421875,10.077195167541504,1.436521053314209,-0.2944868206977844
1732873206582244900,0.235244873046875,9.93354320526123,1.4939818382263184,-0.2825157940387726
1732873206592254500,0.24525439453125,9.818621635437012,1.5442601442337036,-0.26336219906806946
1732873206602233900,0.25523388671875,9.622296333312988,1.5729905366897583,-0.22266076505184174
1732873206612243700,0.26524365234375,9.363722801208496,1.577778935432434,-0.27054479718208313
1732873206622253300,0.27525341796875,9.26795482635498,1.6519991159439087,-0.3447650372982025
1732873206632232400,0.285232421875,9.363722801208496,1.656787633895874,-0.35434186458587646
1732873206642242300,0.2952421875,9.521739959716797,1.6208745241165161,-0.304063618183136
1732873206652252200,0.305252197265625,9.734824180603027,1.599326729774475,-0.31842881441116333
1732873206662231300,0.315231201171875,9.797073364257812,1.5179238319396973,-0.33279404044151306
1732873206672241200,0.3252412109375,9.849745750427246,1.4508862495422363,-0.36152446269989014
1732873206682251000,0.3352509765625,9.897629737854004,1.4389152526855469,-0.38546648621559143
1732873206692260900,0.3452607421875,9.8784761428833,1.5107412338256836,-0.49320554733276367
1732873206702240000,0.355239990234375,9.761159896850586,1.5538369417190552,-0.5985504388809204
1732873206712249600,0.36524951171875,9.715670585632324,1.5514427423477173,-0.5195417404174805
1732873206722259500,0.375259521484375,9.57441234588623,1.522712230682373,-0.35913026332855225
1732873206732238600,0.385238525390625,9.528923034667969,1.5490485429763794,-0.38546648621559143
1732873206742248400,0.39524853515625,9.514557838439941,1.5945383310317993,-0.3663128614425659
1732873206752258300,0.40525830078125,9.516951560974121,1.6184803247451782,-0.31842881441116333
1732873206762237400,0.415237548828125,9.524134635925293,1.6735470294952393,-0.2825157940387726
1732873206772247300,0.425247314453125,9.548076629638672,1.7310078144073486,-0.3016694188117981
1732873206782257200,0.435257080078125,9.495404243469238,1.6903064250946045,-0.24660277366638184
1732873206792236300,0.445236328125,9.485827445983887,1.6950948238372803,-0.2537853717803955
1732873206802246000,0.455245849609375,9.5624418258667,1.680729627609253,-0.3471592366695404
1732873206812255700,0.465255859375,9.658209800720215,1.6400281190872192,-0.31842881441116333
1732873206822235000,0.47523486328125,9.794678688049316,1.5969325304031372,-0.3064578175544739
1732873206832244700,0.48524462890625,9.998186111450195,1.5322890281677246,-0.33039984107017517
1732873206842254600,0.495254638671875,10.091560363769531,1.501164436340332,-0.2777273952960968
1732873206852233700,0.505233642578125,10.096348762512207,1.5059528350830078,-0.2968810200691223
1732873206862243600,0.51524365234375,10.02452278137207,1.5083470344543457,-0.33039984107017517
1732873206872253400,0.52525341796875,9.825803756713867,1.5298948287963867,-0.3447650372982025
1732873206882232600,0.535232666015625,9.703699111938477,1.5753847360610962,-0.3280056416988373
1732873206892242400,0.545242431640625,9.59835433959961,1.580173134803772,-0.26096799969673157
1732873206902252000,0.555251953125,9.552865028381348,1.6208745241165161,-0.2801215946674347
1732873206912231200,0.565231201171875,9.50737476348877,1.6136919260025024,-0.3064578175544739
1732873206922241000,0.575240966796875,9.545681953430176,1.6280571222305298,-0.24899697303771973
1732873206932251000,0.5852509765625,9.615114212036133,1.6328455209732056,-0.26575639843940735
1732873206942260500,0.595260498046875,9.579200744628906,1.6328455209732056,-0.33039984107017517
1732873206952239900,0.605239990234375,9.567230224609375,1.6160861253738403,-0.3495534360408783
1732873206962249700,0.615249755859375,9.643844604492188,1.6328455209732056,-0.3423708379268646
1732873206972259600,0.625259521484375,9.651026725769043,1.6184803247451782,-0.31842881441116333
1732873206982238700,0.63523876953125,9.5624418258667,1.6112977266311646,-0.272938996553421
1732873206992248300,0.645248291015625,9.521739959716797,1.656787633895874,-0.3232172429561615
1732873207002258200,0.655258056640625,9.457097053527832,1.6136919260025024,-0.2346317619085312
1732873207012237300,0.6652373046875,9.425971984863281,1.599326729774475,-0.2322375625371933
1732873207022247200,0.6752470703125,9.41400146484375,1.5897499322891235,-0.31603461503982544
1732873207032257000,0.685257080078125,9.579200744628906,1.5610195398330688,-0.33039984107017517
1732873207042236200,0.695236083984375,9.739612579345703,1.5442601442337036,-0.3519476354122162
1732873207052246000,0.70524609375,9.86889934539795,1.5107412338256836,-0.4381389021873474
1732873207062255900,0.715255859375,9.945513725280762,1.45806884765625,-0.3663128614425659
1732873207072235000,0.725235107421875,10.022128105163574,1.436521053314209,-0.31603461503982544
1732873207082244900,0.735244873046875,10.062829971313477,1.4748282432556152,-0.3519476354122162
1732873207092254700,0.745254638671875,10.036493301391602,1.501164436340332,-0.3758896589279175
1732873207102233900,0.75523388671875,9.947908401489258,1.5298948287963867,-0.35673606395721436
1732873207112243500,0.765243408203125,9.780313491821289,1.5921441316604614,-0.363918662071228
1732873207122253300,0.77525341796875,9.648633003234863,1.6208745241165161,-0.3687070608139038
1732873207132232400,0.785232421875,9.533711433410645,1.6663644313812256,-0.3734954595565796
1732873207142242300,0.7952421875,9.481039047241211,1.6639702320098877,-0.38546648621559143
1732873207152252200,0.805252197265625,9.466673851013184,1.6663644313812256,-0.4357447028160095
1732873207162231300,0.815231201171875,9.543288230895996,1.6663644313812256,-0.4908113479614258
1732873207172241200,0.8252412109375,9.593565940856934,1.6831238269805908,-0.5099649429321289
1732873207182251000,0.8352509765625,9.579200744628906,1.6352397203445435,-0.4836287498474121
1732873207192260600,0.845260498046875,9.588777542114258,1.5753847360610962,-0.4189853072166443
1732873207202240000,0.855239990234375,9.593565940856934,1.5490485429763794,-0.40222588181495667
1732873207212249600,0.86524951171875,9.550470352172852,1.5203180313110352,-0.45250412821769714
1732873207222259500,0.875259521484375,9.66299819946289,1.4939818382263184,-0.395043283700943
1732873207232238600,0.885238525390625,9.792284965515137,1.5059528350830078,-0.28969839215278625
1732873207242248400,0.89524853515625,9.876082420349121,1.5083470344543457,-0.33279404044151306
1732873207252258300,0.90525830078125,9.897629737854004,1.5155296325683594,-0.3471592366695404
1732873207262237400,0.915237548828125,9.914389610290527,1.4987702369689941,-0.3519476354122162
1732873207272247300,0.925247314453125,9.909601211547852,1.5394717454910278,-0.40940847992897034
1732873207282257200,0.935257080078125,9.744400978088379,1.5658079385757446,-0.37828385829925537
1732873207292419300,0.94541943359375,9.713275909423828,1.577778935432434,-0.3974374830722809
1732873207302246100,0.95524609375,9.75397777557373,1.6089035272598267,-0.31364041566848755
1732873207312255700,0.965255859375,9.770736694335938,1.656787633895874,-0.2753331959247589
1732873207322235000,0.97523486328125,9.797073364257812,1.6280571222305298,-0.2106897532939911
1732873207332244700,0.98524462890625,9.840168952941895,1.558625340461731,-0.06703764945268631
1732873207342254600,0.995254638671875,9.832986831665039,1.5705963373184204,-0.15322890877723694
1732873207352233700,1.005233642578125,9.691728591918945,1.5298948287963867,-0.11252748221158981
1732873207362243600,1.01524365234375,9.634267807006836,1.5490485429763794,0.07182604819536209
1732873207372253400,1.02525341796875,9.5624418258667,1.625662922859192,0.16519992053508759
1732873207382232600,1.035232666015625,9.433155059814453,1.6927006244659424,0.2968810200691223
1732873207392242400,1.045242431640625,9.35654067993164,1.7932571172714233,0.43335050344467163
1732873207402252000,1.055251953125,9.38048267364502,1.8124107122421265,0.6967126727104187
1732873207412231200,1.065231201171875,9.457097053527832,1.8052281141281128,0.9720458984375
1732873207422241000,1.075240966796875,9.569623947143555,1.6903064250946045,1.400607943534851
1732873207432251000,1.0852509765625,9.6989107131958,1.6687586307525635,1.7357962131500244
1732873207442260700,1.0952607421875,9.823410034179688,1.6496049165725708,1.8842366933822632
1732873207452240000,1.105239990234375,9.911994934082031,1.6112977266311646,2.0231003761291504
1732873207462249700,1.115249755859375,10.014945983886719,1.5322890281677246,2.183511972427368
1732873207472259600,1.125259521484375,10.041281700134277,1.45806884765625,2.2002713680267334
1732873207482238700,1.13523876953125,10.0580415725708,1.357512354850769,2.2409727573394775
1732873207492248300,1.145248291015625,9.971850395202637,1.2186486721038818,2.3295583724975586
1732873207502258200,1.155258056640625,9.971850395202637,1.1779472827911377,2.3726539611816406
1732873207512237300,1.1652373046875,9.99339771270752,1.1468225717544556,2.367865562438965
1732873207522247200,1.1752470703125,10.022128105163574,1.091755986213684,2.3104045391082764
1732873207532257000,1.185257080078125,9.971850395202637,1.0223240852355957,2.31758713722229
1732873207542236200,1.195236083984375,9.888052940368652,1.0031704902648926,2.3319525718688965
1732873207552246000,1.20524609375,9.770736694335938,0.950498104095459,2.322375535964966
1732873207562256000,1.215255859375,9.677363395690918,0.9600749015808105,2.382230758666992
1732873207572235000,1.225235107421875,9.576807022094727,0.9648633003234863,2.451662540435791
1732873207582244900,1.235244873046875,9.481039047241211,1.0103530883789062,2.5953147411346436
1732873207592254700,1.245254638671875,9.435548782348633,1.0606313943862915,2.676717519760132
1732873207602233900,1.25523388671875,9.390059471130371,1.1252747774124146,2.7437551021575928
1732873207612243700,1.26524365234375,9.327810287475586,1.216254472732544,2.779668092727661
1732873207622253300,1.27525341796875,9.141061782836914,1.3239935636520386,2.7006595134735107
1732873207632232400,1.285232421875,9.035717010498047,1.3479355573654175,2.537853717803955
1732873207642242300,1.2952421875,8.987833023071289,1.2401964664459229,2.3511061668395996
1732873207652252200,1.305252197265625,9.0859956741333,1.1228805780410767,2.1308395862579346
1732873207662231300,1.315231201171875,9.452308654785156,0.950498104095459,1.86508309841156
1732873207672241200,1.3252412109375,9.876082420349121,0.7805097699165344,1.5729905366897583
1732873207682251000,1.3352509765625,10.266336441040039,0.6344634294509888,1.237802267074585
1732873207692260900,1.3452607421875,10.520122528076172,0.5841852426528931,1.048660397529602
1732873207702240000,1.355239990234375,10.54406452178955,0.5650315880775452,0.9792284965515137
1732873207712249600,1.36524951171875,10.256759643554688,0.6153098344802856,0.9097966551780701
1732873207722259500,1.375259521484375,9.873687744140625,0.6703764796257019,0.9289502501487732
1732873207732238600,1.385238525390625,9.550470352172852,0.8307880163192749,0.8355764150619507
1732873207742248400,1.39524853515625,9.27034854888916,0.8451532125473022,0.8188169598579407
1732873207752258300,1.40525830078125,9.11233139038086,0.7829039692878723,0.8810662031173706
1732873207762237400,1.415237548828125,9.167398452758789,0.6751648783683777,0.8834604024887085
1732873207772247300,1.425247314453125,9.437943458557129,0.545877993106842,0.8978256583213806
1732873207782257200,1.435257080078125,9.911994934082031,0.49320554733276367,0.8667010068893433
1732873207792236300,1.445236328125,10.488997459411621,0.4836287498474121,0.8978256583213806
1732873207802246000,1.455245849609375,10.857705116271973,0.5315127968788147,0.8786720037460327
1732873207812255700,1.465255859375,10.982203483581543,0.608127236366272,0.7015010714530945
1732873207822235000,1.47523486328125,10.879252433776855,0.524330198764801,0.31124621629714966
1732873207832244700,1.48524462890625,10.78587818145752,0.33758243918418884,-0.040701430290937424
1732873207842254600,1.495254638671875,10.737994194030762,0.11252748221158981,-0.2585737705230713
1732873207852233700,1.505233642578125,10.975020408630371,0.031124621629714966,-0.3878606855869293
1732873207862243600,1.51524365234375,11.221623420715332,-0.1628057211637497,-0.7182605266571045
1732873207872253400,1.52525341796875,11.552022933959961,-0.3064578175544739,-0.9840168952941895
1732873207882232600,1.535232666015625,11.820174217224121,-0.5195417404174805,-1.278503656387329
1732873207892242400,1.545242431640625,11.848904609680176,-0.8044517636299133,-1.5729905366897583
1732873207902252000,1.555251953125,11.559206008911133,-1.0965443849563599,-1.8842366933822632
1732873207912231200,1.565231201171875,11.18092155456543,-1.194706678390503,-2.0614075660705566
1732873207922241000,1.575240966796875,10.826580047607422,-1.1348515748977661,-1.9057846069335938
1732873207932251000,1.5852509765625,10.417171478271484,-0.9768342971801758,-1.6328455209732056
1732873207942260500,1.595260498046875,10.053253173828125,-0.8355764150619507,-1.3958195447921753
1732873207952239900,1.605239990234375,9.648633003234863,-0.5985504388809204,-1.235408067703247
1732873207962249700,1.615249755859375,9.255983352661133,-0.38546648621559143,-1.173158884048462
1732873207972259600,1.625259521484375,8.722076416015625,-0.18914192914962769,-1.1252747774124146
1732873207982238700,1.63523876953125,8.26239013671875,-0.021547814831137657,-1.1420341730117798
1732873207992248300,1.645248291015625,7.996633529663086,0.13168109953403473,-1.1037269830703735
1732873208002258200,1.655258056640625,8.034940719604492,0.2298433631658554,-1.039083480834961
1732873208012237300,1.6652373046875,8.315062522888184,0.31124621629714966,-1.048660397529602
1732873208022247200,1.6752470703125,8.71489429473877,0.2561795711517334,-0.9600749015808105
1732873208032257000,1.685257080078125,9.05247688293457,0.07182604819536209,-0.8331822156906128
1732873208042236200,1.695236083984375,9.440337181091309,-0.12449848651885986,-0.6607996821403503
1732873208052246000,1.70524609375,9.708487510681152,-0.2849099934101105,-0.586579442024231
1732873208062255900,1.715255859375,9.95748519897461,-0.5147533416748047,-0.608127236366272
1732873208072235000,1.725235107421875,9.986215591430664,-0.5626373887062073,-0.6919242739677429
1732873208082244900,1.735244873046875,10.079588890075684,-0.6200982332229614,-0.8164227604866028
1732873208092254700,1.745254638671875,10.213664054870605,-0.6248866319656372,-0.9528923034667969
1732873208102233900,1.75523388671875,10.335768699645996,-0.629675030708313,-1.139639973640442
1732873208112243500,1.765243408203125,10.299856185913086,-0.6153098344802856,-1.2737152576446533
1732873208122253300,1.77525341796875,10.137049674987793,-0.5123591423034668,-1.4508862495422363
1732873208132232400,1.785232421875,9.849745750427246,-0.26096799969673157,-1.5969325304031372
1732873208142242300,1.7952421875,9.44752025604248,-0.05267243832349777,-1.699883222579956
1732873208152252200,1.805252197265625,9.057265281677246,0.13407529890537262,-1.745373010635376
1732873208162231300,1.815231201171875,8.734047889709473,0.28730419278144836,-1.7884687185287476
1732873208172241200,1.8252412109375,8.585607528686523,0.4118026793003082,-1.86508309841156
1732873208182251000,1.8352509765625,8.518569946289062,0.47165772318840027,-1.9393033981323242
1732873208192260600,1.845260498046875,8.69334602355957,0.4118026793003082,-1.9800047874450684
1732873208202240000,1.855239990234375,9.05247688293457,0.3016694188117981,-2.0207061767578125
1732873208212249600,1.86524951171875,9.437943458557129,0.20111294090747833,-1.9153614044189453
1732873208222259500,1.875259521484375,9.78989028930664,0.05506663769483566,-1.8291701078414917
1732873208232238600,1.885238525390625,10.27591323852539,0.035913024097681046,-1.7597382068634033
1732873208242248400,1.89524853515625,10.72602367401123,0.10055647045373917,-1.7262194156646729
1732873208252258300,1.90525830078125,10.922348022460938,0.18914192914962769,-1.8315643072128296
1732873208262237400,1.915237548828125,10.84094524383545,0.272938996553421,-1.9297266006469727
1732873208272247300,1.925247314453125,10.606313705444336,0.3064578175544739,-2.032677173614502
1732873208282257200,1.935257080078125,10.371682167053223,0.38546648621559143,-2.205059766769409
1732873208292236300,1.945236328125,10.319009780883789,0.37828385829925537,-2.300827741622925
1732873208302246100,1.95524609375,10.402806282043457,0.3471592366695404,-2.33913516998291
1732873208312255700,1.965255859375,10.5344877243042,0.27054479718208313,-2.406172752380371
1732873208322235000,1.97523486328125,10.680533409118652,0.31364041566848755,-2.4372973442077637
1732873208332244700,1.98524462890625,10.721235275268555,0.3711012601852417,-2.3080103397369385
1732873208342254600,1.995254638671875,10.579977035522461,0.43335050344467163,-1.9153614044189453
1732873208352233700,2.005233642578125,10.381258964538574,0.6057330369949341,-1.5921441316604614
1732873208362243600,2.01524365234375,10.211270332336426,0.7254431247711182,-1.3263877630233765
1732873208372253400,2.02525341796875,10.031704902648926,0.9169792532920837,-1.173158884048462
1732873208382232600,2.035232666015625,9.947908401489258,1.139639973640442,-1.0199298858642578
1732873208392242400,2.045242431640625,9.847352027893066,1.259350061416626,-0.9552865028381348
1732873208402252000,2.055251953125,9.739612579345703,1.3072341680526733,-0.9888052940368652
1732873208412231200,2.065231201171875,9.567230224609375,1.3479355573654175,-1.0582371950149536
1732873208422241000,2.075240966796875,9.485827445983887,1.2761094570159912,-1.194706678390503
1732873208432251000,2.0852509765625,9.454702377319336,1.2210428714752197,-1.5729905366897583
1732873208442260700,2.0952607421875,9.646238327026367,1.194706678390503,-1.8914192914962769
1732873208452240000,2.105239990234375,9.823410034179688,1.280897855758667,-2.3343467712402344
1732873208462249700,2.115249755859375,9.80904483795166,1.3287819623947144,-2.674323320388794
1732873208472259600,2.125259521484375,9.658209800720215,1.3311761617660522,-2.760514497756958
1732873208482238700,2.13523876953125,9.423578262329102,1.4173674583435059,-3.090914487838745
1732873208492248300,2.145248291015625,9.05247688293457,1.4269442558288574,-3.2561142444610596
1732873208502258200,2.155258056640625,8.56645393371582,1.37906014919281,-3.1076738834381104
1732873208512237600,2.165237548828125,8.286332130432129,1.3934253454208374,-3.0119056701660156
1732873208522247200,2.1752470703125,8.547300338745117,1.556231141090393,-2.8443117141723633
1732873208532257000,2.185257080078125,9.045293807983398,1.6065093278884888,-2.655169725418091
1732873208542236200,2.195236083984375,9.751583099365234,1.7262194156646729,-2.248155355453491
1732873208552246000,2.20524609375,10.381258964538574,1.9345149993896484,-1.8171991109848022
1732873208562256000,2.215255859375,10.8720703125,2.252943754196167,-1.4173674583435059
1732873208572235000,2.225235107421875,11.135432243347168,2.3965959548950195,-1.2258312702178955
1732873208582244900,2.235244873046875,11.35809326171875,2.473210334777832,-1.0558429956436157
1732873208592254700,2.245254638671875,11.221623420715332,2.3319525718688965,-0.6105214357376099
1732873208602233900,2.25523388671875,10.802638053894043,2.1547815799713135,-0.35673606395721436
1732873208612243700,2.26524365234375,10.405200958251953,1.867477297782898,-0.2777273952960968
1732873208622253300,2.27525341796875,10.249577522277832,1.7310078144073486,-0.524330198764801
1732873208632232400,2.285232421875,10.196905136108398,1.678335428237915,-0.8547300100326538
1732873208642242300,2.2952421875,10.019734382629395,1.6304513216018677,-1.072602391242981
1732873208652252200,2.305252197265625,9.720458984375,1.6208745241165161,-1.0678139925003052
1732873208662231300,2.315231201171875,9.430760383605957,1.659181833267212,-0.8236053586006165
1732873208672241200,2.3252412109375,9.038111686706543,1.7741034030914307,-0.31364041566848755
1732873208682251000,2.3352509765625,8.5903959274292,1.9345149993896484,0.31364041566848755
1732873208692260900,2.3452607421875,8.327033042907715,2.1140801906585693,0.9624691009521484
1732873208702240000,2.355239990234375,8.17380428314209,2.255337953567505,1.5394717454910278
1732873208712249600,2.36524951171875,7.982268333435059,2.403778553009033,1.8746598958969116
1732873208722259500,2.375259521484375,7.884106159210205,2.535459518432617,2.1499931812286377
1732873208732238600,2.385238525390625,7.781155586242676,2.6408045291900635,2.3295583724975586
1732873208742248400,2.39524853515625,7.800309181213379,2.715024709701538,2.343923568725586
1732873208752258300,2.40525830078125,8.030152320861816,2.7772738933563232,2.2242133617401123
1732873208762237400,2.415237548828125,8.26478385925293,2.849100112915039,1.9249382019042969
1732873208772247300,2.425247314453125,8.415618896484375,3.066972494125366,1.6831238269805908
1732873208782257200,2.435257080078125,8.473079681396484,3.354276657104492,1.455674648284912
1732873208792236300,2.445236328125,8.40843677520752,3.598485231399536,1.2665326595306396
1732873208802246000,2.455245849609375,8.243236541748047,3.8067808151245117,1.3479355573654175
1732873208812255700,2.465255859375,7.99184513092041,4.022258758544922,1.3886369466781616
1732873208822235000,2.47523486328125,7.891288757324219,4.022258758544922,1.4963760375976562
1732873208832244700,2.48524462890625,8.236053466796875,3.794809579849243,1.8962076902389526
1732873208842254600,2.495254638671875,8.949525833129883,3.2848446369171143,1.4963760375976562
1732873208852233700,2.505233642578125,10.302249908447266,3.1028854846954346,0.9816226959228516
1732873208862243600,2.51524365234375,11.30302619934082,3.272873640060425,1.6663644313812256
1732873208872253400,2.52525341796875,12.172121047973633,2.913743495941162,1.9153614044189453
1732873208882232600,2.535232666015625,12.722787857055664,2.7030537128448486,1.3551181554794312
1732873208892242400,2.545242431640625,12.902353286743164,2.808398485183716,0.9864110946655273
1732873208902252000,2.555251953125,12.528857231140137,2.940079689025879,0.8571242094039917
1732873208912231200,2.565231201171875,11.640608787536621,2.9281086921691895,0.5554547905921936
1732873208922241000,2.575240966796875,10.711658477783203,2.9472622871398926,-0.05746084079146385
1732873208932251000,2.5852509765625,10.079588890075684,2.9712042808532715,-0.45250412821769714
1732873208942260700,2.5952607421875,9.452308654785156,2.892195701599121,-0.5530605912208557
1732873208952239900,2.605239990234375,9.004592895507812,2.808398485183716,-0.6847416758537292
1732873208962249700,2.615249755859375,8.671798706054688,2.717418909072876,-0.9265560507774353
1732873208972259600,2.625259521484375,8.616731643676758,2.5929205417633057,-1.2186486721038818
1732873208982238700,2.63523876953125,8.904036521911621,2.427720546722412,-1.6400281190872192
1732873208992248300,2.645248291015625,9.32302188873291,2.382230758666992,-1.7070658206939697
1732873209002258200,2.655258056640625,9.828198432922363,2.3965959548950195,-1.6687586307525635
1732873209012237600,2.665237548828125,10.139444351196289,2.652775526046753,-1.867477297782898
1732873209022247200,2.6752470703125,10.295066833496094,3.0526070594787598,-2.1380221843719482
1732873209032257000,2.685257080078125,10.271124839782715,3.160346269607544,-2.1092917919158936
1732873209042236200,2.695236083984375,10.271124839782715,2.7676970958709717,-1.7118542194366455
1732873209052246000,2.70524609375,10.764330863952637,2.1595699787139893,-1.1180921792984009
1732873209062255900,2.715255859375,11.91354751586914,1.5873557329177856,-1.0773907899856567
1732873209072235000,2.725235107421875,13.455413818359375,1.0295066833496094,-1.7357962131500244
1732873209082244900,2.735244873046875,14.712369918823242,0.7086837291717529,-2.5306711196899414
1732873209092254700,2.745254638671875,15.174449920654297,0.6440402865409851,-3.1507694721221924
1732873209102233900,2.75523388671875,14.346056938171387,0.7805097699165344,-3.2968156337738037
1732873209112243500,2.765243408203125,12.58152961730957,0.933738648891449,-3.023876667022705
1732873209122253300,2.77525341796875,10.565611839294434,0.8403648138046265,-2.3702597618103027
1732873209132232400,2.785232421875,8.020575523376465,0.9768342971801758,-1.7693150043487549
1732873209142242300,2.7952421875,6.155492782592773,1.1204863786697388,-1.194706678390503
1732873209152252200,2.805252197265625,5.348646640777588,1.1540051698684692,-0.8307880163192749
1732873209162231300,2.815231201171875,5.0254292488098145,1.235408067703247,-0.6943184733390808
1732873209172241200,2.8252412109375,5.351040840148926,1.3455413579940796,-0.8259995579719543
1732873209182251000,2.8352509765625,6.007051944732666,1.335964560508728,-1.1851298809051514
1732873209192260600,2.845260498046875,6.742072105407715,1.3024457693099976,-1.3742717504501343
1732873209202240000,2.855239990234375,7.692570209503174,1.256955862045288,-1.436521053314209
1732873209212249600,2.86524951171875,8.501810073852539,1.2425906658172607,-1.3096283674240112
1732873209222259500,2.875259521484375,8.904036521911621,1.2856862545013428,-1.2713210582733154
1732873209232238600,2.885238525390625,8.959102630615234,1.2952631711959839,-0.9959878921508789
1732873209242248400,2.89524853515625,8.954314231872559,1.4676456451416016,-0.5626373887062073
1732873209252258300,2.90525830078125,8.724471092224121,1.5849615335464478,-0.2968810200691223
1732873209262237400,2.915237548828125,8.56884765625,1.6280571222305298,-0.10534487664699554
1732873209272247300,2.925247314453125,8.403648376464844,1.7357962131500244,-0.10773907601833344
1732873209282257200,2.935257080078125,8.243236541748047,1.8195933103561401,-0.12210428714752197
1732873209292236300,2.945236328125,8.164227485656738,1.9512743949890137,-0.2322375625371933
1732873209302246100,2.95524609375,8.183381080627441,2.1499931812286377,-0.29209262132644653
1732873209312255700,2.965255859375,8.38688850402832,2.387019157409668,-0.28969839215278625
1732873209322235000,2.97523486328125,8.645462036132812,2.5330653190612793,-0.2849099934101105
1732873209332244700,2.98524462890625,8.832210540771484,2.7317841053009033,-0.3974374830722809
1732873209342254600,2.995254638671875,8.939949035644531,2.892195701599121,-0.507570743560791
1732873209352233700,3.005233642578125,8.932766914367676,2.896984100341797,-0.5913678407669067
1732873209362243600,3.01524365234375,9.040505409240723,2.875436305999756,-0.8068459630012512
1732873209372253400,3.02525341796875,9.299078941345215,2.7724854946136475,-0.9911994934082031
1732873209382232600,3.035232666015625,9.624691009521484,2.612074136734009,-1.213860273361206
1732873209392242400,3.045242431640625,9.981427192687988,2.408566951751709,-1.3718775510787964
1732873209402252000,3.055251953125,10.381258964538574,2.322375535964966,-1.4484920501708984
1732873209412231200,3.065231201171875,10.527304649353027,2.296039342880249,-1.4987702369689941
1732873209422241000,3.075240966796875,10.311826705932617,2.298433542251587,-1.4437036514282227
1732873209432251000,3.0852509765625,9.856928825378418,2.432508945465088,-1.400607943534851
1732873209442260700,3.0952607421875,9.059659004211426,2.5929205417633057,-1.2282254695892334
1732873209452240000,3.105239990234375,8.528146743774414,2.5522189140319824,-1.1013327836990356
1732873209462249700,3.115249755859375,8.753201484680176,2.8155810832977295,-1.235408067703247
1732873209472259600,3.125259521484375,8.44195556640625,2.408566951751709,-1.0319008827209473
1732873209482238700,3.13523876953125,8.176198959350586,2.054224967956543,-0.6727706789970398
1732873209492248300,3.145248291015625,8.683769226074219,2.5067291259765625,-1.0055646896362305
1732873209502258200,3.155258056640625,9.074024200439453,2.5785553455352783,-1.1492167711257935
1732873209512237600,3.165237548828125,9.332598686218262,2.1811177730560303,-0.7781155705451965
1732873209522247200,3.1752470703125,9.433155059814453,2.248155355453491,-0.7661445140838623
1732873209532257000,3.185257080078125,9.653421401977539,2.1978771686553955,-0.7206547260284424
1732873209542236200,3.195236083984375,10.113107681274414,1.9632453918457031,-0.2777273952960968
1732873209552246000,3.20524609375,11.104307174682617,1.8148049116134644,0.47165772318840027
1732873209562256000,3.215255859375,12.15057373046875,1.723825216293335,0.4429273009300232
1732873209572235000,3.225235107421875,13.103466033935547,1.5897499322891235,-0.040701430290937424
1732873209582244900,3.235244873046875,13.895946502685547,1.213860273361206,-0.11252748221158981
1732873209592254700,3.245254638671875,14.501679420471191,0.8212111592292786,0.22026655077934265
1732873209602233900,3.25523388671875,15.179238319396973,0.47884035110473633,0.7972691655158997
1732873209612243700,3.26524365234375,15.46414852142334,0.37828385829925537,1.115697979927063
1732873209622253300,3.27525341796875,15.421052932739258,0.3663128614425659,1.45806884765625
1732873209632232400,3.285232421875,15.150507926940918,0.4429273009300232,1.6376339197158813
1732873209642242300,3.2952421875,14.513650894165039,0.5051765441894531,1.41257905960083
1732873209652252200,3.305252197265625,13.91510009765625,0.44532153010368347,1.1252747774124146
1732873209662231300,3.315231201171875,13.385981559753418,0.21547815203666687,1.0031704902648926
1732873209672241200,3.3252412109375,12.919112205505371,0.06224924325942993,0.9481038451194763
1732873209682251000,3.3352509765625,11.882423400878906,-0.2537853717803955,1.3215993642807007
1732873209692260900,3.3452607421875,11.106701850891113,-0.42377370595932007,0.31603461503982544
1732873209702240000,3.355239990234375,10.44350814819336,-0.6033388376235962,0.40940847992897034
1732873209712249600,3.36524951171875,9.48343276977539,-0.48602294921875,0.9768342971801758
1732873209722259500,3.375259521484375,8.389283180236816,-0.2537853717803955,1.45806884765625
1732873209732238600,3.385238525390625,6.825869083404541,0.004788403399288654,1.5945383310317993
1732873209742248400,3.39524853515625,5.453991413116455,0.19153612852096558,1.5059528350830078
1732873209752258300,3.40525830078125,4.412513732910156,0.6536170840263367,1.213860273361206
1732873209762237400,3.415237548828125,3.8067808151245117,1.1755530834197998,0.7996633648872375
1732873209772247300,3.425247314453125,3.9217023849487305,1.436521053314209,0.7445967197418213
1732873209782257200,3.435257080078125,4.829104900360107,1.3670891523361206,1.015141487121582
1732873209792236300,3.445236328125,7.005434036254883,0.5195417404174805,1.5705963373184204
1732873209802246000,3.455245849609375,8.772355079650879,0.0694318488240242,0.8858546018600464
1732873209812255700,3.465255859375,9.5624418258667,0.016759412363171577,0.363918662071228
1732873209822235000,3.47523486328125,9.93354320526123,0.004788403399288654,0.28730419278144836
1732873209832244700,3.48524462890625,9.785101890563965,0.29209262132644653,1.0007762908935547
1732873209842254600,3.495254638671875,9.306262016296387,0.2585737705230713,0.9241618514060974
1732873209852233700,3.505233642578125,9.102754592895508,0.3471592366695404,-0.3064578175544739
1732873209862243600,3.51524365234375,8.877699851989746,0.6105214357376099,-1.9823989868164062
1732873209872253400,3.52525341796875,8.662221908569336,0.8930372595787048,-2.8850131034851074
1732873209882232600,3.535232666015625,8.276755332946777,1.3048399686813354,-3.1675288677215576
1732873209892242400,3.545242431640625,7.9631147384643555,1.824381709098816,-2.3726539611816406
1732873209902252000,3.555251953125,7.872135162353516,2.164358377456665,-1.1109095811843872
1732873209912231200,3.565231201171875,7.90086555480957,2.1045033931732178,-0.8690952062606812
1732873209922241000,3.575240966796875,7.920019149780273,2.212242364883423,-0.9433154463768005
1732873209932251000,3.5852509765625,7.762001991271973,2.300827741622925,-0.828393816947937
1732873209942260500,3.595260498046875,7.570465564727783,2.3056161403656006,-0.5482721924781799
1732873209952239900,3.605239990234375,7.266402244567871,2.1787235736846924,-0.272938996553421
1732873209962147300,3.615147216796875,7.343016624450684,2.0398597717285156,-0.19632454216480255
1732873209972157200,3.6251572265625,7.94635534286499,1.8986018896102905,-0.1604115068912506
1732873209982136300,3.63513623046875,8.892065048217773,1.7717092037200928,-0.22026655077934265
1732873209992146200,3.645146240234375,10.093954086303711,1.625662922859192,-0.3519476354122162
1732873210002155800,3.65515576171875,11.044452667236328,1.6112977266311646,-0.4189853072166443
1732873210012135200,3.66513525390625,11.805809020996094,1.5490485429763794,-0.35913026332855225
1732873210022144800,3.675144775390625,12.109871864318848,1.3838485479354858,-0.4381389021873474
1732873210032154600,3.685154541015625,12.157755851745605,1.3096283674240112,-0.4836287498474121
1732873210042133800,3.6951337890625,12.229581832885742,1.3479355573654175,-0.395043283700943
1732873210052143600,3.7051435546875,12.20803451538086,1.436521053314209,-0.29209262132644653
1732873210062153500,3.715153564453125,12.050017356872559,1.4700398445129395,-0.24181437492370605
1732873210072132600,3.725132568359375,12.090718269348145,1.4532804489135742,-0.2059013396501541
1732873210082142500,3.735142578125,12.18409252166748,1.4676456451416016,-0.22505496442317963
1732873210092152300,3.74515234375,12.346898078918457,1.4700398445129395,-0.33518823981285095
1732873210102131500,3.75513134765625,12.612654685974121,1.5442601442337036,-0.43335050344467163
1732873210112141000,3.76514111328125,12.825738906860352,1.6328455209732056,-0.608127236366272
1732873210122151000,3.77515087890625,13.077129364013672,1.778891921043396,-0.6224924325942993
1732873210132130000,3.785130126953125,13.038822174072266,1.8411411046981812,-0.6560112833976746
1732873210142140000,3.795139892578125,12.765883445739746,1.9752163887023926,-0.8140285611152649
1732873210152149800,3.805149658203125,12.231976509094238,2.3367409706115723,-1.2306196689605713
1732873210162129000,3.81512890625,11.54005241394043,2.609679937362671,-1.280897855758667
1732873210172138800,3.825138671875,10.618284225463867,2.6575639247894287,-1.0606313943862915
1732873210182148600,3.835148681640625,10.046070098876953,2.2457611560821533,-0.38067805767059326
1732873210192158200,3.845158203125,9.940725326538086,1.2689268589019775,0.21787235140800476
1732873210202137600,3.8551376953125,10.47702693939209,0.5051765441894531,-0.5315127968788147
1732873210212147200,3.865147216796875,11.686098098754883,-0.05746084079146385,-1.2258312702178955
1732873210222157000,3.875156982421875,12.78503704071045,-0.3711012601852417,-1.8100165128707886
1732873210232136200,3.88513623046875,12.931083679199219,-0.2513911724090576,-2.5258827209472656
1732873210242146000,3.89514599609375,11.892000198364258,0.21787235140800476,-2.9496564865112305
1732873210252156000,3.905156005859375,10.273519515991211,0.9864110946655273,-3.337517261505127
1732873210262135000,3.915135009765625,8.073247909545898,1.4269442558288574,-3.2848446369171143
1732873210272145000,3.925144775390625,5.875370979309082,1.4676456451416016,-2.537853717803955
1732873210282154800,3.93515478515625,3.687070608139038,1.5131354331970215,-1.3934253454208374
1732873210292134000,3.9451337890625,2.3271639347076416,1.501164436340332,-0.7541735172271729
1732873210302143700,3.955143798828125,1.922544002532959,1.4077905416488647,-0.5363011956214905
1732873210312153300,3.9651533203125,2.7533318996429443,1.2042834758758545,-0.6033388376235962
1732873210322132500,3.975132568359375,4.747702121734619,0.7996633648872375,-0.6512228846549988
1732873210332142300,3.985142333984375,6.998251438140869,0.5410895943641663,-0.7182605266571045
1732873210342152200,3.995152099609375,9.102754592895508,0.37828385829925537,-0.9385270476341248
1732873210352131300,4.00513134765625,10.433931350708008,0.3280056416988373,-1.1779472827911377
1732873210362141200,4.01514111328125,11.125855445861816,0.40940847992897034,-1.4293384552001953
1732873210372151000,4.025151123046875,11.42752456665039,0.706289529800415,-1.5059528350830078
1732873210382130200,4.035130126953125,11.154585838317871,0.9959878921508789,-1.4053963422775269
1732873210392140000,4.04514013671875,10.110713958740234,1.2258312702178955,-1.0031704902648926
1732873210402149600,4.055149658203125,9.038111686706543,1.455674648284912,-0.6488286852836609
1732873210412128800,4.065128662109375,8.10437297821045,1.7908629179000854,-0.22266076505184174
1732873210422138600,4.075138671875,7.702147006988525,2.094926595687866,0.05267243832349777
1732873210432148500,4.0851484375,7.618350028991699,2.3965959548950195,0.21547815203666687
1732873210442158300,4.095158447265625,7.726089000701904,2.542642116546631,0.21308395266532898
1732873210452137500,4.105137451171875,8.008605003356934,2.7988216876983643,-0.0454898327589035
1732873210462147300,4.115147216796875,8.305485725402832,2.875436305999756,-0.016759412363171577
1732873210472157200,4.1251572265625,8.427590370178223,2.985569477081299,-0.14844051003456116
1732873210482136300,4.13513623046875,8.662221908569336,2.985569477081299,-0.23702596127986908
1732873210492146200,4.145146240234375,8.884882926940918,2.9161376953125,-0.2106897532939911
1732873210502155800,4.15515576171875,9.32302188873291,2.849100112915039,-0.2513911724090576
1732873210512135200,4.16513525390625,9.828198432922363,2.6384103298187256,-0.26336219906806946
1732873210522144800,4.175144775390625,10.438719749450684,2.3247697353363037,-0.2513911724090576
1732873210532154600,4.185154541015625,11.0300874710083,2.030282974243164,-0.3711012601852417
1732873210542133800,4.1951337890625,11.535264015197754,1.920149803161621,-0.6177040338516235
1732873210552143600,4.2051435546875,11.738770484924316,1.8818424940109253,-0.6919242739677429
1732873210562153500,4.215153564453125,11.635820388793945,1.8363527059555054,-0.5674257874488831
1732873210572132600,4.225132568359375,11.252747535705566,1.843535304069519,-0.2322375625371933
1732873210582142500,4.235142578125,10.828974723815918,1.900996208190918,0.17956513166427612
1732873210592152300,4.24515234375,10.299856185913086,2.027888774871826,0.4668693244457245
1732873210602131500,4.25513134765625,10.02452278137207,2.341529369354248,0.5722141861915588
1732873210612141300,4.265141357421875,9.852140426635742,2.8227639198303223,0.5099649429321289
1732873210622151000,4.27515087890625,9.600749015808105,3.0861260890960693,0.3734954595565796
1732873210632130000,4.285130126953125,9.133879661560059,2.7126305103302,0.5315127968788147
1732873210642140000,4.295139892578125,8.882488250732422,2.0207061767578125,1.015141487121582
1732873210652149800,4.305149658203125,9.402029991149902,1.623268723487854,1.3766659498214722
1732873210662129000,4.31512890625,10.35252857208252,1.4437036514282227,1.2976573705673218
1732873210672138800,4.325138671875,11.88002872467041,1.094150185585022,1.0845733880996704
1732873210682148600,4.335148681640625,13.445837020874023,0.35673606395721436,1.1468225717544556
1732873210692158500,4.345158447265625,14.532804489135742,-0.6488286852836609,1.278503656387329
1732873210702137600,4.3551376953125,15.547945976257324,-1.2880805730819702,1.0582371950149536
1732873210712147200,4.365147216796875,16.187198638916016,-1.4628572463989258,0.4596867263317108
1732873210722157000,4.375156982421875,16.254236221313477,-1.4053963422775269,-0.304063618183136
1732873210732136200,4.38513623046875,15.440206527709961,-1.2617442607879639,-0.5602431893348694
1732873210742146000,4.39514599609375,13.457807540893555,-0.9002198576927185,-0.05027823522686958
1732873210752156000,4.405156005859375,11.298237800598145,-0.4189853072166443,0.5051765441894531
1732873210762135000,4.415135009765625,8.98543930053711,0.040701430290937424,1.1037269830703735
1732873210772145000,4.425144775390625,7.058106422424316,0.4644751250743866,1.359906554222107
1732873210782154800,4.43515478515625,5.353435039520264,1.0103530883789062,1.4317326545715332
1732873210792134000,4.4451337890625,4.446032524108887,1.4652514457702637,1.5131354331970215
1732873210802143500,4.4551435546875,4.084507942199707,1.7262194156646729,1.3694833517074585
1732873210812153300,4.4651533203125,4.5154643058776855,1.8100165128707886,1.1827356815338135
1732873210822132500,4.475132568359375,5.485116004943848,1.7142484188079834,0.9983820915222168
1732873210832142300,4.485142333984375,6.641515731811523,1.4748282432556152,0.6703764796257019
1732873210842152200,4.495152099609375,7.630321025848389,1.1994950771331787,0.43095630407333374
1732873210852131300,4.50513134765625,8.506598472595215,0.912190854549408,0.1364694982767105
1732873210862141200,4.51514111328125,9.124302864074707,0.7852981686592102,-0.1364694982767105
1732873210872151000,4.525151123046875,9.57201862335205,0.7637503147125244,-0.47165772318840027
1732873210882130200,4.535130126953125,9.792284965515137,0.7876923680305481,-0.6967126727104187
1732873210892140000,4.54514013671875,9.782708168029785,0.8690952062606812,-0.8259995579719543
1732873210902149600,4.555149658203125,9.62947940826416,1.05105459690094,-0.8068459630012512
1732873210912129000,4.56512890625,9.387664794921875,1.3551181554794312,-0.7469909191131592
1732873210922138600,4.575138671875,8.884882926940918,1.6639702320098877,-0.6775590777397156
1732873210932148500,4.5851484375,8.346187591552734,1.8746598958969116,-0.6057330369949341
1732873210942158000,4.595157958984375,7.850587368011475,2.1116859912872314,-0.5482721924781799
1732873210952137500,4.605137451171875,7.532158374786377,2.2361843585968018,-0.48602294921875
1732873210962147300,4.615147216796875,7.465120792388916,2.3582887649536133,-0.49799394607543945
1732873210972157200,4.6251572265625,7.524975776672363,2.363077163696289,-0.5195417404174805
1732873210982136300,4.63513623046875,7.781155586242676,2.3702597618103027,-0.608127236366272
1732873210992146200,4.645146240234375,8.176198959350586,2.4636335372924805,-0.646434485912323
1732873211002155800,4.65515576171875,8.734047889709473,2.4684219360351562,-0.569819986820221
1732873211012135200,4.66513525390625,9.028534889221191,2.367865562438965,-0.47405192255973816
1732873211022144800,4.675144775390625,9.277531623840332,2.22660756111145,-0.15801730751991272
1732873211032154600,4.685154541015625,9.622296333312988,2.0877439975738525,0.24660277366638184
1732873211042133800,4.6951337890625,9.904812812805176,2.03507137298584,0.40222588181495667
1732873211052143600,4.7051435546875,10.290278434753418,2.056619167327881,0.44771572947502136
1732873211062153500,4.715153564453125,10.493785858154297,2.1092917919158936,0.45010992884635925
1732873211072132600,4.725132568359375,10.486603736877441,2.255337953567505,0.42616790533065796
1732873211082142500,4.735142578125,10.345345497131348,2.451662540435791,0.3447650372982025
1732873211092152300,4.74515234375,10.153809547424316,2.6455929279327393,0.45489832758903503
1732873211102131500,4.75513134765625,9.955090522766113,2.63362193107605,0.5746083855628967
1732873211112141000,4.76514111328125,9.9000244140625,2.540247917175293,0.5985504388809204
1732873211122151000,4.77515087890625,10.204087257385254,2.449268341064453,0.42856210470199585
1732873211132130000,4.785130126953125,10.74996566772461,2.2218191623687744,0.28969839215278625
1732873211142140000,4.795139892578125,11.487380027770996,1.9752163887023926,-0.014365210197865963
1732873211152149800,4.805149658203125,12.172121047973633,1.745373010635376,-0.2777273952960968
1732873211162129000,4.81512890625,12.799402236938477,1.4484920501708984,-0.5051765441894531
1732873211172138800,4.825138671875,13.053187370300293,1.2066776752471924,-0.6799532771110535
1732873211182148600,4.835148681640625,13.022063255310059,1.2713210582733154,-1.0821791887283325
1732873211192158200,4.845158203125,13.084312438964844,1.460463047027588,-1.2042834758758545
1732873211202137600,4.8551376953125,12.840104103088379,1.4460978507995605,-1.1851298809051514
1732873211212147200,4.865147216796875,12.217611312866211,1.0103530883789062,-0.9864110946655273
1732873211222157000,4.875156982421875,11.382035255432129,0.24899697303771973,-0.790086567401886
1732873211232136200,4.88513623046875,11.099518775939941,-0.24420857429504395,-0.8259995579719543
1732873211242146000,4.89514599609375,11.461043357849121,-0.3734954595565796,-1.1324573755264282
1732873211252156000,4.905156005859375,12.239158630371094,-0.0933738648891449,-1.6903064250946045
1732873211262135000,4.915135009765625,12.509703636169434,0.17717093229293823,-2.075772762298584
1732873211272145000,4.925144775390625,11.678915977478027,0.31842881441116333,-1.8746598958969116
1732873211282154800,4.93515478515625,10.486603736877441,0.33518823981285095,-1.4963760375976562
1732873211292134000,4.9451337890625,9.119514465332031,0.24181437492370605,-0.9241618514060974
1732873211302143700,4.955143798828125,8.11634349822998,0.10295066982507706,-0.4213795065879822
1732873211312153300,4.9651533203125,7.539340972900391,0,-0.17717093229293823
1732873211322132500,4.975132568359375,7.599195957183838,0.0071826050989329815,-0.2801215946674347
1732873211332142300,4.985142333984375,8.154650688171387,0.21308395266532898,-0.5554547905921936
1732873211342152200,4.995152099609375,8.729259490966797,0.4213795065879822,-0.8140285611152649
1732873211352131300,5.00513134765625,9.275136947631836,0.6607996821403503,-0.7852981686592102
1732873211362141200,5.01514111328125,9.332598686218262,0.871489405632019,-0.7206547260284424
1732873211372151000,5.025151123046875,9.062053680419922,1.0606313943862915,-0.5363011956214905
1732873211382130200,5.035130126953125,8.537723541259766,1.278503656387329,-0.22026655077934265
1732873211392140000,5.04514013671875,8.037335395812988,1.479616641998291,-0.028730420395731926
1732873211402149600,5.055149658203125,7.632715225219727,1.6759412288665771,0.13168109953403473
1732873211412129000,5.06512890625,7.347805023193359,1.8363527059555054,0.2106897532939911
1732873211422138600,5.075138671875,7.094019412994385,2.0254945755004883,0.1843535304069519
1732873211432148500,5.0851484375,6.979097843170166,2.1811177730560303,0.019153613597154617
1732873211442158300,5.095158447265625,6.926425457000732,2.293645143508911,-0.1628057211637497
1732873211452137500,5.105137451171875,6.916848659515381,2.31758713722229,-0.2585737705230713
1732873211462147300,5.115147216796875,7.050923824310303,2.2673089504241943,-0.23942017555236816
1732873211472157200,5.1251572265625,7.343016624450684,2.188300371170044,-0.23942017555236816
1732873211482136300,5.13513623046875,7.647080421447754,2.1068975925445557,-0.272938996553421
1732873211492146200,5.145146240234375,8.099584579467773,2.006340980529785,-0.3734954595565796
1732873211502155800,5.15515576171875,8.485051155090332,1.9081788063049316,-0.5315127968788147
1732873211512135200,5.16513525390625,8.892065048217773,1.8531121015548706,-0.6703764796257019
1732873211522145000,5.17514501953125,9.162610054016113,1.7812861204147339,-0.8020575642585754
1732873211532154600,5.185154541015625,9.318233489990234,1.659181833267212,-0.9050082564353943
1732873211542133800,5.1951337890625,9.296685218811035,1.6065093278884888,-0.8690952062606812
1732873211552143600,5.2051435546875,9.421183586120605,1.5705963373184204,-0.7589619159698486
1732873211562153500,5.215153564453125,9.588777542114258,1.6711528301239014,-0.6871358752250671
1732873211572132600,5.225132568359375,9.636661529541016,1.9369091987609863,-0.5626373887062073
1732873211582142500,5.235142578125,9.35893440246582,2.190694570541382,-0.3280056416988373
1732873211592152300,5.24515234375,9.160215377807617,2.3080103397369385,-0.15562310814857483
1732873211602131500,5.25513134765625,9.229647636413574,2.542642116546631,0.021547814831137657
1732873211612141300,5.265141357421875,9.390059471130371,2.4468741416931152,0.1412578970193863
1732873211622151000,5.27515087890625,9.93593692779541,2.5761611461639404,0.11971008777618408
1732873211632130000,5.285130126953125,10.704475402832031,2.6001031398773193,0.2944868206977844
1732873211642140000,5.295139892578125,11.492168426513672,2.719813108444214,0.2346317619085312
1732873211652149800,5.305149658203125,12.164938926696777,2.3942017555236816,0.2801215946674347
1732873211662129000,5.31512890625,12.57913589477539,1.7621324062347412,0.8020575642585754
1732873211672138800,5.325138671875,12.7946138381958,1.434126853942871,1.2713210582733154
1732873211682148600,5.335148681640625,13.160926818847656,1.4221558570861816,1.278503656387329
1732873211692158500,5.345158447265625,13.697227478027344,1.5083470344543457,0.9289502501487732
1732873211702137600,5.3551376953125,14.197615623474121,1.2186486721038818,0.9481038451194763
1732873211712147200,5.365147216796875,14.439430236816406,0.4213795065879822,1.2689268589019775
1732873211722157000,5.375156982421875,14.504074096679688,-0.42856210470199585,1.5418659448623657
1732873211732136200,5.38513623046875,14.693215370178223,-1.1348515748977661,1.4508862495422363
1732873211742146000,5.39514599609375,15.030797958374023,-1.316810965538025,1.0462661981582642
1732873211752156000,5.405156005859375,14.506467819213867,-1.1037269830703735,0.9552865028381348
1732873211762135000,5.415135009765625,13.141773223876953,-0.586579442024231,0.8164227604866028
1732873211772145000,5.425144775390625,11.166556358337402,0.1364694982767105,0.8834604024887085
1732873211782154800,5.43515478515625,9.157821655273438,0.5770025849342346,1.2880805730819702
1732873211792134000,5.4451337890625,6.856993675231934,0.8667010068893433,1.8171991109848022
1732873211802143500,5.4551435546875,4.975151062011719,1.1659762859344482,2.0638017654418945
1732873211812153300,5.4651533203125,3.9647979736328125,1.3000515699386597,2.3487119674682617
1732873211822132500,5.475132568359375,3.6128504276275635,1.2952631711959839,2.346317768096924
1732873211832142300,5.485142333984375,4.182670593261719,1.1492167711257935,2.1595699787139893
1732873211842152200,5.495152099609375,5.726930618286133,0.8547300100326538,1.6759412288665771
1732873211852131300,5.50513134765625,7.19936466217041,0.6560112833976746,1.194706678390503
1732873211862141200,5.51514111328125,8.439560890197754,0.5602431893348694,0.6703764796257019
1732873211872151000,5.525151123046875,9.07641887664795,0.6272808313369751,0.3064578175544739
1732873211882130200,5.535130126953125,9.124302864074707,0.6967126727104187,-0.028730420395731926
1732873211892140000,5.54514013671875,8.65743350982666,0.7589619159698486,-0.181959331035614
1732873211902149600,5.555149658203125,7.819462776184082,0.871489405632019,-0.3878606855869293
1732873211912129000,5.56512890625,7.129932880401611,1.0199298858642578,-0.4812345504760742
1732873211922138600,5.575138671875,6.789956092834473,1.2066776752471924,-0.4812345504760742
1732873211932148500,5.5851484375,6.71334171295166,1.5538369417190552,-0.5817909836769104
1732873211942158000,5.595157958984375,6.823474884033203,1.802833914756775,-0.7996633648872375
1732873211952137500,5.605137451171875,7.127538681030273,1.9776105880737305,-0.8858546018600464
1732873211962147300,5.615147216796875,7.47230339050293,2.1332337856292725,-0.9576807022094727
1732873211972157200,5.6251572265625,7.893682956695557,2.1523873805999756,-1.05105459690094
1732873211982136300,5.63513623046875,8.257601737976074,2.1763293743133545,-1.070208191871643
1732873211992146200,5.645146240234375,8.813055992126465,2.1811177730560303,-0.9169792532920837
1732873212002155800,5.65515576171875,9.263166427612305,2.051830768585205,-0.8188169598579407
1732873212012135200,5.66513525390625,9.787496566772461,2.011129379272461,-0.689530074596405
1732873212022144800,5.675144775390625,10.366893768310547,1.9393033981323242,-0.5770025849342346
1732873212032154600,5.685154541015625,10.812214851379395,1.8579005002975464,-0.4405331015586853
1732873212042133800,5.6951337890625,11.149797439575195,1.7549498081207275,-0.26815059781074524
1732873212052143600,5.7051435546875,11.295844078063965,1.6280571222305298,-0.019153613597154617
1732873212062153500,5.715153564453125,11.18092155456543,1.5873557329177856,0.1843535304069519
1732873212072132600,5.725132568359375,10.946290016174316,1.5873557329177856,0.23942017555236816
1732873212082142500,5.735142578125,10.63743782043457,1.7357962131500244,0.17956513166427612
1732873212092152300,5.74515234375,10.345345497131348,2.0183119773864746,0.08619125932455063
1732873212102131500,5.75513134765625,9.864110946655273,2.2170307636260986,0.011971008032560349
1732873212112141000,5.76514111328125,9.411606788635254,2.2864625453948975,0.08140286058187485
1732873212122151000,5.77515087890625,9.153033256530762,2.2601263523101807,0.21787235140800476
1732873212132130000,5.785130126953125,9.241618156433105,2.205059766769409,0.31842881441116333
1732873212142140000,5.795139892578125,9.557653427124023,2.075772762298584,0.43095630407333374
1732873212152149800,5.805149658203125,10.285490036010742,1.8076223134994507,0.4692635238170624
1732873212162129000,5.81512890625,11.113883972167969,1.3862427473068237,0.6033388376235962
1732873212172138800,5.825138671875,12.215216636657715,1.0223240852355957,0.6751648783683777
1732873212182148600,5.835148681640625,13.218387603759766,0.849941611289978,0.45010992884635925
1732873212192158200,5.845158203125,14.147337913513184,0.8810662031173706,0.12449848651885986
1732873212202137600,5.8551376953125,14.911087989807129,0.9457096457481384,-0.3687070608139038
1732873212212147200,5.865147216796875,15.33965015411377,1.6328455209732056,-0.7326257228851318
1732873212222157000,5.875156982421875,15.15769100189209,2.0422539710998535,-0.5123591423034668
1732873212232136200,5.88513623046875,13.886369705200195,1.9584569931030273,-0.22266076505184174
1732873212242146000,5.89514599609375,12.370840072631836,1.403002142906189,0.15322890877723694
1732873212252156000,5.905156005859375,11.434707641601562,0.5147533416748047,0.2106897532939911
1732873212262135000,5.915135009765625,11.475408554077148,-0.38546648621559143,-0.2346317619085312
1732873212272145000,5.925144775390625,12.524068832397461,-0.7374141216278076,-1.3287819623947144
1732873212282154800,5.93515478515625,13.989320755004883,-0.6488286852836609,-2.5474305152893066
1732873212292134000,5.9451337890625,14.470555305480957,-0.3711012601852417,-3.2321722507476807
1732873212302143500,5.9551435546875,13.57751750946045,-0.040701430290937424,-3.450044631958008
1732873212312153300,5.9651533203125,12.040440559387207,0.19632454216480255,-3.426102638244629
1732873212322132500,5.975132568359375,9.734824180603027,0.4429273009300232,-2.851494312286377
1732873212332142300,5.985142333984375,7.589619159698486,0.5889736413955688,-2.118868589401245
1732873212342152200,5.995152099609375,5.468356609344482,0.7110779285430908,-1.400607943534851
1732873212352131300,6.00513134765625,3.794809579849243,0.8379706144332886,-0.912190854549408
1732873212362141200,6.01514111328125,3.1483752727508545,0.9002198576927185,-0.7805097699165344
1732873212372151000,6.025151123046875,3.2082302570343018,0.912190854549408,-0.6560112833976746
1732873212382130200,6.035130126953125,4.005499362945557,0.811634361743927,-0.8738836050033569
1732873212392140000,6.04514013671875,5.564124584197998,0.7469909191131592,-1.1875240802764893
1732873212402149600,6.055149658203125,6.768408298492432,0.6009446382522583,-1.4293384552001953
1732873212412129000,6.06512890625,7.8098859786987305,0.42377370595932007,-1.522712230682373
1732873212422138600,6.075138671875,8.288725852966309,0.363918662071228,-1.534683346748352
1732873212432148500,6.0851484375,8.44434928894043,0.36152446269989014,-1.4652514457702637
1732873212442158000,6.095157958984375,8.370129585266113,0.43335050344467163,-1.3000515699386597
1732873212452137500,6.105137451171875,8.056488990783691,0.5817909836769104,-1.0678139925003052
1732873212462147300,6.115147216796875,7.769184589385986,0.7709329724311829,-0.8092401623725891
1732873212472157200,6.1251572265625,7.41484260559082,1.0079588890075684,-0.7086837291717529
1732873212482136300,6.13513623046875,7.173028469085693,1.2114660739898682,-0.5793967843055725
1732873212492146200,6.145146240234375,7.053318023681641,1.3431471586227417,-0.47405192255973816
1732873212502155800,6.15515576171875,7.151480674743652,1.5275006294250488,-0.33518823981285095
1732873212512135200,6.16513525390625,7.299921035766602,1.6879122257232666,-0.2537853717803955
1732873212522144800,6.175144775390625,7.51779317855835,1.9057846069335938,-0.19632454216480255
1732873212532154600,6.185154541015625,7.663839817047119,2.0805611610412598,-0.22505496442317963
1732873212542133800,6.1951337890625,7.979874134063721,2.1499931812286377,-0.1628057211637497
1732873212552143600,6.2051435546875,8.238448143005371,2.118868589401245,-0.033518824726343155
1732873212562153500,6.215153564453125,8.643068313598633,2.0925323963165283,0
1732873212572132600,6.225132568359375,9.198522567749023,2.0422539710998535,-0.028730420395731926
1732873212582142500,6.235142578125,9.761159896850586,1.821987509727478,-0.08140286058187485
1732873212592152300,6.24515234375,10.517727851867676,1.6639702320098877,-0.22744916379451752
1732873212602131500,6.25513134765625,11.24795913696289,1.5298948287963867,-0.44532153010368347
1732873212612141000,6.26514111328125,12.011710166931152,1.4700398445129395,-0.689530074596405
1732873212622151000,6.27515087890625,12.665327072143555,1.3766659498214722,-0.8020575642585754
1732873212632130000,6.285130126953125,13.239935874938965,1.3239935636520386,-0.7469909191131592
1732873212642140000,6.295139892578125,13.515268325805664,1.3311761617660522,-0.6871358752250671
1732873212652149800,6.305149658203125,13.55118179321289,1.4652514457702637,-0.6512228846549988
1732873212662129000,6.31512890625,13.474567413330078,1.599326729774475,-0.6775590777397156
1732873212672138800,6.325138671875,13.218387603759766,1.8626888990402222,-0.6272808313369751
1732873212682148600,6.335148681640625,12.823344230651855,2.126051187515259,-0.5722141861915588
1732873212692158200,6.345158203125,12.416330337524414,2.1356279850006104,-0.5267243981361389
1732873212702137600,6.3551376953125,12.021286964416504,1.8100165128707886,-0.14365209639072418
1732873212712147200,6.365147216796875,11.817779541015625,1.6903064250946045,0.2753331959247589
1732873212722157000,6.375156982421875,11.99255657196045,1.7334020137786865,0.6153098344802856
1732873212732136200,6.38513623046875,12.416330337524414,1.7980455160140991,0.6991068720817566
1732873212742146000,6.39514599609375,12.710816383361816,1.53707754611969,0.9002198576927185
1732873212752156000,6.405156005859375,12.428300857543945,0.9074024558067322,1.2713210582733154
1732873212762135000,6.415135009765625,12.36605167388916,0.05267243832349777,1.7357962131500244
1732873212772145000,6.425144775390625,13.03403377532959,-0.7829039692878723,1.8555063009262085
1732873212782154800,6.43515478515625,13.749900817871094,-1.5514427423477173,1.7357962131500244
1732873212792134000,6.4451337890625,14.511256217956543,-1.9345149993896484,1.5753847360610962
1732873212802143500,6.4551435546875,14.846445083618164,-1.9536685943603516,1.5275006294250488
1732873212812153300,6.4651533203125,14.147337913513184,-1.6041151285171509,1.501164436340332
1732873212822132500,6.475132568359375,12.84968090057373,-1.091755986213684,1.4508862495422363
1732873212832142300,6.485142333984375,10.706870079040527,-0.4884171485900879,1.580173134803772
1732873212842152200,6.495152099609375,8.667010307312012,0.031124621629714966,1.7046716213226318
1732873212852131300,6.50513134765625,6.540958881378174,0.5003881454467773,1.944091796875
1732873212862141200,6.51514111328125,5.032611846923828,0.8164227604866028,2.030282974243164
1732873212872151000,6.525151123046875,3.9887399673461914,1.1300631761550903,1.9488801956176758
1732873212882130200,6.535130126953125,3.6798880100250244,1.2880805730819702,1.7741034030914307
1732873212892140000,6.54514013671875,3.97916316986084,1.414973258972168,1.4101848602294922
1732873212902149600,6.555149658203125,4.967968463897705,1.5107412338256836,0.8547300100326538
1732873212912129000,6.56512890625,6.078877925872803,1.3766659498214722,0.6607996821403503
1732873212922138600,6.575138671875,7.096413612365723,1.292868971824646,0.6631938815116882
1732873212932148500,6.5851484375,7.6111674308776855,1.3527239561080933,0.5746083855628967
1732873212942158000,6.595157958984375,7.807491779327393,1.5275006294250488,0.3663128614425659
1732873212952137500,6.605137451171875,7.726089000701904,1.6855180263519287,0.2346317619085312
1732873212962147300,6.615147216796875,7.378929615020752,1.9081788063049316,0.12689268589019775
1732873212972157200,6.6251572265625,7.029376029968262,2.075772762298584,-0.026336219161748886
1732873212982136300,6.63513623046875,6.7708024978637695,2.2146365642547607,-0.17956513166427612
1732873212992146200,6.645146240234375,6.754043102264404,2.233790159225464,-0.43335050344467163
1732873213002155800,6.65515576171875,7.070077419281006,2.2601263523101807,-0.5315127968788147
1732873213012135200,6.66513525390625,7.565677165985107,2.2170307636260986,-0.6129156351089478
1732873213022144800,6.675144775390625,8.188169479370117,2.1068975925445557,-0.5770025849342346
1732873213032154600,6.685154541015625,8.846575736999512,2.0685901641845703,-0.7134721279144287
1732873213042133800,6.6951337890625,9.411606788635254,1.9943699836730957,-0.7038952708244324
1732873213052143600,6.7051435546875,10.08437728881836,1.9752163887023926,-0.7469909191131592
1732873213062153500,6.715153564453125,10.606313705444336,1.9943699836730957,-0.689530074596405
1732873213072132600,6.725132568359375,10.96304988861084,1.9560627937316895,-0.5817909836769104
1732873213082142500,6.735142578125,11.046846389770508,1.9800047874450684,-0.4429273009300232
1732873213092152300,6.74515234375,10.946290016174316,1.9800047874450684,-0.2298433631658554
1732873213102131500,6.75513134765625,10.769119262695312,1.9943699836730957,-0.023942016065120697
1732873213112141000,6.76514111328125,10.551246643066406,2.0614075660705566,0.2059013396501541
1732873213122151000,6.77515087890625,10.441113471984863,2.164358377456665,0.2537853717803955
1732873213132130000,6.785130126953125,10.333374977111816,2.31758713722229,0.35913026332855225
1732873213142140000,6.795139892578125,10.065223693847656,2.3965959548950195,0.6129156351089478
1732873213152149800,6.805149658203125,9.5408935546875,2.4372973442077637,0.7996633648872375
1732873213162129000,6.81512890625,8.978256225585938,2.454056739807129,0.9361328482627869
1732873213172138800,6.825138671875,8.851364135742188,2.451662540435791,0.849941611289978
1732873213182148600,6.835148681640625,8.98543930053711,2.410961151123047,0.9241618514060974
1732873213192158200,6.845158203125,9.279925346374512,2.4157495498657227,0.9241618514060974
1732873213202137600,6.8551376953125,9.739612579345703,2.2409727573394775,0.7948749661445618
1732873213212147200,6.865147216796875,10.350133895874023,1.9393033981323242,0.6775590777397156
1732873213222157000,6.875156982421875,11.101913452148438,1.623268723487854,0.3423708379268646
1732873213232136200,6.88513623046875,11.78665542602539,1.656787633895874,-0.2298433631658554
1732873213242146000,6.89514599609375,12.473791122436523,2.073378562927246,-0.950498104095459
1732873213252156000,6.905156005859375,12.808979034423828,2.4133553504943848,-1.5849615335464478
1732873213262135000,6.915135009765625,12.550405502319336,2.3247697353363037,-1.6424223184585571
1732873213272145000,6.925144775390625,11.896788597106934,1.6352397203445435,-1.1037269830703735
1732873213282154800,6.93515478515625,11.647790908813477,0.5267243981361389,-0.5291185975074768
1732873213292134000,6.9451337890625,12.169727325439453,-1.0558429956436157,-0.12689268589019775
1732873213302143700,6.955143798828125,13.512874603271484,-2.123656988143921,-0.4213795065879822
1732873213312153300,6.9651533203125,16.019603729248047,-2.7222073078155518,-1.1037269830703735
1732873213322132500,6.975132568359375,17.492036819458008,-2.691082715988159,-1.4891934394836426
1732873213332142300,6.985142333984375,17.525556564331055,-1.821987509727478,-1.8986018896102905
1732873213342152200,6.995152099609375,16.117765426635742,-0.8451532125473022,-2.0590133666992188
1732873213352131300,7.00513134765625,13.438653945922852,0.028730420395731926,-2.1332337856292725
1732873213362141200,7.01514111328125,10.101137161254883,0.49559974670410156,-1.7836803197860718
1732873213372151000,7.025151123046875,6.998251438140869,0.8427590131759644,-1.3910311460494995
1732873213382130200,7.035130126953125,3.8977603912353516,1.3862427473068237,-1.0055646896362305
1732873213392140000,7.04514013671875,1.920149803161621,2.011129379272461,-0.7829039692878723
1732873213402149600,7.055149658203125,0.5985504388809204,2.451662540435791,-0.6248866319656372
1732873213412129000,7.06512890625,0.272938996553421,2.535459518432617,-0.4812345504760742
1732873213422138600,7.075138671875,1.1468225717544556,2.1978771686553955,-0.363918662071228
1732873213432148500,7.0851484375,3.0861260890960693,1.4987702369689941,-0.5506663918495178
1732873213442158000,7.095157958984375,5.894524574279785,0.7469909191131592,-0.7661445140838623
1732873213452137500,7.105137451171875,8.382100105285645,0.19871874153614044,-1.0247182846069336
1732873213462147300,7.115147216796875,10.891223907470703,-0.08140286058187485,-1.525106430053711
1732873213472157200,7.1251572265625,12.593501091003418,-0.22744916379451752,-1.8267759084701538
1732873213482136300,7.13513623046875,13.194445610046387,-0.19153612852096558,-2.0183119773864746
1732873213492146200,7.145146240234375,13.024456977844238,0.0071826050989329815,-2.121262788772583
1732873213502155800,7.15515576171875,11.987768173217773,0.22266076505184174,-1.7860745191574097
1732873213512135200,7.16513525390625,10.350133895874023,0.6727706789970398,-1.482010841369629
1732873213522144800,7.175144775390625,9.172186851501465,1.0965443849563599,-1.1061211824417114
1732873213532154600,7.185154541015625,8.29830265045166,1.4484920501708984,-0.6320692300796509
1732873213542133800,7.1951337890625,7.807491779327393,1.6759412288665771,-0.36152446269989014
1732873213552143600,7.2051435546875,7.7763671875,1.8986018896102905,-0.26096799969673157
1732873213562153500,7.215153564453125,8.209717750549316,2.0805611610412598,-0.24420857429504395
1732873213572132600,7.225132568359375,8.681375503540039,2.166752576828003,-0.23942017555236816
1732873213582142500,7.235142578125,8.939949035644531,2.161964178085327,-0.26575639843940735
1732873213592152300,7.24515234375,9.148244857788086,2.1308395862579346,-0.22505496442317963
1732873213602131500,7.25513134765625,9.466673851013184,2.1811177730560303,-0.15083470940589905
1732873213612141000,7.26514111328125,9.703699111938477,2.209848165512085,-0.1149216815829277
1732873213622151000,7.27515087890625,9.832986831665039,2.2026655673980713,-0.19393034279346466
1732873213632130000,7.285130126953125,9.940725326538086,2.1475989818573,-0.28730419278144836
1732873213642140000,7.295139892578125,10.091560363769531,2.0638017654418945,-0.4884171485900879
1732873213652149800,7.305149658203125,10.08437728881836,2.0039467811584473,-0.6344634294509888
1732873213662129000,7.31512890625,9.96945571899414,1.9584569931030273,-0.7493851184844971
1732873213672138800,7.325138671875,9.773131370544434,1.9369091987609863,-0.7805097699165344
1732873213682148600,7.335148681640625,9.531316757202148,1.9632453918457031,-0.849941611289978
1732873213692158200,7.345158203125,9.361329078674316,2.0015525817871094,-0.9528923034667969
1732873213702137600,7.3551376953125,9.265560150146484,2.142810583114624,-1.1300631761550903
1732873213712147200,7.365147216796875,9.136273384094238,2.2840683460235596,-1.3048399686813354
1732873213722157000,7.375156982421875,8.947132110595703,2.3750481605529785,-1.2832920551300049
1732873213732136200,7.38513623046875,8.777143478393555,2.4636335372924805,-1.1659762859344482
1732873213742146000,7.39514599609375,8.544905662536621,2.4205379486083984,-1.1204863786697388
1732873213752156000,7.405156005859375,8.35336971282959,2.3535003662109375,-1.0821791887283325
1732873213762135000,7.415135009765625,8.362946510314941,2.319981336593628,-1.0582371950149536
1732873213772145000,7.425144775390625,8.813055992126465,2.2242133617401123,-1.115697979927063
1732873213782154800,7.43515478515625,9.428366661071777,2.0877439975738525,-1.139639973640442
1732873213792134000,7.4451337890625,10.237606048583984,1.8770540952682495,-1.1971008777618408
1732873213802143500,7.4551435546875,11.03248119354248,1.7621324062347412,-1.335964560508728
1732873213812153300,7.4651533203125,11.32457447052002,1.6160861253738403,-1.4987702369689941
1732873213822132500,7.475132568359375,11.276689529418945,1.460463047027588,-1.5442601442337036
1732873213832142300,7.485142333984375,10.529699325561523,1.3838485479354858,-1.7956513166427612
1732873213842152200,7.495152099609375,9.528923034667969,1.3239935636520386,-1.6376339197158813
1732873213852131300,7.50513134765625,8.774748802185059,1.357512354850769,-1.072602391242981
1732873213862141200,7.51514111328125,8.14028549194336,1.4844050407409668,-0.751779317855835
1732873213872151000,7.525151123046875,7.967903137207031,1.7597382068634033,-0.5913678407669067
1732873213882130200,7.535130126953125,8.403648376464844,2.4133553504943848,-0.6344634294509888
1732873213892140000,7.54514013671875,8.995016098022461,2.87064790725708,-0.5889736413955688
1732873213902149600,7.555149658203125,9.603142738342285,2.8347349166870117,-0.3423708379268646
1732873213912129000,7.56512890625,10.414777755737305,2.078166961669922,0.5267243981361389
1732873213922138600,7.575138671875,11.264719009399414,1.0797849893569946,0.9624691009521484
1732873213932148500,7.5851484375,12.916718482971191,-0.586579442024231,0.9576807022094727
1732873213942158000,7.595157958984375,14.94460678100586,-2.1332337856292725,0.790086567401886
1732873213952137500,7.605137451171875,17.216705322265625,-3.3925838470458984,0.4357447028160095
1732873213962147300,7.615147216796875,19.18952751159668,-3.758896589279175,0.5027823448181152
1732873213972157200,7.6251572265625,19.163190841674805,-3.1052796840667725,0.8331822156906128
1732873213982136300,7.63513623046875,16.915035247802734,-1.8507179021835327,0.7805097699165344
1732873213992146200,7.645146240234375,13.433865547180176,-0.7781155705451965,0.8619126081466675
1732873214002156000,7.655156005859375,10.441113471984863,0.1412578970193863,1.278503656387329
1732873214012135200,7.66513525390625,7.311892032623291,0.9648633003234863,1.7477672100067139
1732873214022144800,7.675144775390625,4.778826713562012,1.5107412338256836,2.2170307636260986
1732873214032154600,7.685154541015625,3.332728862762451,1.843535304069519,2.6623523235321045
1732873214042133800,7.6951337890625,2.7222073078155518,1.9393033981323242,2.875436305999756
1732873214052143600,7.7051435546875,3.201047658920288,1.7836803197860718,2.918531894683838
1732873214062153500,7.715153564453125,5.317522048950195,1.50355863571167,2.978386878967285
1732873214072132600,7.725132568359375,7.146692276000977,1.1563993692398071,2.734178304672241
1732873214082142500,7.735142578125,8.978256225585938,0.6057330369949341,2.3582887649536133
1732873214092152300,7.74515234375,10.0580415725708,0.3016694188117981,2.1092917919158936
1732873214102131500,7.75513134765625,10.675745010375977,0.12928688526153564,1.6687586307525635
1732873214112141000,7.76514111328125,10.759542465209961,0.17956513166427612,1.3862427473068237
1732873214122151000,7.77515087890625,10.400412559509277,0.2992752194404602,1.3024457693099976
1732873214132130000,7.785130126953125,9.639056205749512,0.2585737705230713,1.4437036514282227
1732873214142140000,7.795139892578125,9.016563415527344,0.19153612852096558,1.5682021379470825
1732873214152149800,7.805149658203125,8.683769226074219,0.22505496442317963,1.6543933153152466
1732873214162129000,7.81512890625,8.49941635131836,0.24899697303771973,1.3311761617660522
1732873214172138800,7.825138671875,8.621520042419434,0.19153612852096558,1.1899182796478271
1732873214182148600,7.835148681640625,8.87291145324707,0.10773907601833344,1.1228805780410767
1732873214192158200,7.845158203125,9.445125579833984,-0.011971008032560349,0.8834604024887085
1732873214202137600,7.8551376953125,10.010157585144043,-0.14604631066322327,0.6153098344802856
1732873214212147200,7.865147216796875,10.47702693939209,-0.181959331035614,0.31603461503982544
1732873214222157000,7.875156982421875,10.735600471496582,-0.12689268589019775,0.08379705995321274
1732873214232136200,7.88513623046875,10.766724586486816,0.05506663769483566,-0.1628057211637497
1732873214242146000,7.89514599609375,10.474632263183594,0.2322375625371933,-0.1604115068912506
1732873214252156000,7.905156005859375,10.182539939880371,0.38067805767059326,-0.016759412363171577
1732873214262135000,7.915135009765625,9.871294021606445,0.6009446382522583,0.23702596127986908
1732873214272145000,7.925144775390625,9.548076629638672,0.6751648783683777,0.5770025849342346
1732873214282154800,7.93515478515625,9.411606788635254,0.811634361743927,0.8930372595787048
1732873214292134000,7.9451337890625,9.516951560974121,0.7996633648872375,1.161187767982483
1732873214302143500,7.9551435546875,9.770736694335938,0.7876923680305481,1.4963760375976562
1732873214312153300,7.9651533203125,10.02691650390625,0.8403648138046265,1.6041151285171509
1732873214322132500,7.975132568359375,10.47942066192627,0.9241618514060974,1.5155296325683594
1732873214332142300,7.985142333984375,10.845733642578125,0.8164227604866028,1.5682021379470825
1732873214342152200,7.995152099609375,11.044452667236328,0.8906430602073669,1.525106430053711
1732873214352131300,8.00513134765625,11.082759857177734,1.0414776802062988,1.3551181554794312
1732873214362141200,8.01514111328125,10.912771224975586,1.2306196689605713,1.0462661981582642
1732873214372151000,8.025151123046875,10.548852920532227,1.5179238319396973,0.7493851184844971
1732873214382130200,8.035130126953124,10.02691650390625,1.7381904125213623,0.6033388376235962
1732873214392140000,8.04514013671875,9.576807022094727,1.946485996246338,0.43095630407333374
1732873214402149600,8.055149658203124,9.246406555175781,2.1284453868865967,0.33039984107017517
1732873214412129000,8.06512890625,8.87051773071289,1.9752163887023926,0.5841852426528931
1732873214422139000,8.075138916015625,8.578424453735352,1.8938134908676147,0.6248866319656372
1732873214432148500,8.0851484375,8.427590370178223,1.7357962131500244,0.40701428055763245
1732873214442158000,8.095157958984375,8.525752067565918,1.5298948287963867,0.1388636976480484
1732873214452137500,8.105137451171874,8.83699893951416,1.2976573705673218,-0.24899697303771973
1732873214462147300,8.115147216796874,9.26795482635498,1.0630255937576294,-0.5817909836769104
1732873214472157200,8.1251572265625,9.672574996948242,0.7230489253997803,-0.768538773059845
1732873214482136300,8.13513623046875,10.053253173828125,0.47405192255973816,-0.811634361743927
1732873214492146200,8.145146240234375,10.302249908447266,0.3711012601852417,-0.849941611289978
1732873214502156000,8.155156005859375,10.541669845581055,0.49559974670410156,-0.9768342971801758
1732873214512135200,8.16513525390625,10.699687004089355,0.8738836050033569,-1.113303780555725
1732873214522144800,8.175144775390624,10.843339920043945,1.4772224426269531,-1.192312479019165
1732873214532154600,8.185154541015624,10.60152530670166,2.0638017654418945,-1.400607943534851
1732873214542133800,8.1951337890625,9.737217903137207,2.3558945655822754,-1.5538369417190552
1732873214552143600,8.2051435546875,9.488221168518066,2.03507137298584,-1.216254472732544
1732873214562153500,8.215153564453125,9.96945571899414,0.912190854549408,-0.42377370595932007
1732873214572132600,8.225132568359374,11.33654499053955,-0.5937620401382446,-0.07182604819536209
1732873214582142500,8.235142578125,13.872004508972168,-2.75812029838562,-0.035913024097681046
1732873214592152300,8.24515234375,17.13290786743164,-4.288015365600586,0.10534487664699554
1732873214602131500,8.25513134765625,19.584569931030273,-4.596867084503174,-0.3998316824436188
1732873214612141000,8.26514111328125,20.271705627441406,-4.144362926483154,-0.9576807022094727
1732873214622151000,8.27515087890625,19.1440372467041,-3.1459810733795166,-1.2880805730819702
1732873214632130000,8.285130126953124,15.775395393371582,-1.9321208000183105,-1.7980455160140991
1732873214642140000,8.295139892578124,12.301408767700195,-0.9289502501487732,-1.4484920501708984
1732873214652149800,8.305149658203124,8.38449478149414,0.1173158809542656,-0.9002198576927185
1732873214662129000,8.31512890625,4.405331134796143,0.15562310814857483,-1.9584569931030273
1732873214672138800,8.325138671875,2.719813108444214,1.216254472732544,-0.4165911078453064
1732873214682148600,8.335148681640625,2.250549554824829,2.3247697353363037,-1.2210428714752197
1732873214692158200,8.345158203125,2.032677173614502,2.9233202934265137,-1.7812861204147339
1732873214702137600,8.3551376953125,2.3965959548950195,1.5538369417190552,-1.2521674633026123
1732873214712147200,8.365147216796874,3.3518824577331543,0.40462008118629456,-0.8403648138046265
1732873214722157000,8.375156982421874,5.789179801940918,-0.1412578970193863,-1.292868971824646
1732873214732136200,8.38513623046875,8.360552787780762,-0.5339069962501526,-2.3367409706115723
1732873214742146000,8.39514599609375,11.279084205627441,-0.6057330369949341,-2.9448680877685547
1732873214752156000,8.405156005859375,12.895170211791992,-0.3974374830722809,-3.332728862762451
1732873214762135000,8.415135009765624,13.357251167297363,-0.1173158809542656,-4.003105163574219
1732873214772145000,8.425144775390624,13.242329597473145,0.035913024097681046,-3.6774938106536865
1732873214782154800,8.43515478515625,11.78665542602539,0.06224924325942993,-3.308786630630493
1732873214792134000,8.4451337890625,10.007762908935547,0.33039984107017517,-3.2345664501190186
1732873214802143700,8.455143798828125,8.631096839904785,0.7015010714530945,-2.846705913543701
1732873214812153300,8.4651533203125,7.850587368011475,0.849941611289978,-2.3056161403656006
1732873214822132500,8.475132568359374,7.400477409362793,1.0295066833496094,-1.9776105880737305
1732873214832142300,8.485142333984374,7.3454108238220215,1.2665326595306396,-1.721431016921997
1732873214842152200,8.495152099609374,7.3885064125061035,1.479616641998291,-1.534683346748352
1732873214852131300,8.50513134765625,7.376535415649414,1.5849615335464478,-1.2617442607879639
1732873214862141200,8.51514111328125,7.094019412994385,1.4628572463989258,-1.113303780555725
1732873214872151000,8.525151123046875,7.649474620819092,1.5969325304031372,-0.5650315880775452
1732873214882130200,8.535130126953124,8.101978302001953,2.0614075660705566,-0.8164227604866028
1732873214892140000,8.54514013671875,7.68538761138916,1.9249382019042969,-0.6584054827690125
1732873214902149600,8.555149658203124,7.872135162353516,1.7956513166427612,-0.26815059781074524
1732873214912129000,8.56512890625,8.180987358093262,2.011129379272461,-0.6105214357376099
1732873214922139000,8.575138916015625,8.643068313598633,2.2888567447662354,-0.6727706789970398
1732873214932148500,8.5851484375,8.834604263305664,2.3247697353363037,-0.7996633648872375
1732873214942158000,8.595157958984375,9.081207275390625,2.2601263523101807,-1.0103530883789062
1732873214952137500,8.605137451171874,9.442731857299805,2.1308395862579346,-1.1276689767837524
1732873214962147300,8.615147216796874,9.77791976928711,2.0470423698425293,-1.2114660739898682
1732873214972157200,8.6251572265625,9.926360130310059,1.920149803161621,-1.256955862045288
1732873214982136300,8.63513623046875,10.055646896362305,1.800439715385437,-1.1516109704971313
1732873214992146200,8.645146240234375,10.259154319763184,1.745373010635376,-1.0821791887283325
1732873215002156000,8.655156005859375,10.398017883300781,1.800439715385437,-1.115697979927063
1732873215012135200,8.66513525390625,10.32858657836914,1.9105730056762695,-1.137245774269104
1732873215022145000,8.67514501953125,10.038887977600098,2.0685901641845703,-1.2234370708465576
1732873215032154600,8.685154541015624,9.746794700622559,2.22660756111145,-1.2282254695892334
1732873215042133800,8.6951337890625,9.397241592407227,2.3726539611816406,-1.1899182796478271
1732873215052143600,8.7051435546875,8.918401718139648,2.52109432220459,-1.1683704853057861
1732873215062153500,8.715153564453125,8.633491516113281,2.5785553455352783,-1.1635819673538208
1732873215072132600,8.725132568359374,8.530540466308594,2.5785553455352783,-1.216254472732544
1732873215082142500,8.735142578125,8.643068313598633,2.604891538619995,-1.292868971824646
1732873215092152300,8.74515234375,8.791508674621582,2.564189910888672,-1.5849615335464478
1732873215102131500,8.75513134765625,9.105149269104004,2.5306711196899414,-1.9177556037902832
1732873215112141300,8.765141357421875,9.742006301879883,2.4803929328918457,-2.0638017654418945
1732873215122151000,8.77515087890625,10.11550235748291,2.434903144836426,-2.2385785579681396
1732873215132130000,8.785130126953124,10.177751541137695,2.410961151123047,-2.298433542251587
1732873215142140000,8.795139892578124,10.11550235748291,2.3056161403656006,-2.0614075660705566
1732873215152149800,8.805149658203124,10.256759643554688,2.2625205516815186,-1.8076223134994507
1732873215162129000,8.81512890625,10.608707427978516,2.1571757793426514,-1.4628572463989258
1732873215172138800,8.825138671875,10.946290016174316,1.9632453918457031,-1.1540051698684692
1732873215182148600,8.835148681640625,11.528080940246582,1.7501614093780518,-0.667982280254364
1732873215192158500,8.845158447265625,12.050017356872559,1.6639702320098877,-0.3687070608139038
1732873215202137600,8.8551376953125,12.665327072143555,1.5634137392044067,-0.24420857429504395
1732873215212147200,8.865147216796874,13.041216850280762,1.6615760326385498,-0.17717093229293823
1732873215222157000,8.875156982421874,13.211204528808594,1.9608511924743652,-0.15322890877723694
1732873215232136200,8.88513623046875,13.18008041381836,2.056619167327881,0.05985504388809204
1732873215242146000,8.89514599609375,12.801796913146973,1.9273324012756348,0.5722141861915588
1732873215252156000,8.905156005859375,12.464214324951172,1.7262194156646729,1.0845733880996704
1732873215262135000,8.915135009765624,12.737153053283691,1.5394717454910278,1.4772224426269531
1732873215272145000,8.925144775390624,13.436260223388672,1.1971008777618408,1.8818424940109253
1732873215282154800,8.93515478515625,14.099453926086426,0.7206547260284424,2.1954829692840576
1732873215292134000,8.9451337890625,14.800954818725586,0.09576806426048279,2.604891538619995
1732873215302143500,8.9551435546875,15.504850387573242,-0.35913026332855225,2.82515811920166
1732873215312153300,8.9651533203125,15.76581859588623,-0.9169792532920837,2.5977089405059814
1732873215322132500,8.975132568359374,15.715539932250977,-1.1085153818130493,2.1739351749420166
1732873215332142300,8.985142333984374,14.82968521118164,-1.0558429956436157,1.6112977266311646
1732873215342152200,8.995152099609374,13.283031463623047,-0.7876923680305481,1.0845733880996704
1732873215352131300,9.00513134765625,11.085153579711914,-0.2801215946674347,0.9911994934082031
1732873215362141200,9.01514111328125,8.540117263793945,0.08619125932455063,1.314416766166687
1732873215372151000,9.025151123046875,6.2847795486450195,0.4572925269603729,1.6831238269805908
1732873215382130200,9.035130126953124,4.132391929626465,1.0007762908935547,1.9081788063049316
1732873215392140000,9.04514013671875,2.7317841053009033,1.4197616577148438,2.032677173614502
1732873215402149600,9.055149658203124,1.843535304069519,1.7310078144073486,2.0638017654418945
1732873215412129000,9.06512890625,1.8195933103561401,1.8363527059555054,1.8195933103561401
1732873215422139000,9.075138916015625,2.557007312774658,1.8315643072128296,1.4700398445129395
1732873215432148500,9.0851484375,3.6607344150543213,1.7860745191574097,1.039083480834961
1732873215442158300,9.095158447265625,4.903325080871582,1.5969325304031372,0.5961562395095825
1732873215452137500,9.105137451171874,5.863399982452393,1.2497732639312744,0.1867477297782898
1732873215462147300,9.115147216796874,6.979097843170166,0.8738836050033569,-0.2346317619085312
1732873215472157200,9.1251572265625,8.04930591583252,0.5746083855628967,-0.4668693244457245
1732873215482136300,9.13513623046875,8.832210540771484,0.4189853072166443,-0.5746083855628967
1732873215492146200,9.145146240234375,9.502586364746094,0.33039984107017517,-0.6727706789970398
1732873215502156000,9.155156005859375,9.854534149169922,0.363918662071228,-0.8355764150619507
1732873215512135200,9.16513525390625,9.955090522766113,0.5291185975074768,-0.9911994934082031
1732873215522144800,9.175144775390624,9.679757118225098,0.7733271718025208,-1.2521674633026123
1732873215532154600,9.185154541015624,9.473855972290039,1.3024457693099976,-1.3910311460494995
1732873215542133800,9.1951337890625,9.10993766784668,1.6974890232086182,-1.4628572463989258
1732873215552143600,9.2051435546875,8.638279914855957,1.9728221893310547,-1.3718775510787964
1732873215562153500,9.215153564453125,8.327033042907715,2.209848165512085,-1.1516109704971313
1732873215572132600,9.225132568359374,8.063671112060547,2.4205379486083984,-0.9409212470054626
1732873215582142500,9.235142578125,8.034940719604492,2.6024973392486572,-0.768538773059845
1732873215592152300,9.24515234375,8.11634349822998,2.762908697128296,-0.689530074596405
1732873215602131500,9.25513134765625,8.255207061767578,2.985569477081299,-0.8212111592292786
1732873215612141000,9.26514111328125,8.485051155090332,3.1890766620635986,-0.9074024558067322
1732873215622151000,9.27515087890625,8.858546257019043,3.4165258407592773,-0.9481038451194763
1732873215632130000,9.285130126953124,9.11233139038086,3.6104562282562256,-1.0606313943862915
1732873215642140000,9.295139892578124,9.330204010009766,3.778050184249878,-1.0462661981582642
1732873215652149800,9.305149658203124,9.512163162231445,3.751713991165161,-0.9313444495201111
1732873215662129000,9.31512890625,9.849745750427246,3.579331636428833,-0.751779317855835
1732873215672138800,9.325138671875,10.283096313476562,3.339911460876465,-0.4836287498474121
1732873215682148600,9.335148681640625,11.085153579711914,3.1507694721221924,-0.22744916379451752
1732873215692158200,9.345158203125,11.769895553588867,2.626439332962036,-0.10295066982507706
1732873215702137600,9.3551376953125,12.464214324951172,2.315192937850952,0.06703764945268631
1732873215712147200,9.365147216796874,13.285425186157227,2.008735179901123,0.05027823522686958
1732873215722157000,9.375156982421874,13.769054412841797,1.8483237028121948,0.06464344263076782
1732873215732136200,9.38513623046875,13.764266014099121,1.8387469053268433,-0.038307227194309235
1732873215742146000,9.39514599609375,13.297396659851074,1.9033904075622559,-0.0933738648891449
1732873215752156000,9.405156005859375,12.536040306091309,1.98958158493042,-0.0454898327589035
1732873215762135000,9.415135009765624,11.882423400878906,2.0039467811584473,0.1149216815829277
1732873215772145000,9.425144775390624,11.1474027633667,1.8722656965255737,0.22505496442317963
1732873215782154800,9.43515478515625,10.754754066467285,1.7405846118927002,0.31842881441116333
1732873215792134000,9.4451337890625,10.809821128845215,1.8411411046981812,0.33279404044151306
1732873215802143700,9.455143798828125,11.14500904083252,2.2170307636260986,-0.002394201699644327
1732873215812153300,9.4651533203125,11.133037567138672,2.559401512145996,-0.26815059781074524
1732873215822132500,9.475132568359374,10.620678901672363,2.6862943172454834,-0.3902548849582672
1732873215832142300,9.485142333984374,9.926360130310059,2.3295583724975586,-0.2585737705230713
1732873215842152200,9.495152099609374,9.497797966003418,1.4173674583435059,0.10534487664699554
1732873215852131300,9.50513134765625,9.84495735168457,0.3471592366695404,0.33997663855552673
1732873215862141200,9.51514111328125,10.836156845092773,-0.569819986820221,-0.304063618183136
1732873215872151000,9.525151123046875,12.076353073120117,-0.9265560507774353,-1.256955862045288
1732873215882130200,9.535130126953124,13.00051498413086,-0.6129156351089478,-2.408566951751709
1732873215892140000,9.54514013671875,12.866439819335938,0.07422025501728058,-3.1459810733795166
1732873215902149600,9.555149658203124,11.57357120513916,0.8307880163192749,-3.1723172664642334
1732873215912129000,9.56512890625,9.373299598693848,1.2617442607879639,-2.964021682739258
1732873215922139000,9.575138916015625,7.208941459655762,1.5945383310317993,-2.671929121017456
1732873215932148500,9.5851484375,4.898536682128906,1.9033904075622559,-2.4133553504943848
1732873215942158000,9.595157958984375,3.268085241317749,2.126051187515259,-2.118868589401245
1732873215952137500,9.605137451171874,2.0183119773864746,2.300827741622925,-1.8483237028121948
1732873215962147300,9.615147216796874,1.6879122257232666,2.33913516998291,-1.7525556087493896
1732873215972157200,9.6251572265625,2.296039342880249,2.10210919380188,-1.4245500564575195
1732873215982136300,9.63513623046875,3.706224203109741,1.800439715385437,-1.3958195447921753
1732873215992146200,9.645146240234375,5.947196960449219,1.403002142906189,-1.778891921043396
1732873216002156000,9.655156005859375,7.884106159210205,0.9217676520347595,-1.9728221893310547
1732873216012135200,9.66513525390625,9.725247383117676,0.5961562395095825,-1.8770540952682495
1732873216022145000,9.67514501953125,10.99896240234375,0.43095630407333374,-1.920149803161621
1732873216032154600,9.685154541015624,11.614272117614746,0.4141969084739685,-1.824381709098816
1732873216042133800,9.6951337890625,11.647790908813477,0.507570743560791,-1.6376339197158813
1732873216052143600,9.7051435546875,11.298237800598145,0.6991068720817566,-1.3982137441635132
1732873216062153500,9.715153564453125,10.699687004089355,1.0007762908935547,-1.0606313943862915
1732873216072132600,9.725132568359374,10.127472877502441,1.359906554222107,-0.7158663272857666
1732873216082142500,9.735142578125,9.516951560974121,1.8315643072128296,-0.19632454216480255
1732873216092152300,9.74515234375,9.042900085449219,2.145204782485962,0.13168109953403473
1732873216102131500,9.75513134765625,8.607154846191406,2.5737667083740234,0.17956513166427612
1732873216112141300,9.765141357421875,8.413225173950195,2.942473888397217,0.2106897532939911
1732873216122151000,9.77515087890625,8.389283180236816,3.2297780513763428,0.20350714027881622
1732873216132130000,9.785130126953124,8.619126319885254,3.4141316413879395,0.18914192914962769
1732873216142140000,9.795139892578124,8.746018409729004,3.423708438873291,0.14365209639072418
1732873216152149800,9.805149658203124,8.96389102935791,3.3207578659057617,0.1149216815829277
1732873216162129000,9.81512890625,9.181763648986816,3.203441858291626,0.14844051003456116
1732873216172138800,9.825138671875,9.555258750915527,3.0597896575927734,0.13168109953403473
1732873216182148600,9.835148681640625,9.907206535339355,2.8874073028564453,0.18914192914962769
1732873216192158500,9.845158447265625,10.309432983398438,2.6431987285614014,0.1628057211637497
1732873216202137600,9.8551376953125,10.611102104187012,2.5091233253479004,0.023942016065120697
1732873216212147200,9.865147216796874,10.81700325012207,2.4588451385498047,-0.06224924325942993
1732873216222157000,9.875156982421874,10.687716484069824,2.4396915435791016,-0.014365210197865963
1732873216232136200,9.88513623046875,10.450690269470215,2.4636335372924805,0.038307227194309235
1732873216242146000,9.89514599609375,10.194510459899902,2.5043349266052246,0.15322890877723694
1732873216252156000,9.905156005859375,10.08437728881836,2.5498247146606445,0.36152446269989014
1732873216262135000,9.915135009765624,10.096348762512207,2.626439332962036,0.586579442024231
1732873216272145000,9.925144775390624,10.129867553710938,2.6647465229034424,0.6655880808830261
1732873216282154800,9.93515478515625,10.295066833496094,2.7437551021575928,0.5961562395095825
1732873216292134000,9.9451337890625,10.472238540649414,2.7892448902130127,0.4165911078453064
1732873216302143500,9.9551435546875,10.613495826721191,2.6360161304473877,0.2537853717803955
1732873216312153300,9.9651533203125,10.821791648864746,2.2218191623687744,0.28730419278144836
1732873216322132500,9.975132568359374,11.429919242858887,1.8602946996688843,0.6584054827690125
1732873216332142300,9.985142333984374,12.217611312866211,1.742978811264038,0.8259995579719543
1732873216342152200,9.995152099609374,12.981361389160156,1.7836803197860718,0.706289529800415
1732873216352131300,10.00513134765625,13.438653945922852,1.644816517829895,0.6224924325942993
1732873216362141200,10.01514111328125,13.488932609558105,1.039083480834961,0.8092401623725891
1732873216372151000,10.025151123046875,13.326127052307129,0.047884032130241394,1.1971008777618408
1732873216382130200,10.035130126953124,13.543998718261719,-0.6248866319656372,1.335964560508728
1732873216392140000,10.04514013671875,13.893552780151367,-0.9576807022094727,0.768538773059845
1732873216402149600,10.055149658203124,13.838485717773438,-0.9888052940368652,0.05746084079146385
1732873216412129000,10.06512890625,13.15613842010498,-0.7781155705451965,-0.3758896589279175
1732873216422139000,10.075138916015625,11.925518989562988,-0.33758243918418884,-0.08619125932455063
1732873216432148500,10.0851484375,10.072406768798828,0.24181437492370605,0.4596867263317108
1732873216442158300,10.095158447265625,8.020575523376465,0.7829039692878723,0.6129156351089478
1732873216452137500,10.105137451171874,5.789179801940918,1.4101848602294922,0.6631938815116882
1732873216462147300,10.115147216796874,4.134786128997803,1.9704279899597168,0.7589619159698486
1732873216472157200,10.1251572265625,3.2130186557769775,2.4372973442077637,0.8259995579719543
1732873216482136300,10.13513623046875,2.7964274883270264,2.5234885215759277,1.0558429956436157
1732873216492146200,10.145146240234375,3.098097085952759,2.38462495803833,1.039083480834961
1732873216502156000,10.155156005859375,4.290409564971924,2.0614075660705566,0.47644615173339844
1732873216512135200,10.16513525390625,5.9088897705078125,1.7334020137786865,-0.1843535304069519
1732873216522144800,10.175144775390624,7.8960771560668945,1.314416766166687,-0.6272808313369751
1732873216532154600,10.185154541015624,9.339780807495117,0.9409212470054626,-0.7852981686592102
1732873216542133800,10.1951337890625,10.500968933105469,0.811634361743927,-1.01753568649292
1732873216552143600,10.2051435546875,11.080365180969238,0.7876923680305481,-1.2545616626739502
1732873216562153500,10.215153564453125,11.176133155822754,0.8403648138046265,-1.3072341680526733
1732873216572132600,10.225132568359374,10.714052200317383,1.1061211824417114,-1.3072341680526733
1732873216582142500,10.235142578125,9.6989107131958,1.4628572463989258,-1.2617442607879639
1732873216592152300,10.24515234375,8.736441612243652,1.824381709098816,-1.1420341730117798
1732873216602131500,10.25513134765625,8.070854187011719,2.078166961669922,-1.0319008827209473
1732873216612141000,10.26514111328125,7.592013359069824,2.33913516998291,-0.8667010068893433
1732873216622151000,10.27515087890625,7.592013359069824,2.4875755310058594,-0.8571242094039917
1732873216632130000,10.285130126953124,8.022970199584961,2.564189910888672,-1.05105459690094
1732873216642140000,10.295139892578124,8.65982723236084,2.580949544906616,-1.137245774269104
1732873216652149800,10.305149658203124,9.452308654785156,2.542642116546631,-1.139639973640442
1732873216662129000,10.31512890625,9.895236015319824,2.4684219360351562,-1.0749965906143188
1732873216672138800,10.325138671875,10.204087257385254,2.47560453414917,-0.9696516990661621
1732873216682148600,10.335148681640625,10.187328338623047,2.363077163696289,-0.8930372595787048
1732873216692158200,10.345158203125,10.012551307678223,2.1595699787139893,-0.7709329724311829
1732873216702137600,10.3551376953125,9.785101890563965,1.9943699836730957,-0.7445967197418213
1732873216712147200,10.365147216796874,9.636661529541016,1.8531121015548706,-0.5530605912208557
1732873216722157000,10.375156982421874,9.550470352172852,1.900996208190918,-0.5410895943641663
1732873216732136200,10.38513623046875,9.593565940856934,2.121262788772583,-0.5674257874488831
1732873216742146000,10.39514599609375,9.744400978088379,2.470816135406494,-0.5410895943641663
1732873216752156000,10.405156005859375,9.8784761428833,2.671929121017456,-0.5602431893348694
1732873216762135000,10.415135009765624,9.782708168029785,2.8586769104003906,-0.3280056416988373
1732873216772145000,10.425144775390624,9.560047149658203,3.0550012588500977,-0.09816227108240128
1732873216782154800,10.43515478515625,9.399636268615723,3.270479440689087,-0.011971008032560349
1732873216792134000,10.4451337890625,9.385271072387695,3.359065055847168,-0.004788403399288654
1732873216802143700,10.455143798828125,9.445125579833984,3.335123062133789,0.14844051003456116
1732873216812153300,10.4651533203125,9.797073364257812,3.2968156337738037,0.3495534360408783
1732873216822132500,10.475132568359374,10.237606048583984,3.246537446975708,0.3734954595565796
1732873216832142300,10.485142333984374,10.900800704956055,3.3207578659057617,0.15083470940589905
1732873216842152200,10.495152099609374,11.429919242858887,3.6343982219696045,-0.30885201692581177
1732873216852131300,10.50513134765625,11.741165161132812,4.072536945343018,-0.8427590131759644
1732873216862141200,10.51514111328125,11.645397186279297,4.153939723968506,-1.0223240852355957
1732873216872151000,10.525151123046875,11.077971458435059,3.6128504276275635,-0.7613561153411865
1732873216882130200,10.535130126953124,10.491392135620117,2.454056739807129,-0.272938996553421
1732873216892140000,10.54514013671875,10.733205795288086,0.8619126081466675,0.2298433631658554
1732873216902149600,10.555149658203124,11.678915977478027,-0.507570743560791,0.26815059781074524
1732873216912129000,10.56512890625,13.342885971069336,-1.2425906658172607,-0.5051765441894531
1732873216922139000,10.575138916015625,15.473725318908691,-1.0893617868423462,-1.436521053314209
1732873216932148500,10.5851484375,16.40267562866211,-0.4429273009300232,-1.9488801956176758
1732873216942158000,10.595157958984375,15.397110939025879,0.3208230137825012,-2.434903144836426
1732873216952137500,10.605137451171874,12.947842597961426,0.7206547260284424,-2.6815059185028076
1732873216962147300,10.615147216796874,9.816226959228516,1.0749965906143188,-2.451662540435791
1732873216972157200,10.6251572265625,6.833051681518555,1.434126853942871,-2.0446481704711914
1732873216982136300,10.63513623046875,3.974374771118164,1.9033904075622559,-1.9321208000183105
1732873216992146200,10.645146240234375,2.207453966140747,2.2385785579681396,-1.7501614093780518
1732873217002156000,10.655156005859375,1.0821791887283325,2.387019157409668,-1.278503656387329
1732873217012135200,10.66513525390625,1.0103530883789062,2.2242133617401123,-0.8858546018600464
1732873217022145000,10.67514501953125,2.255337953567505,1.9632453918457031,-0.828393816947937
1732873217032154600,10.685154541015624,4.4508209228515625,1.525106430053711,-0.5602431893348694
1732873217042133800,10.6951337890625,6.828263282775879,0.9792284965515137,-0.18914192914962769
1732873217052143600,10.7051435546875,9.390059471130371,0.7158663272857666,-0.0694318488240242
1732873217062153500,10.715153564453125,11.166556358337402,0.5626373887062073,-0.09576806426048279
1732873217072132600,10.725132568359374,12.212822914123535,0.44771572947502136,-0.040701430290937424
1732873217082142500,10.735142578125,12.543222427368164,0.4381389021873474,0.08379705995321274
1732873217092152300,10.74515234375,12.342109680175781,0.6416460275650024,0.2059013396501541
1732873217102131500,10.75513134765625,11.683704376220703,0.9888052940368652,0.31603461503982544
1732873217112141300,10.765141357421875,10.551246643066406,1.4293384552001953,0.4596867263317108
1732873217122151000,10.77515087890625,9.514557838439941,1.800439715385437,0.6847416758537292
1732873217132130000,10.785130126953124,8.544905662536621,2.1380221843719482,0.9289502501487732
1732873217142140000,10.795139892578124,7.876923561096191,2.3989901542663574,1.0127472877502441
1732873217152149800,10.805149658203124,7.618350028991699,2.5953147411346436,0.8882488012313843
1732873217162129000,10.81512890625,7.6566572189331055,2.8107926845550537,0.751779317855835
1732873217172138800,10.825138671875,7.8745293617248535,2.779668092727661,0.6847416758537292
1732873217182148600,10.835148681640625,8.219294548034668,2.6671407222747803,0.5147533416748047
1732873217192158500,10.845158447265625,8.571242332458496,2.47560453414917,0.395043283700943
1732873217202137600,10.8551376953125,9.227252960205078,2.2673089504241943,0.3447650372982025
1732873217212147200,10.865147216796874,9.856928825378418,2.1954829692840576,0.24660277366638184
1732873217222157000,10.875156982421874,10.505757331848145,2.056619167327881,0.1628057211637497
1732873217232136200,10.88513623046875,11.02051067352295,1.9321208000183105,0.13168109953403473
1732873217242146000,10.89514599609375,11.384428977966309,1.8339585065841675,0.12449848651885986
1732873217252156000,10.905156005859375,11.561599731445312,1.845929503440857,0.043095629662275314
1732873217262135000,10.915135009765624,11.54005241394043,1.9105730056762695,-0.002394201699644327
1732873217272145000,10.925144775390624,11.372458457946777,2.008735179901123,0.033518824726343155
1732873217282154800,10.93515478515625,11.137825965881348,2.118868589401245,0.12689268589019775
1732873217292134000,10.9451337890625,10.843339920043945,2.1475989818573,0.3902548849582672
1732873217302143700,10.955143798828125,10.675745010375977,2.1380221843719482,0.629675030708313
1732873217312153300,10.9651533203125,10.678139686584473,2.2673089504241943,0.7469909191131592
1732873217322132500,10.975132568359374,10.718840599060059,2.319981336593628,0.790086567401886
1732873217332142300,10.985142333984374,10.678139686584473,2.432508945465088,0.8451532125473022
1732873217342152200,10.995152099609374,10.63743782043457,2.5115175247192383,0.9050082564353943
1732873217352131300,11.00513134765625,10.469843864440918,2.248155355453491,1.0295066833496094
1732873217362141200,11.01514111328125,10.371682167053223,1.8339585065841675,1.158793568611145
1732873217372151000,11.025151123046875,10.579977035522461,1.7381904125213623,1.1468225717544556
1732873217382130200,11.035130126953124,11.025299072265625,1.9823989868164062,0.8738836050033569
1732873217392140000,11.04514013671875,11.4849853515625,2.097320795059204,0.6129156351089478
1732873217402149600,11.055149658203124,11.769895553588867,1.6711528301239014,0.8762778043746948
1732873217412129000,11.06512890625,11.827356338500977,0.9097966551780701,1.3024457693099976
1732873217422139000,11.075138916015625,12.06198787689209,-0.014365210197865963,1.7094600200653076
1732873217432148500,11.0851484375,12.507309913635254,-0.6991068720817566,1.7142484188079834
1732873217442158300,11.095158447265625,13.37161636352539,-1.1348515748977661,1.3694833517074585
1732873217452137500,11.105137451171874,14.173673629760742,-1.1540051698684692,1.039083480834961
1732873217462147300,11.115147216796874,14.171279907226562,-0.9169792532920837,1.0654197931289673
1732873217472157200,11.1251572265625,12.94066047668457,-0.4381389021873474,1.2473790645599365
1732873217482136300,11.13513623046875,11.243170738220215,-0.021547814831137657,1.4293384552001953
1732873217492146200,11.145146240234375,9.028534889221191,0.4405331015586853,1.6711528301239014
1732873217502156000,11.155156005859375,7.3238630294799805,0.9074024558067322,1.8722656965255737
1732873217512135200,11.16513525390625,5.7987565994262695,1.2761094570159912,1.8698714971542358
1732873217522144800,11.175144775390624,5.035006046295166,1.4700398445129395,1.7142484188079834
1732873217532154600,11.185154541015624,4.821922302246094,1.522712230682373,1.4939818382263184
1732873217542133800,11.1951337890625,5.140350818634033,1.4532804489135742,1.1204863786697388
1732873217552143600,11.2051435546875,6.208165168762207,1.1994950771331787,0.689530074596405
1732873217562153500,11.215153564453125,7.386112213134766,0.9481038451194763,0.5003881454467773
1732873217572132600,11.225132568359374,8.5903959274292,0.7350199222564697,0.35434186458587646
1732873217582142500,11.235142578125,9.346963882446289,0.7182605266571045,0.1173158809542656
1732873217592152300,11.24515234375,9.636661529541016,0.7422025203704834,-0.05506663769483566
1732873217602131500,11.25513134765625,9.564835548400879,0.9050082564353943,-0.1867477297782898
1732873217612141300,11.265141357421875,9.081207275390625,1.1300631761550903,-0.2346317619085312
1732873217622151000,11.27515087890625,8.346187591552734,1.4652514457702637,-0.22744916379451752
1732873217632130000,11.285130126953124,7.718906402587891,1.6735470294952393,-0.2322375625371933
1732873217642140000,11.295139892578124,7.1921820640563965,1.8698714971542358,-0.1388636976480484
1732873217652149800,11.305149658203124,7.0341644287109375,2.013523578643799,-0.028730420395731926
1732873217662129000,11.31512890625,6.967126846313477,2.1092917919158936,0.026336219161748886
1732873217672138800,11.325138671875,7.127538681030273,2.1499931812286377,0.11252748221158981
1732873217682148600,11.335148681640625,7.601590633392334,2.123656988143921,0.2082955539226532
1732873217692158500,11.345158447265625,8.209717750549316,2.070984363555908,0.19632454216480255
1732873217702137600,11.3551376953125,8.707711219787598,2.0901381969451904,0.11013327538967133
1732873217712147200,11.365147216796874,9.251194953918457,2.094926595687866,0.06464344263076782
1732873217722157000,11.375156982421874,9.708487510681152,2.073378562927246,0.05267243832349777
1732873217732136200,11.38513623046875,10.06043529510498,1.9704279899597168,0.023942016065120697
1732873217742146000,11.39514599609375,10.35252857208252,1.824381709098816,0.1364694982767105
1732873217752156000,11.405156005859375,10.737994194030762,1.721431016921997,0.3519476354122162
1732873217762135000,11.415135009765624,11.022904396057129,1.766920804977417,0.49320554733276367
1732873217772145000,11.425144775390624,11.092336654663086,1.900996208190918,0.5003881454467773
1732873217782154800,11.43515478515625,11.02051067352295,2.0925323963165283,0.5482721924781799
1732873217792134000,11.4451337890625,10.668562889099121,2.255337953567505,0.6033388376235962
1732873217802143700,11.455143798828125,10.098742485046387,2.3511061668395996,0.7350199222564697
1732873217812153300,11.4651533203125,9.557653427124023,2.432508945465088,0.871489405632019
1732873217822132500,11.475132568359374,9.148244857788086,2.408566951751709,1.0414776802062988
1732873217832142300,11.485142333984374,9.105149269104004,2.3558945655822754,1.05105459690094
1732873217842152200,11.495152099609374,9.461885452270508,2.248155355453491,0.8906430602073669
1732873217852131300,11.50513134765625,10.072406768798828,2.0805611610412598,0.7350199222564697
1732873217862141200,11.51514111328125,10.864887237548828,1.9488801956176758,0.4836287498474121
1732873217872151000,11.525151123046875,11.496956825256348,1.9393033981323242,0.06703764945268631
1732873217882130200,11.535130126953124,12.02607536315918,2.0470423698425293,-0.43095630407333374
1732873217892140000,11.54514013671875,12.267889976501465,2.3080103397369385,-0.9313444495201111
1732873217902149600,11.555149658203124,12.078747749328613,2.5067291259765625,-1.2689268589019775
1732873217912129000,11.56512890625,11.602301597595215,2.33913516998291,-1.381454348564148
1732873217922139000,11.575138916015625,11.279084205627441,1.5322890281677246,-1.072602391242981
1732873217932148500,11.5851484375,11.583148002624512,0.1412578970193863,-0.5578489899635315
1732873217942158300,11.595158447265625,12.634202003479004,-1.1228805780410767,-0.2298433631658554
1732873217952137500,11.605137451171874,14.472949028015137,-2.2433669567108154,-0.7182605266571045
1732873217962147300,11.615147216796874,16.40985870361328,-2.410961151123047,-1.3503297567367554
1732873217972157200,11.6251572265625,17.571046829223633,-1.941697597503662,-1.8052281141281128
1732873217982136300,11.63513623046875,16.83363151550293,-1.0103530883789062,-1.941697597503662
1732873217992146200,11.645146240234375,14.45619010925293,0.016759412363171577,-1.9393033981323242
1732873218002156000,11.655156005859375,11.54005241394043,0.6224924325942993,-1.7549498081207275
1732873218012135200,11.66513525390625,7.955932140350342,1.137245774269104,-1.2066776752471924
1732873218022144800,11.675144775390624,4.570530891418457,1.601720929145813,-0.5746083855628967
1732873218032154600,11.685154541015624,2.0374655723571777,2.252943754196167,-0.3687070608139038
1732873218042133800,11.6951337890625,0.20111294090747833,2.719813108444214,-0.06464344263076782
1732873218052143600,11.7051435546875,-0.5770025849342346,3.071760892868042,0.10295066982507706
1732873218062153500,11.715153564453125,-0.38067805767059326,2.8874073028564453,0.5003881454467773
1732873218072132600,11.725132568359374,0.9864110946655273,2.2840683460235596,0.7493851184844971
1732873218082142500,11.735142578125,3.706224203109741,1.434126853942871,0.586579442024231
1732873218092152300,11.74515234375,6.57926607131958,0.5434837937355042,0.3758896589279175
1732873218102131500,11.75513134765625,9.765948295593262,-0.21308395266532898,-0.011971008032560349
1732873218112141300,11.765141357421875,12.217611312866211,-0.5722141861915588,-0.3471592366695404
1732873218122151000,11.77515087890625,14.226346969604492,-0.7565677165985107,-0.5434837937355042
1732873218132130000,11.785130126953124,15.243882179260254,-0.629675030708313,-0.5674257874488831
1732873218142140000,11.795139892578124,14.877569198608398,-0.3208230137825012,-0.5363011956214905
1732873218152149800,11.805149658203124,13.129801750183105,0.090979665517807,-0.33758243918418884
1732873218162129000,11.81512890625,11.192893028259277,0.6177040338516235,-0.08379705995321274
1732873218172138800,11.825138671875,9.351752281188965,1.1348515748977661,0.11971008777618408
1732873218182148600,11.835148681640625,8.17141056060791,1.522712230682373,0.3734954595565796
1732873218192158500,11.845158447265625,7.548917770385742,1.9129672050476074,0.5434837937355042
1732873218202137600,11.8551376953125,7.503427982330322,2.2577321529388428,0.5099649429321289
1732873218212147200,11.865147216796874,7.661445617675781,2.408566951751709,0.5315127968788147
1732873218222157000,11.875156982421874,7.762001991271973,2.4851813316345215,0.689530074596405
1732873218232136200,11.88513623046875,7.728483200073242,2.470816135406494,0.7733271718025208
1732873218242146000,11.89514599609375,7.687781810760498,2.403778553009033,0.8786720037460327
1732873218252156000,11.905156005859375,7.884106159210205,2.3798365592956543,0.871489405632019
1732873218262135000,11.915135009765624,8.360552787780762,2.1523873805999756,0.7637503147125244
1732873218272145000,11.925144775390624,9.014169692993164,1.9129672050476074,0.6799532771110535
1732873218282154800,11.93515478515625,9.813833236694336,1.6663644313812256,0.44532153010368347
1732873218292134000,11.9451337890625,10.532093048095703,1.4867992401123047,0.17717093229293823
1732873218302143700,11.955143798828125,11.200075149536133,1.3503297567367554,-0.06703764945268631
1732873218312647200,11.965647216796874,11.480196952819824,1.3000515699386597,-0.16998831927776337
1732873218322626300,11.975626220703125,11.264719009399414,1.1971008777618408,-0.1628057211637497
1732873218332636200,11.98563623046875,10.723628997802734,1.1540051698684692,0.019153613597154617
1732873218342646000,11.99564599609375,10.1753568649292,1.2856862545013428,0.026336219161748886
1732873218352625200,12.005625244140624,9.931148529052734,1.3192051649093628,0.12928688526153564
1732873218362635000,12.015635009765624,9.95748519897461,1.2473790645599365,0.2801215946674347
1732873218372644900,12.025644775390624,10.295066833496094,1.139639973640442,0.44771572947502136
1732873218382624000,12.0356240234375,10.788272857666016,1.0462661981582642,0.44771572947502136
1732873218392633900,12.0456337890625,11.30302619934082,1.0007762908935547,0.26815059781074524
1732873218402643500,12.0556435546875,11.504138946533203,0.9097966551780701,0.17956513166427612
1732873218412622600,12.06562255859375,11.437101364135742,0.7565677165985107,0.17238251864910126
1732873218422632400,12.075632568359374,11.068394660949707,0.6368576288223267,0.15083470940589905
1732873218432642300,12.085642333984374,10.548852920532227,0.47644615173339844,0.19871874153614044
1732873218442652200,12.095652099609374,10.08198356628418,0.42856210470199585,0.26815059781074524
1732873218452631300,12.10563134765625,9.493009567260742,0.545877993106842,0.35434186458587646
1732873218462641200,12.11564111328125,8.93037223815918,1.256955862045288,-0.15801730751991272
1732873218472651000,12.125651123046875,8.901641845703125,2.27209734916687,-0.1364694982767105
1732873218482630100,12.135630126953124,8.789113998413086,2.7461493015289307,-0.26336219906806946
1732873218492639700,12.1456396484375,8.542511940002441,2.3367409706115723,-0.043095629662275314
1732873218502649600,12.155649658203124,8.559270858764648,0.730231523513794,1.4772224426269531
1732873218512628700,12.165628662109375,9.586383819580078,-0.6584054827690125,2.5019407272338867
1732873218522638600,12.175638671875,11.793837547302246,-1.8722656965255737,2.6886885166168213
1732873218532648400,12.1856484375,14.336480140686035,-2.2888567447662354,1.843535304069519
1732873218542627600,12.195627685546874,16.733076095581055,-2.2361843585968018,1.316810965538025
1732873218552637400,12.205637451171874,17.393875122070312,-1.7142484188079834,1.3479355573654175
1732873218562647300,12.215647216796874,15.962142944335938,-0.8044517636299133,1.3527239561080933
1732873218572626400,12.22562646484375,13.67807388305664,-0.009576806798577309,1.434126853942871
1732873218582636300,12.23563623046875,10.405200958251953,0.5482721924781799,1.9991583824157715
1732873218592646000,12.24564599609375,7.268796443939209,1.314416766166687,2.341529369354248
1732873218602625000,12.255625,5.145139217376709,1.9728221893310547,2.363077163696289
1732873218612635000,12.265634765625,3.31118106842041,2.406172752380371,2.5115175247192383
1732873218622644700,12.275644775390624,2.360682964324951,2.494758129119873,2.5761611461639404
1732873218632623900,12.285623779296875,2.2673089504241943,2.166752576828003,2.7078421115875244
1732873218642633700,12.2956337890625,3.141192674636841,1.4221558570861816,2.853888511657715
1732873218652643600,12.3056435546875,5.195417881011963,0.507570743560791,2.58813214302063
1732873218662622700,12.315622802734374,7.69735860824585,-0.12449848651885986,1.8267759084701538
1732873218672632600,12.325632568359374,10.445901870727539,-0.5434837937355042,0.8140285611152649
1732873218682642200,12.33564208984375,12.583924293518066,-0.5722141861915588,-0.047884032130241394
1732873218692652000,12.345652099609374,14.31014347076416,-0.4908113479614258,-0.4572925269603729
1732873218702631200,12.355631103515625,14.894329071044922,-0.1867477297782898,-0.6440402865409851
1732873218712641000,12.36564111328125,14.415488243103027,0.11252748221158981,-0.6847416758537292
1732873218722651000,12.37565087890625,13.03403377532959,0.45010992884635925,-0.47644615173339844
1732873218732630000,12.385630126953124,11.465831756591797,0.7493851184844971,-0.2537853717803955
1732873218742639900,12.395639892578124,9.90241813659668,1.036689281463623,0.021547814831137657
1732873218752649700,12.405649658203124,8.856152534484863,1.2617442607879639,0.31842881441116333
1732873218762628900,12.41562890625,8.099584579467773,1.3718775510787964,0.47884035110473633
1732873218772638500,12.425638427734375,7.817068576812744,1.4532804489135742,0.4836287498474121
1732873218782648300,12.4356484375,7.8529815673828125,1.6424223184585571,0.3016694188117981
1732873218792627700,12.445627685546874,7.99184513092041,1.7573440074920654,0.17956513166427612
1732873218802637300,12.45563720703125,8.149862289428711,1.8722656965255737,0.10295066982507706
1732873218812647200,12.465647216796874,8.22887134552002,1.9847931861877441,0.07422025501728058
1732873218822626300,12.475626220703125,8.286332130432129,2.126051187515259,-0.023942016065120697
1732873218832636200,12.48563623046875,8.348581314086914,2.166752576828003,-0.16998831927776337
1732873218842646000,12.49564599609375,8.413225173950195,2.1571757793426514,-0.23702596127986908
1732873218852625200,12.505625244140624,8.576030731201172,2.0901381969451904,-0.31364041566848755
1732873218862635000,12.515635009765624,8.89685344696045,1.9584569931030273,-0.5626373887062073
1732873218872644900,12.525644775390624,9.337387084960938,1.9345149993896484,-0.7661445140838623
1732873218882624000,12.5356240234375,9.732429504394531,1.9488801956176758,-0.9217676520347595
1732873218892633900,12.5456337890625,10.086771965026855,1.9057846069335938,-1.0749965906143188
1732873218902643500,12.5556435546875,10.345345497131348,1.944091796875,-1.2497732639312744
1732873218912622600,12.56562255859375,10.685321807861328,1.941697597503662,-1.4077905416488647
1732873218922632400,12.575632568359374,10.912771224975586,1.9704279899597168,-1.6496049165725708
1732873218932642300,12.585642333984374,11.025299072265625,1.9105730056762695,-1.7836803197860718
1732873218942652200,12.595652099609374,11.063606262207031,2.0159177780151367,-1.9584569931030273
1732873218952631300,12.60563134765625,11.1474027633667,2.1356279850006104,-2.013523578643799
1732873218962641200,12.61564111328125,11.267112731933594,2.274491548538208,-2.0805611610412598
1732873218972651000,12.625651123046875,11.425130844116211,2.4827871322631836,-2.1380221843719482
1732873218982630100,12.635630126953124,11.652579307556152,2.889801502227783,-2.1284453868865967
1732873218992639700,12.6456396484375,11.81059741973877,3.332728862762451,-2.056619167327881
1732873219002649600,12.655649658203124,11.851298332214355,3.6966474056243896,-2.2146365642547607
1732873219012628700,12.665628662109375,11.647790908813477,3.7636849880218506,-2.300827741622925
1732873219022638600,12.675638671875,11.439496040344238,3.354276657104492,-2.2242133617401123
1732873219032648400,12.6856484375,11.60948371887207,2.2242133617401123,-1.922544002532959
1732873219042627600,12.695627685546874,12.088324546813965,0.7876923680305481,-1.721431016921997
1732873219052637400,12.705637451171874,13.464990615844727,-0.6847416758537292,-1.8148049116134644
1732873219062647300,12.715647216796874,15.210363388061523,-1.7501614093780518,-2.2385785579681396
1732873219072626400,12.72562646484375,17.25979995727539,-2.38462495803833,-2.9089550971984863
1732873219082636300,12.73563623046875,17.645265579223633,-2.7126305103302,-2.956839084625244
1732873219092646000,12.74564599609375,16.606182098388672,-2.4875755310058594,-2.6168625354766846
1732873219102625000,12.755625,14.654908180236816,-2.250549554824829,-2.540247917175293
1732873219112635000,12.765634765625,12.22000503540039,-1.8698714971542358,-2.3295583724975586
1732873219122644700,12.775644775390624,10.005369186401367,-1.4484920501708984,-1.699883222579956
1732873219132624000,12.785623779296875,7.436390399932861,-0.8930372595787048,-1.259350061416626
1732873219142633700,12.7956337890625,5.035006046295166,-0.42377370595932007,-1.048660397529602
1732873219152643600,12.8056435546875,3.1531636714935303,-0.181959331035614,-0.6943184733390808
1732873219162622700,12.815622802734374,2.1715409755706787,-0.023942016065120697,-0.33758243918418884
1732873219172632600,12.825632568359374,1.98958158493042,0.12210428714752197,-0.4141969084739685
1732873219182642200,12.83564208984375,3.021482467651367,0.38546648621559143,-0.7805097699165344
1732873219192652000,12.845652099609374,4.355052947998047,0.6057330369949341,-0.9169792532920837
1732873219202631200,12.855631103515625,5.896918773651123,0.7110779285430908,-0.8403648138046265
1732873219212641000,12.86564111328125,6.833051681518555,0.8044517636299133,-0.5817909836769104
1732873219222651000,12.87565087890625,7.378929615020752,0.9002198576927185,-0.3064578175544739
1732873219232630000,12.885630126953124,7.532158374786377,0.8690952062606812,0.0071826050989329815
1732873219242640000,12.895639892578124,7.484274387359619,0.8571242094039917,0.3495534360408783
1732873219252649700,12.905649658203124,7.568071365356445,0.9816226959228516,0.17477671802043915
1732873219262628900,12.91562890625,7.987056732177734,1.1827356815338135,-0.2346317619085312
1732873219272638500,12.925638427734375,8.71728801727295,1.460463047027588,-0.5099649429321289
