time,seconds_elapsed,z,y,x
1732873685920452600,0.18945263671875,0.14893436431884766,0.01696932315826416,-0.007572293281555176
1732873685930797800,0.1997978515625,0.1798419952392578,-0.003604292869567871,-0.06181895732879639
1732873685940734200,0.209734130859375,0.23020553588867188,0.009229183197021484,-0.06119966506958008
1732873685950713600,0.219713623046875,0.1798229217529297,0.0036052465438842773,-0.040593862533569336
1732873685960723200,0.22972314453125,0.08395576477050781,-0.0018857717514038086,-0.015218794345855713
1732873685970732800,0.23973291015625,0.05767822265625,0.014777541160583496,0.0575329065322876
1732873685980742700,0.24974267578125,0.09694957733154297,0.0021973848342895508,0.07115525007247925
1732873685990722000,0.25972216796875,0.04905986785888672,0.029245376586914062,0.0006356239318847656
1732873686000732000,0.26973193359375,0.0180511474609375,0.07819616794586182,-0.04911673069000244
1732873686010741500,0.279741455078125,0.0034198760986328125,0.07041501998901367,-0.053913414478302
1732873686020721000,0.289720947265625,0.05061817169189453,0.06915175914764404,-0.03847348690032959
1732873686030730800,0.299730712890625,0.10775089263916016,0.03561699390411377,0.03043532371520996
1732873686040740400,0.309740234375,0.16019725799560547,0.006574749946594238,0.06923401355743408
1732873686050719500,0.319719482421875,0.20201492309570312,0.006151795387268066,0.035395145416259766
1732873686060729300,0.329729248046875,0.18529224395751953,0.04293692111968994,0.0495837926864624
1732873686070739000,0.339739013671875,0.10498046875,0.010461091995239258,0.08646604418754578
1732873686080718300,0.34971826171875,0.019347190856933594,-0.019226551055908203,0.13138994574546814
1732873686090728200,0.359728271484375,-0.038817405700683594,0.009159326553344727,0.11173942685127258
1732873686100737800,0.36973779296875,-0.058628082275390625,-0.00588536262512207,0.09012562036514282
1732873686110717200,0.37971728515625,-0.08021163940429688,-0.007445335388183594,-0.03417089581489563
1732873686120727000,0.38972705078125,-0.06989669799804688,0.0034819841384887695,-0.024567782878875732
1732873686130737000,0.39973681640625,-0.05086994171142578,-0.02340412139892578,0.00034371018409729004
1732873686140716000,0.409716064453125,0.016033172607421875,-0.02835845947265625,0.07629844546318054
1732873686150726000,0.419725830078125,0.08001899719238281,-0.026120305061340332,0.10287651419639587
1732873686160735500,0.429735595703125,0.1816091537475586,0.011475324630737305,0.12607699632644653
1732873686170714600,0.439714599609375,0.11858081817626953,0.026102185249328613,0.12408682703971863
1732873686180724500,0.449724365234375,0.032352447509765625,0.038411855697631836,0.10303038358688354
1732873686190734300,0.459734375,-0.0730733871459961,0.018603920936584473,0.01764121651649475
1732873686200713500,0.46971337890625,-0.04683494567871094,0.0013679265975952148,0.03766632080078125
1732873686210723300,0.479723388671875,0.12781524658203125,-0.020011544227600098,0.0039044618606567383
1732873686220733200,0.489733154296875,0.3240213394165039,-0.04807233810424805,-0.035308629274368286
1732873686230742800,0.49974267578125,0.3981647491455078,-0.0163419246673584,-0.05688437819480896
1732873686240722200,0.50972216796875,0.27376270294189453,-0.02718031406402588,-0.07755973935127258
1732873686250732000,0.51973193359375,0.11835384368896484,-0.010632753372192383,-0.12344014644622803
1732873686260741600,0.52974169921875,0.022838592529296875,0.01745450496673584,-0.16016006469726562
1732873686270720800,0.539720703125,-0.053534507751464844,0.040889620780944824,-0.19920051097869873
1732873686280730400,0.54973046875,-0.11321258544921875,0.09841048717498779,-0.21894794702529907
1732873686290740200,0.559740234375,-0.16101646423339844,0.10386228561401367,-0.1339505910873413
1732873686300719600,0.5697197265625,-0.22092437744140625,0.11234772205352783,0.028603553771972656
1732873686310729500,0.5797294921875,-0.2857542037963867,0.05458939075469971,0.10396328568458557
1732873686320739000,0.589739013671875,-0.29077720642089844,0.04289674758911133,0.09847766160964966
1732873686330718500,0.599718505859375,-0.22160816192626953,0.024808287620544434,0.056612879037857056
1732873686340728300,0.609728271484375,-0.037543296813964844,0.005304932594299316,0.022176593542099
1732873686350738000,0.619738037109375,0.08188724517822266,-0.004063606262207031,-0.07228913903236389
1732873686360717000,0.629717041015625,0.21087646484375,0.008454442024230957,-0.06316182017326355
1732873686370727000,0.639726806640625,0.3110628128051758,0.00694584846496582,0.019308120012283325
1732873686380736500,0.649736572265625,0.32979297637939453,-0.03307974338531494,0.10909298062324524
1732873686390716000,0.6597158203125,0.25040340423583984,-0.013999462127685547,0.13761752843856812
1732873686400725800,0.669725830078125,0.16154098510742188,0.00880587100982666,0.15336865186691284
1732873686410735400,0.6797353515625,0.07995891571044922,0.014034032821655273,0.15221792459487915
1732873686420714800,0.68971484375,0.02238750457763672,-0.012310624122619629,0.15382900834083557
1732873686430724600,0.699724609375,0.03666400909423828,-0.08417689800262451,0.15350258350372314
1732873686440734200,0.709734130859375,-0.0017490386962890625,-0.10302650928497314,0.06055876612663269
1732873686450713600,0.719713623046875,-0.023354530334472656,-0.05505859851837158,-0.029415994882583618
1732873686460723200,0.72972314453125,-0.06883049011230469,-0.05063164234161377,-0.09019660949707031
1732873686470732800,0.73973291015625,-0.1310272216796875,0.011066317558288574,-0.08345159888267517
1732873686480742700,0.74974267578125,-0.04959583282470703,0.03957319259643555,-0.04753750562667847
1732873686490722000,0.75972216796875,-0.07124805450439453,0.01165616512298584,-0.023693948984146118
1732873686500732000,0.76973193359375,-0.10261154174804688,-0.008194804191589355,-0.02215924859046936
1732873686510741500,0.779741455078125,-0.1101064682006836,0.001063704490661621,-0.038186460733413696
1732873686520721000,0.789720947265625,-0.11046791076660156,0.05628311634063721,-0.10904711484909058
1732873686530730800,0.799730712890625,-0.1705608367919922,0.10382223129272461,-0.22835975885391235
1732873686540740400,0.809740234375,-0.17064762115478516,0.15064895153045654,-0.24281224608421326
1732873686550719500,0.819719482421875,-0.13714599609375,0.12791895866394043,-0.16715174913406372
1732873686560729300,0.829729248046875,-0.13486194610595703,0.07492399215698242,-0.13424009084701538
1732873686570739000,0.839739013671875,0.006131172180175781,0.09006071090698242,-0.10202991962432861
1732873686580718300,0.84971826171875,0.21629905700683594,0.047365665435791016,-0.1156759262084961
1732873686590728200,0.859728271484375,0.2801389694213867,0.016228675842285156,-0.09472191333770752
1732873686600737800,0.86973779296875,0.28883838653564453,-0.029205322265625,-0.06858986616134644
1732873686610717200,0.87971728515625,0.28328800201416016,-0.035005927085876465,0.016928553581237793
1732873686620727000,0.88972705078125,0.1678028106689453,-0.061493635177612305,0.05247870087623596
1732873686630737000,0.89973681640625,0.038120269775390625,-0.06792128086090088,0.1907615065574646
1732873686640716000,0.909716064453125,-0.041194915771484375,-0.07259881496429443,0.2359320968389511
1732873686650726000,0.919725830078125,0.001514434814453125,-0.07663607597351074,0.3121330440044403
1732873686660735500,0.929735595703125,0.1110992431640625,-0.0482783317565918,0.3639571964740753
1732873686670714600,0.939714599609375,0.23485469818115234,-0.05207192897796631,0.3620888888835907
1732873686680724500,0.949724365234375,0.3320503234863281,-0.06648313999176025,0.40843918919563293
1732873686690734300,0.959734375,0.41236019134521484,-0.06614530086517334,0.44742265343666077
1732873686700713500,0.96971337890625,0.34427738189697266,-0.028487563133239746,0.4386134445667267
1732873686710723300,0.979723388671875,0.09206771850585938,0.014079451560974121,0.3541852533817291
1732873686720733200,0.989733154296875,-0.11196708679199219,0.06572556495666504,0.37106725573539734
1732873686730742800,0.99974267578125,-0.14103317260742188,0.10376107692718506,0.3900171220302582
1732873686740722200,1.00972216796875,-0.14617252349853516,0.0700829029083252,0.47294819355010986
1732873686750732000,1.01973193359375,-0.01746082305908203,0.07135772705078125,0.6104801893234253
1732873686760741600,1.02974169921875,0.07751655578613281,0.05980706214904785,0.7261390686035156
1732873686770720800,1.039720703125,0.10533905029296875,0.07776832580566406,0.7575779557228088
1732873686780730400,1.04973046875,0.12831974029541016,0.08429360389709473,0.7941625714302063
1732873686790740200,1.059740234375,0.21118927001953125,0.05971646308898926,0.8750920295715332
1732873686800719600,1.0697197265625,0.32765674591064453,0.03980576992034912,1.0040147304534912
1732873686810729500,1.0797294921875,0.43705081939697266,-0.011586904525756836,1.109510064125061
1732873686820739000,1.089739013671875,0.4342002868652344,-0.0505218505859375,1.1516666412353516
1732873686830718500,1.099718505859375,0.35251712799072266,-0.13366329669952393,1.1337635517120361
1732873686840728300,1.109728271484375,0.2829151153564453,-0.2029629945755005,1.0367374420166016
1732873686850738000,1.119738037109375,0.270782470703125,-0.23593223094940186,0.9977233409881592
1732873686860717000,1.129717041015625,0.38300228118896484,-0.30062395334243774,0.9704397320747375
1732873686870727000,1.139726806640625,0.49026012420654297,-0.3657721281051636,0.926263689994812
1732873686880736500,1.149736572265625,0.5303316116333008,-0.4340784549713135,0.9123929142951965
1732873686890716000,1.1597158203125,0.5368499755859375,-0.44433367252349854,0.887064516544342
1732873686900725800,1.169725830078125,0.4165811538696289,-0.39771074056625366,0.8688635230064392
1732873686910735400,1.1797353515625,0.25092220306396484,-0.3706677556037903,0.8031402826309204
1732873686920714800,1.18971484375,0.18105411529541016,-0.40314429998397827,0.7360094785690308
1732873686930724600,1.199724609375,0.206939697265625,-0.4375118017196655,0.7225157022476196
1732873686940734200,1.209734130859375,0.3046703338623047,-0.41458404064178467,0.6597110033035278
1732873686950713600,1.219713623046875,0.39055442810058594,-0.3597373366355896,0.5301550030708313
1732873686960723200,1.22972314453125,0.38326263427734375,-0.2306634783744812,0.3955093324184418
1732873686970732800,1.23973291015625,0.3212890625,-0.07700037956237793,0.24282851815223694
1732873686980742700,1.24974267578125,0.17099666595458984,0.12424302101135254,0.06266593933105469
1732873686990722000,1.25972216796875,0.07599353790283203,0.24671697616577148,-0.02106267213821411
1732873687000732000,1.26973193359375,0.03140735626220703,0.2888544797897339,0.010552749037742615
1732873687010741500,1.279741455078125,0.0731496810913086,0.34135282039642334,0.03774037957191467
1732873687020721000,1.289720947265625,0.11260318756103516,0.3878321647644043,0.09595119953155518
1732873687030730800,1.299730712890625,0.11872386932373047,0.3511524200439453,0.1531684845685959
1732873687040740400,1.309740234375,0.029593467712402344,0.3839682340621948,0.207790344953537
1732873687050719500,1.319719482421875,-0.10451889038085938,0.3669215440750122,0.1831231266260147
1732873687060729300,1.329729248046875,-0.2573537826538086,0.313030481338501,0.16227154433727264
1732873687070739000,1.339739013671875,-0.4194765090942383,0.15920519828796387,0.2467329502105713
1732873687080718300,1.34971826171875,-0.41648006439208984,-0.021763920783996582,0.5010333061218262
1732873687090728200,1.359728271484375,-0.2966585159301758,-0.19538331031799316,0.8245153427124023
1732873687100737800,1.36973779296875,-0.29471683502197266,-0.2678649425506592,1.0910731554031372
1732873687110717200,1.37971728515625,-0.3912839889526367,-0.2361898422241211,1.2498705387115479
1732873687120727000,1.38972705078125,-0.39711666107177734,-0.10817790031433105,1.2240227460861206
1732873687130737000,1.39973681640625,-0.26905155181884766,-0.00674891471862793,1.1563745737075806
1732873687140716000,1.409716064453125,-0.03338623046875,0.06550705432891846,1.0545353889465332
1732873687150726000,1.419725830078125,0.11126041412353516,0.06986415386199951,1.056390404701233
1732873687160735500,1.429735595703125,0.2106180191040039,0.09351706504821777,1.072295069694519
1732873687170714600,1.439714599609375,0.22896766662597656,0.1755068302154541,1.006819248199463
1732873687180724500,1.449724365234375,0.19512939453125,0.2476578950881958,0.9702359437942505
1732873687190734300,1.459734375,0.12848377227783203,0.2656135559082031,0.9395681619644165
1732873687200713500,1.46971337890625,0.040808677673339844,0.24506568908691406,0.8655784130096436
1732873687210723300,1.479723388671875,-0.12777137756347656,0.1626967191696167,0.8644797801971436
1732873687220733200,1.489733154296875,-0.26718997955322266,0.09119188785552979,0.8638900518417358
1732873687230742800,1.49974267578125,-0.324951171875,0.017022132873535156,0.8056594133377075
1732873687240722200,1.50972216796875,-0.36852550506591797,-0.015527844429016113,0.7398372888565063
1732873687250732000,1.51973193359375,-0.275909423828125,-0.008620500564575195,0.5708799958229065
1732873687260741600,1.52974169921875,-0.04028606414794922,-0.010507702827453613,0.46189457178115845
1732873687270720800,1.539720703125,0.15182876586914062,0.02566242218017578,0.27920079231262207
1732873687280730400,1.54973046875,0.10449409484863281,0.176361083984375,0.012587010860443115
1732873687290740200,1.559740234375,-0.07673835754394531,0.38402259349823,-0.3070983290672302
1732873687300719600,1.5697197265625,-0.2534036636352539,0.49280989170074463,-0.516276478767395
1732873687310729500,1.5797294921875,-0.6525020599365234,0.5381669998168945,-0.3832479417324066
1732873687320739000,1.589739013671875,-1.135544776916504,0.3284299373626709,-0.5276551246643066
1732873687330718500,1.599718505859375,-1.4136676788330078,-0.09821426868438721,-0.8043701648712158
1732873687340728300,1.609728271484375,-0.9652509689331055,-0.7202905416488647,-1.1205649375915527
1732873687350738000,1.619738037109375,0.24383068084716797,-1.4398431777954102,-1.3010690212249756
1732873687360717000,1.629717041015625,1.8427619934082031,-1.6370515823364258,-1.1914069652557373
1732873687370727000,1.639726806640625,3.3562984466552734,-1.5072695016860962,-1.2690963745117188
1732873687380736500,1.649736572265625,4.415279388427734,-1.0127627849578857,-1.7215217351913452
1732873687390716000,1.6597158203125,4.253310203552246,-0.4539361596107483,-2.2939977645874023
1732873687400725800,1.669725830078125,2.5753793716430664,0.10732126235961914,-2.474658489227295
1732873687410735400,1.6797353515625,1.0216970443725586,0.3415038585662842,-2.287903308868408
1732873687420714800,1.68971484375,-0.27330684661865234,0.38822805881500244,-1.5952367782592773
1732873687430724600,1.699724609375,-1.1104793548583984,0.5334084033966064,-0.867864191532135
1732873687440734200,1.709734130859375,-1.8264846801757812,0.7457795143127441,-0.6311531662940979
1732873687450713600,1.719713623046875,-1.9339003562927246,0.9135187864303589,-0.9859791398048401
1732873687460723200,1.72972314453125,-1.601893424987793,1.123072862625122,-1.9397406578063965
1732873687470732800,1.73973291015625,-0.9392566680908203,1.2771426439285278,-3.006884813308716
1732873687480742700,1.74974267578125,-0.12719058990478516,1.2938963174819946,-3.8926830291748047
1732873687490722000,1.75972216796875,0.9966535568237305,1.1626880168914795,-4.482515811920166
1732873687500731600,1.769731689453125,1.8875789642333984,0.9783803224563599,-4.384303569793701
1732873687510741500,1.779741455078125,2.159181594848633,0.727468729019165,-3.6896238327026367
1732873687520721000,1.789720947265625,1.7698869705200195,0.553903341293335,-3.025912284851074
1732873687530730800,1.799730712890625,1.0553979873657227,0.42367422580718994,-2.255599021911621
1732873687540740400,1.809740234375,0.28096961975097656,0.32399213314056396,-1.7021284103393555
1732873687550719500,1.819719482421875,-0.5351047515869141,0.26656925678253174,-1.4701972007751465
1732873687560729300,1.829729248046875,-1.0014991760253906,0.2561589479446411,-1.5165479183197021
1732873687570739200,1.8397392578125,-1.1769847869873047,0.3256065845489502,-1.8879828453063965
1732873687580718300,1.84971826171875,-1.0346755981445312,0.49286162853240967,-2.453596830368042
1732873687590728200,1.859728271484375,-0.8404216766357422,0.6058456897735596,-3.011977195739746
1732873687600737800,1.86973779296875,-0.8126449584960938,0.7268197536468506,-3.3225624561309814
1732873687610717200,1.87971728515625,-0.9340038299560547,0.6681240797042847,-3.273604154586792
1732873687620727000,1.88972705078125,-0.9733734130859375,0.5418137311935425,-2.8902297019958496
1732873687630737000,1.89973681640625,-1.007308006286621,0.34202051162719727,-2.3077075481414795
1732873687640716000,1.909716064453125,-1.191366195678711,0.0707237720489502,-1.4641169309616089
1732873687650726000,1.919725830078125,-1.4842634201049805,-0.04481697082519531,-0.8224089741706848
1732873687660735500,1.929735595703125,-1.731278896331787,-0.06265604496002197,-0.4614214599132538
1732873687670714600,1.939714599609375,-1.6649599075317383,0.028040170669555664,-0.35774803161621094
1732873687680724500,1.949724365234375,-1.3506441116333008,0.1510324478149414,-0.4544479250907898
1732873687690734300,1.959734375,-0.8342618942260742,0.27365386486053467,-0.9210140109062195
1732873687700713500,1.96971337890625,-0.2053394317626953,0.4354677200317383,-1.378718614578247
1732873687710723300,1.979723388671875,0.43704986572265625,0.663636326789856,-1.8788044452667236
1732873687720733200,1.989733154296875,1.0864410400390625,0.8372330665588379,-2.1274919509887695
1732873687730742800,1.99974267578125,1.5901927947998047,0.9569391012191772,-2.181298017501831
1732873687740722200,2.00972216796875,1.7310457229614258,0.9938578605651855,-2.1037049293518066
1732873687750732000,2.01973193359375,1.5230913162231445,1.0355937480926514,-2.013869285583496
1732873687760741600,2.02974169921875,1.1082344055175781,1.0284050703048706,-2.0592315196990967
1732873687770720800,2.039720703125,0.6466064453125,1.0312700271606445,-1.9708014726638794
1732873687780730400,2.04973046875,0.1285114288330078,0.9438797235488892,-2.0255284309387207
1732873687790740200,2.059740234375,-0.34365367889404297,0.8574379682540894,-1.8725789785385132
1732873687800719600,2.0697197265625,-0.49014759063720703,0.7868940234184265,-1.6040899753570557
1732873687810729500,2.0797294921875,-0.6942901611328125,0.7215836048126221,-1.405428409576416
1732873687820739000,2.089739013671875,-0.869959831237793,0.7018731832504272,-1.2609206438064575
1732873687830718500,2.099718505859375,-0.9164829254150391,0.5429413318634033,-1.0322396755218506
1732873687840728300,2.109728271484375,-0.9634370803833008,0.21319901943206787,-0.6082245707511902
1732873687850738000,2.119738037109375,-1.0852861404418945,-0.13431024551391602,-0.3120537996292114
1732873687860717000,2.129717041015625,-1.140458106994629,-0.42099565267562866,-0.4154601991176605
1732873687870727000,2.139726806640625,-0.9568843841552734,-0.5214986801147461,-0.634658932685852
1732873687880736500,2.149736572265625,-0.44158077239990234,-0.6398625373840332,-0.805280864238739
1732873687890716000,2.1597158203125,0.2759685516357422,-0.7588660717010498,-0.8944066166877747
1732873687900725800,2.169725830078125,1.0314044952392578,-0.8054829835891724,-1.0815067291259766
1732873687910735400,2.1797353515625,1.3843879699707031,-0.7464531064033508,-1.268545150756836
1732873687920714800,2.18971484375,1.313669204711914,-0.6977492570877075,-1.3819565773010254
1732873687930724600,2.199724609375,0.8371267318725586,-0.6249192953109741,-1.3302745819091797
1732873687940734200,2.209734130859375,0.22504329681396484,-0.5631200671195984,-1.305720567703247
1732873687950713300,2.21971337890625,-0.20225811004638672,-0.4429863691329956,-1.245426058769226
1732873687960723200,2.22972314453125,-0.36626625061035156,-0.3478447198867798,-1.0606333017349243
1732873687970732800,2.23973291015625,-0.43941307067871094,-0.037682533264160156,-0.38831639289855957
1732873687980742700,2.24974267578125,-0.25202083587646484,0.2787299156188965,-0.06960804015398026
1732873687990722000,2.25972216796875,0.012426376342773438,0.4819289445877075,0.03431205451488495
1732873688000732000,2.26973193359375,0.2012767791748047,0.5636648535728455,0.09052503108978271
1732873688010741500,2.279741455078125,0.2705707550048828,0.7024019360542297,-0.056034207344055176
1732873688020721000,2.289720947265625,0.24526309967041016,0.7930845022201538,-0.22816455364227295
1732873688030730800,2.299730712890625,0.23115921020507812,0.7805911302566528,-0.09447029232978821
1732873688040740400,2.309740234375,0.008115768432617188,0.6436519622802734,0.41539669036865234
1732873688050719500,2.319719482421875,-0.22396373748779297,0.4705674648284912,0.9771361351013184
1732873688060729300,2.329729248046875,-0.18524551391601562,0.41674184799194336,1.5161073207855225
1732873688070739200,2.3397392578125,0.0956277847290039,0.277782678604126,1.5516003370285034
1732873688080718300,2.34971826171875,0.4589681625366211,0.6293057203292847,-0.5762391090393066
1732873688090728200,2.359728271484375,1.4459037780761719,0.7340124845504761,-0.43517518043518066
1732873688100737800,2.36973779296875,1.7785205841064453,-0.7383594512939453,0.3828257620334625
1732873688110717200,2.37971728515625,3.090184211730957,-1.7283735275268555,0.8165377974510193
1732873688120727000,2.38972705078125,4.573929786682129,-2.339805841445923,1.4835032224655151
1732873688130737000,2.39973681640625,5.035604476928711,-2.5581283569335938,1.9087245464324951
1732873688140716000,2.409716064453125,5.058408737182617,-2.594493865966797,2.1787221431732178
1732873688150726000,2.419725830078125,4.489445686340332,-2.1192479133605957,1.553390622138977
1732873688160735500,2.429735595703125,3.4255847930908203,-1.6071720123291016,0.8468793630599976
1732873688170714600,2.439714599609375,1.6928367614746094,-1.2052853107452393,0.4572908282279968
1732873688180724500,2.449724365234375,0.08095264434814453,-1.0059977769851685,0.4578802287578583
1732873688190734300,2.459734375,-1.5044984817504883,-0.8980823755264282,0.8133973479270935
1732873688200713500,2.46971337890625,-2.6726322174072266,-0.8738963603973389,0.9012675881385803
1732873688210723300,2.479723388671875,-3.4799647331237793,-0.7646548748016357,0.47651153802871704
1732873688220733200,2.489733154296875,-4.050959587097168,-0.7018524408340454,-0.42877301573753357
1732873688230742800,2.49974267578125,-4.0135579109191895,-0.5440974235534668,-1.2058874368667603
1732873688240722200,2.50972216796875,-3.612804889678955,-0.5294058918952942,-1.919803500175476
1732873688250732000,2.51973193359375,-3.0119943618774414,-0.8883561491966248,-1.859588384628296
1732873688260741600,2.52974169921875,-1.6248512268066406,-1.1703505516052246,-1.6211172342300415
1732873688270720800,2.539720703125,0.05549049377441406,-1.2065637111663818,-1.4304612874984741
1732873688280730400,2.54973046875,1.6665029525756836,-1.2234535217285156,-0.8105406165122986
1732873688290740200,2.559740234375,2.6907005310058594,-1.2937042713165283,0.05115644633769989
1732873688300719600,2.5697197265625,3.0990848541259766,-1.3127846717834473,0.855209469795227
1732873688310729500,2.5797294921875,2.947429656982422,-1.0493731498718262,1.1232753992080688
1732873688320739000,2.589739013671875,2.3508481979370117,-0.6786030530929565,0.9685829877853394
1732873688330718500,2.599718505859375,1.3163843154907227,-0.44154584407806396,0.6945089101791382
1732873688340728300,2.609728271484375,0.42557334899902344,-0.35939574241638184,0.7916721105575562
1732873688350738000,2.619738037109375,-0.42999267578125,-0.35416895151138306,0.8944166898727417
1732873688360717000,2.629717041015625,-1.056656837463379,-0.42996513843536377,1.1461067199707031
1732873688370727000,2.639726806640625,-1.5438785552978516,-0.5287671685218811,1.6378004550933838
1732873688380736800,2.64973681640625,-2.0068769454956055,-0.6231343150138855,1.8393688201904297
1732873688390716000,2.6597158203125,-2.3624753952026367,-0.6689321398735046,1.8803213834762573
1732873688400725800,2.669725830078125,-2.682481288909912,-0.7590516805648804,1.6264499425888062
1732873688410735400,2.6797353515625,-2.69937801361084,-0.7787436246871948,0.8757240772247314
1732873688420714800,2.68971484375,-1.8992114067077637,-0.7853280305862427,0.22366474568843842
1732873688430724600,2.699724609375,-0.7014617919921875,-0.9752331972122192,-0.2400139719247818
1732873688440734200,2.709734130859375,0.2690420150756836,-1.1527987718582153,-0.6318898797035217
1732873688450713600,2.719713623046875,0.9543838500976562,-1.3476216793060303,-0.7461845874786377
1732873688460723200,2.72972314453125,1.4414691925048828,-1.6316481828689575,-0.57832270860672
1732873688470732800,2.73973291015625,1.6685504913330078,-1.9630177021026611,-0.16134987771511078
1732873688480742700,2.74974267578125,1.5000991821289062,-2.2236742973327637,0.2276783585548401
1732873688490722000,2.75972216796875,1.1677379608154297,-2.4381418228149414,0.39535608887672424
1732873688500732000,2.76973193359375,0.8074865341186523,-2.497906446456909,0.26288148760795593
1732873688510741500,2.779741455078125,0.5099706649780273,-2.2544946670532227,-0.05840302258729935
1732873688520721000,2.789720947265625,0.28185176849365234,-1.7760975360870361,-0.5348197221755981
1732873688530730500,2.79973046875,0.1613445281982422,-1.277528166770935,-0.8462654948234558
1732873688540740400,2.809740234375,0.14123821258544922,-0.7273881435394287,-1.030177354812622
1732873688550719500,2.819719482421875,-0.0255889892578125,-0.23117661476135254,-1.0413371324539185
1732873688560729300,2.829729248046875,-0.2799186706542969,0.5790107250213623,-0.5865374803543091
1732873688570739200,2.8397392578125,-0.5685415267944336,0.7712299823760986,0.03603978455066681
1732873688580718300,2.84971826171875,-0.7816677093505859,0.6840173006057739,0.3877190947532654
1732873688590728200,2.859728271484375,-0.8002901077270508,0.4920657277107239,0.5824981927871704
1732873688600737800,2.86973779296875,-0.5922832489013672,0.1897788643836975,0.6409448981285095
1732873688610717200,2.87971728515625,-0.08135032653808594,-0.16420012712478638,0.2561212480068207
1732873688620727000,2.88972705078125,0.42597293853759766,-0.6301020383834839,-0.3259635865688324
1732873688630736600,2.899736572265625,1.1428766250610352,-1.1358195543289185,-0.7108063697814941
1732873688640716000,2.909716064453125,2.3283042907714844,-1.3979787826538086,-0.776133120059967
1732873688650726000,2.919725830078125,3.7983388900756836,-1.5188404321670532,-0.7409024834632874
1732873688660735500,2.929735595703125,4.44526481628418,-1.3588168621063232,-0.7511873841285706
1732873688670714600,2.939714599609375,4.272485733032227,-1.016889214515686,-0.47495579719543457
1732873688680724500,2.949724365234375,3.51717472076416,-0.4584839344024658,-0.27093279361724854
1732873688690734000,2.959734130859375,2.2460250854492188,0.2820289433002472,-0.381137490272522
1732873688700713500,2.96971337890625,0.5399618148803711,1.1118696928024292,-0.6940131187438965
1732873688710723300,2.979723388671875,-0.8256826400756836,1.7754125595092773,-0.8806127905845642
1732873688720733000,2.98973291015625,-1.8631410598754883,2.4376842975616455,-1.0092500448226929
1732873688730742800,2.99974267578125,-2.4937119483947754,3.019918918609619,-1.3102667331695557
1732873688740722200,3.00972216796875,-2.885037422180176,3.4605679512023926,-1.7676464319229126
1732873688750732000,3.01973193359375,-2.9511375427246094,3.404120445251465,-1.7648816108703613
1732873688760741600,3.02974169921875,-2.263355255126953,2.8739328384399414,-1.2550100088119507
1732873688770720800,3.039720703125,-0.9926853179931641,2.2366602420806885,-0.5459815263748169
1732873688780730600,3.049730712890625,0.18862152099609375,1.4632982015609741,0.15175983309745789
1732873688790740200,3.059740234375,1.154153823852539,0.8422936201095581,0.6855410933494568
1732873688800719600,3.0697197265625,1.6316118240356445,0.4874449372291565,0.862200915813446
1732873688810729500,3.0797294921875,1.9156675338745117,0.24098113179206848,1.0426934957504272
1732873688820739000,3.089739013671875,1.9346628189086914,0.1569167673587799,1.0267661809921265
1732873688830718500,3.099718505859375,1.5782413482666016,0.2235589623451233,0.7558907270431519
1732873688840728300,3.109728271484375,0.9135026931762695,0.3842851519584656,0.34203341603279114
1732873688850738000,3.119738037109375,-0.1265583038330078,0.5438792109489441,-0.1279088407754898
1732873688860717300,3.12971728515625,-0.9600019454956055,0.7095927596092224,-0.46884262561798096
1732873688870727000,3.139726806640625,-1.7209348678588867,0.9080874919891357,-0.8245542049407959
1732873688880736500,3.149736572265625,-2.2779617309570312,0.9971529245376587,-1.0414109230041504
1732873688890716000,3.1597158203125,-2.628969192504883,0.9884296655654907,-0.9542510509490967
1732873688900725800,3.169725830078125,-2.795839309692383,0.9023184776306152,-0.8026787042617798
1732873688910735400,3.1797353515625,-2.7549171447753906,0.9107929468154907,-0.820181667804718
1732873688920714800,3.18971484375,-2.592517852783203,0.8844420909881592,-0.6645862460136414
1732873688930724600,3.199724609375,-2.3493523597717285,0.908370316028595,-0.7084385752677917
1732873688940734500,3.209734375,-2.0660400390625,1.0621535778045654,-0.7555039525032043
1732873688950713300,3.21971337890625,-1.8839330673217773,1.2002490758895874,-0.9506779909133911
1732873688960723200,3.22972314453125,-1.4795045852661133,1.2680509090423584,-0.9775859117507935
1732873688970733000,3.239733154296875,-1.13531494140625,1.225534200668335,-0.7748305797576904
1732873688980742700,3.24974267578125,-0.8560981750488281,1.1180059909820557,-0.529396116733551
1732873688990722000,3.25972216796875,-0.27785205841064453,0.9947054386138916,-0.4749881625175476
1732873689000731600,3.269731689453125,0.1662912368774414,1.0413181781768799,-0.4996723532676697
1732873689010741500,3.279741455078125,0.859492301940918,0.8833812475204468,-0.2743850350379944
1732873689020721000,3.289720947265625,0.9576892852783203,0.8380866646766663,0.021757185459136963
1732873689030730500,3.29973046875,0.9812126159667969,0.39541900157928467,0.2197626531124115
1732873689040740400,3.309740234375,0.4946012496948242,0.19732141494750977,0.09139953553676605
1732873689050719500,3.319719482421875,-0.24654769897460938,0.30247950553894043,0.041538357734680176
1732873689060729300,3.329729248046875,-0.7622823715209961,0.20891344547271729,0.07593867182731628
1732873689070739200,3.3397392578125,-1.2300138473510742,0.13176977634429932,0.10449358820915222
1732873689080718300,3.34971826171875,-1.468327522277832,0.03398001194000244,-0.027277380228042603
1732873689090728200,3.359728271484375,-1.451359748840332,-0.3592071533203125,-0.054403647780418396
1732873689100737800,3.36973779296875,-1.0916881561279297,-0.7866393327713013,-0.2033865749835968
1732873689110717200,3.37971728515625,-0.48199939727783203,-1.104285478591919,-0.31465545296669006
1732873689120727000,3.38972705078125,0.17447853088378906,-1.2658389806747437,-0.4473044276237488
1732873689130737000,3.39973681640625,0.5600175857543945,-1.2304080724716187,-0.679742693901062
1732873689140716000,3.409716064453125,0.7483386993408203,-0.9540141820907593,-1.1576666831970215
1732873689150726000,3.419725830078125,0.8498306274414062,-0.6927652359008789,-1.2858622074127197
1732873689160735500,3.429735595703125,1.051030158996582,-0.5441142320632935,-0.8035945892333984
1732873689170714600,3.439714599609375,1.5763816833496094,-0.490115761756897,-0.11005198955535889
1732873689180724500,3.449724365234375,2.3004722595214844,-0.4711238145828247,0.6810793876647949
1732873689190734300,3.459734375,2.6467056274414062,-0.43772566318511963,0.8813364505767822
1732873689200713500,3.46971337890625,2.738184928894043,-0.542282223701477,0.8622584342956543
1732873689210723300,3.479723388671875,2.0989084243774414,-0.6569824814796448,0.14825451374053955
1732873689220733200,3.489733154296875,2.0599451065063477,-1.3438410758972168,-0.10527904331684113
1732873689230742800,3.49974267578125,1.7397165298461914,-2.1728079319000244,-0.356082022190094
1732873689240722200,3.50972216796875,1.1787424087524414,-2.2973313331604004,-1.238998532295227
1732873689250732000,3.51973193359375,0.7468061447143555,-1.9739488363265991,-2.50770902633667
1732873689260741600,3.52974169921875,0.6942806243896484,-1.555713415145874,-3.648611307144165
1732873689270720800,3.539720703125,1.0997848510742188,-1.2161872386932373,-4.042879581451416
1732873689280730400,3.54973046875,1.3482608795166016,-0.9430286884307861,-3.462531566619873
1732873689290740200,3.559740234375,1.3446683883666992,-0.5865310430526733,-2.2287070751190186
1732873689300719600,3.5697197265625,1.3171491622924805,-0.2219640612602234,-1.2854301929473877
1732873689310729500,3.5797294921875,1.3929691314697266,0.044375061988830566,-0.6579715013504028
1732873689320739000,3.589739013671875,1.804213523864746,0.2854433059692383,-0.31260934472084045
1732873689330718500,3.599718505859375,2.004833221435547,0.3662905693054199,-0.11127167195081711
1732873689340728300,3.609728271484375,1.9520854949951172,0.3053175210952759,0.09925875067710876
1732873689350738000,3.619738037109375,1.8690252304077148,0.22300398349761963,0.37922167778015137
1732873689360717000,3.629717041015625,1.2747058868408203,0.417599081993103,0.06072934344410896
1732873689370727000,3.639726806640625,0.7655353546142578,0.29989469051361084,0.26282235980033875
1732873689380736800,3.64973681640625,-0.0007219314575195312,-0.018576383590698242,0.738993227481842
1732873689390716000,3.6597158203125,-0.6359491348266602,-0.13893628120422363,0.9051807522773743
1732873689400725800,3.669725830078125,-1.0575008392333984,-0.19805192947387695,0.9948753714561462
1732873689410735400,3.6797353515625,-1.4259519577026367,-0.5293839573860168,1.323763370513916
1732873689420714800,3.68971484375,-1.6199626922607422,-0.7413488626480103,1.5242319107055664
1732873689430724600,3.699724609375,-1.4912300109863281,-0.9483584761619568,1.6048182249069214
1732873689440734200,3.709734130859375,-1.279555320739746,-1.035524845123291,1.4426263570785522
1732873689450713600,3.719713623046875,-1.0282459259033203,-0.9182915687561035,0.9812917113304138
1732873689460723200,3.72972314453125,-0.6825046539306641,-0.8203105926513672,0.5894482135772705
1732873689470732800,3.73973291015625,-0.45179080963134766,-0.7693842053413391,0.2480059266090393
1732873689480742700,3.74974267578125,-0.4696178436279297,-0.7048238515853882,0.03386920690536499
1732873689490722000,3.75972216796875,-0.65667724609375,-0.6741966605186462,-0.12694042921066284
1732873689500732000,3.76973193359375,-0.9172954559326172,-0.5809764266014099,-0.132994145154953
1732873689510741500,3.779741455078125,-1.1759767532348633,-0.3600660562515259,-0.12754662334918976
1732873689520721000,3.789720947265625,-1.4188623428344727,-0.24003851413726807,0.06495766341686249
1732873689530730500,3.79973046875,-1.5145187377929688,-0.16504442691802979,0.15340766310691833
1732873689540740400,3.809740234375,-1.5646486282348633,-0.08273875713348389,0.23949159681797028
1732873689550719700,3.8197197265625,-1.459768295288086,-0.11551237106323242,0.3892594873905182
1732873689560729300,3.829729248046875,-1.0205421447753906,-0.2715069055557251,0.6761606931686401
1732873689570739200,3.8397392578125,-0.6875095367431641,-0.5627461075782776,1.1363496780395508
1732873689580718300,3.84971826171875,-0.3646564483642578,-0.5768136382102966,1.054175615310669
1732873689590728200,3.859728271484375,-0.18348217010498047,-0.8870923519134521,1.5378755331039429
1732873689600737800,3.86973779296875,0.0744791030883789,-1.5595424175262451,2.430164098739624
1732873689610717200,3.87971728515625,0.6304712295532227,-2.0492687225341797,2.3545784950256348
1732873689620727000,3.88972705078125,0.6820392608642578,-1.647315263748169,1.3672043085098267
1732873689630736600,3.899736572265625,0.3766469955444336,-1.1318340301513672,0.8223431706428528
1732873689640716000,3.909716064453125,0.19643211364746094,-1.371264934539795,1.0403565168380737
1732873689650726000,3.919725830078125,0.20328044891357422,-0.8715431690216064,1.146262764930725
1732873689660735500,3.929735595703125,-0.09890937805175781,-0.42473405599594116,1.3967152833938599
1732873689670714600,3.939714599609375,-0.13048458099365234,-0.4535730481147766,1.7088592052459717
1732873689680724500,3.949724365234375,0.014830589294433594,-0.44679611921310425,1.7633605003356934
1732873689690734000,3.959734130859375,-0.25630855560302734,-0.5452329516410828,1.7664529085159302
1732873689700713500,3.96971337890625,-0.5269432067871094,-0.9785101413726807,1.5581947565078735
1732873689710723300,3.979723388671875,-0.35943603515625,-1.30012845993042,0.772878885269165
1732873689720733000,3.98973291015625,0.07087230682373047,-1.1925941705703735,-0.03574611246585846
1732873689730742800,3.99974267578125,0.9604015350341797,-0.9789919853210449,-0.587928056716919
1732873689740722200,4.00972216796875,1.6365041732788086,-0.8373860716819763,-0.7307386994361877
1732873689750731800,4.019731689453125,1.8948259353637695,-0.770514965057373,-0.53166264295578
1732873689760741600,4.02974169921875,1.8187589645385742,-0.7744091749191284,-0.1304500699043274
1732873689770720800,4.039720703125,1.4594554901123047,-0.8132876753807068,0.19400376081466675
1732873689780730600,4.049730712890625,1.0010719299316406,-0.846078634262085,0.5028517246246338
1732873689790740200,4.059740234375,0.9840126037597656,-0.9038155674934387,0.6357976198196411
1732873689800719600,4.0697197265625,1.2425222396850586,-0.8311545848846436,0.5178529024124146
1732873689810729200,4.079729248046875,1.553725242614746,-0.4803547263145447,0.22835378348827362
1732873689820739000,4.089739013671875,1.7116870880126953,0.04093778133392334,-0.13879111409187317
1732873689830718500,4.099718505859375,1.506138801574707,0.5343726277351379,-0.5608281493186951
1732873689840728300,4.109728271484375,1.0834121704101562,1.1386502981185913,-1.1216259002685547
1732873689850738000,4.119738037109375,0.5394001007080078,1.6084403991699219,-1.7635483741760254
1732873689860717300,4.12971728515625,-0.061287879943847656,2.049506425857544,-2.1225874423980713
1732873689870727000,4.139726806640625,-0.4699106216430664,2.313598155975342,-2.3300724029541016
1732873689880736500,4.149736572265625,-0.5908279418945312,2.437488555908203,-2.3383231163024902
1732873689890716000,4.1597158203125,-0.4580192565917969,2.3634402751922607,-2.1542704105377197
1732873689900725800,4.169725830078125,-0.19396018981933594,2.188382625579834,-1.9639332294464111
1732873689910735400,4.1797353515625,0.0007114410400390625,1.6496096849441528,-1.468415379524231
1732873689920714800,4.18971484375,0.06786727905273438,1.0205796957015991,-0.9182038307189941
1732873689930724600,4.199724609375,-0.18040084838867188,0.5401545763015747,-0.7277940511703491
1732873689940734200,4.209734130859375,-0.4584531784057617,0.23452186584472656,-0.6418824791908264
1732873689950713300,4.21971337890625,-0.7423486709594727,-0.09926056861877441,-0.5080232620239258
1732873689960723200,4.22972314453125,-1.0468826293945312,-0.3173259496688843,-0.4106460213661194
1732873689970733000,4.239733154296875,-1.3149986267089844,-0.4366433620452881,-0.4229254722595215
1732873689980742700,4.24974267578125,-1.4851436614990234,-0.48220813274383545,-0.4361442029476166
1732873689990722000,4.25972216796875,-1.5527257919311523,-0.5033179521560669,-0.5079385638237
1732873690000732000,4.26973193359375,-1.5468025207519531,-0.5799874067306519,-0.6348352432250977
1732873690010741500,4.279741455078125,-1.5694894790649414,-0.6124981641769409,-0.8027268648147583
1732873690020721000,4.289720947265625,-1.359665870666504,-0.6187138557434082,-0.9519227743148804
1732873690030730800,4.299730712890625,-1.0194835662841797,-0.6420776844024658,-1.0217434167861938
1732873690040740400,4.309740234375,-0.7185258865356445,-0.5762784481048584,-1.0759894847869873
1732873690050719700,4.3197197265625,-0.5235967636108398,-0.38691914081573486,-1.0748075246810913
1732873690060729300,4.329729248046875,-0.37628746032714844,-0.136069655418396,-1.0853760242462158
1732873690070739200,4.3397392578125,-0.3193693161010742,0.07657754421234131,-1.1856567859649658
1732873690080718300,4.34971826171875,-0.20180130004882812,0.24515867233276367,-1.317895531654358
1732873690090728200,4.359728271484375,0.036492347717285156,0.34943926334381104,-1.125931978225708
1732873690100737800,4.36973779296875,0.20022296905517578,0.40373969078063965,-0.7530913352966309
1732873690110717200,4.37971728515625,0.24309444427490234,0.4220317602157593,-0.22818493843078613
1732873690120727000,4.38972705078125,0.1705465316772461,0.42730581760406494,0.2458101511001587
1732873690130737000,4.39973681640625,-0.21686649322509766,0.40071165561676025,0.7072679400444031
1732873690140716000,4.409716064453125,-0.5697879791259766,0.4615781307220459,1.1115827560424805
1732873690150726000,4.419725830078125,-0.9041566848754883,0.41962242126464844,1.4874465465545654
1732873690160735500,4.429735595703125,-1.0834178924560547,0.33208656311035156,1.8481489419937134
1732873690170714600,4.439714599609375,-1.0379447937011719,0.28605639934539795,2.3042678833007812
1732873690180724500,4.449724365234375,-0.9139432907104492,0.3377169370651245,2.4829769134521484
1732873690190734300,4.459734375,-0.9471282958984375,0.06882858276367188,2.4844861030578613
1732873690200713500,4.46971337890625,-0.8232316970825195,-0.061681509017944336,2.370797634124756
1732873690210723300,4.479723388671875,-0.6318769454956055,-0.1980506181716919,2.4393372535705566
1732873690220733200,4.489733154296875,-0.26569175720214844,-0.38411784172058105,2.4597392082214355
1732873690230742800,4.49974267578125,0.16518783569335938,-0.5311641693115234,2.5008320808410645
1732873690240722200,4.50972216796875,0.7113571166992188,-0.643012523651123,2.5517873764038086
1732873690250732000,4.51973193359375,1.0261259078979492,-0.5185967683792114,2.636552333831787
1732873690260741600,4.52974169921875,0.6196908950805664,-0.29334521293640137,2.6239447593688965
1732873690270720800,4.539720703125,0.005343437194824219,-0.5873889923095703,2.4699974060058594
1732873690280730400,4.54973046875,-0.055583953857421875,-1.3668313026428223,2.5837924480438232
1732873690290740200,4.559740234375,0.1420764923095703,-2.2053518295288086,2.9919943809509277
1732873690300719600,4.5697197265625,0.41013622283935547,-3.2371926307678223,3.3406100273132324
1732873690310275600,4.579275634765625,1.1462421417236328,-4.220469951629639,3.4409830570220947
1732873690320285200,4.58928515625,2.3547544479370117,-4.722752571105957,3.255556344985962
1732873690330264600,4.5992646484375,3.40667724609375,-4.734353065490723,2.6936001777648926
1732873690340274200,4.609274169921875,3.580449104309082,-4.461395740509033,1.896618127822876
1732873690350284000,4.619283935546875,3.2167444229125977,-3.967763662338257,0.5390250086784363
1732873690360263200,4.62926318359375,2.4259862899780273,-3.3079452514648438,-0.9540255069732666
1732873690370273000,4.63927294921875,1.3803701400756836,-2.6000165939331055,-2.0963263511657715
1732873690380282600,4.64928271484375,0.7711172103881836,-2.141057252883911,-2.4270050525665283
1732873690390262000,4.659261962890625,0.5251693725585938,-2.0748157501220703,-1.7775713205337524
1732873690400271600,4.669271728515625,0.6534261703491211,-1.9648692607879639,-0.819622278213501
1732873690410281500,4.679281494140625,0.9275732040405273,-1.611444354057312,-0.4325863718986511
1732873690420260900,4.6892607421875,1.3255176544189453,-1.1827824115753174,-0.061523377895355225
1732873690430270700,4.699270751953125,1.4795551300048828,-0.7921280264854431,0.06085127592086792
1732873690440280300,4.7092802734375,1.390904426574707,-0.34598565101623535,-0.007039010524749756
1732873690450259700,4.719259765625,1.1394386291503906,0.031415581703186035,-0.09806990623474121
1732873690460269300,4.729269287109375,0.7852191925048828,0.4103740453720093,-0.2498130202293396
1732873690470279000,4.73927880859375,0.43828487396240234,0.5978846549987793,-0.5530887842178345
1732873690480288800,4.749288818359375,0.3327913284301758,0.8165205717086792,-1.0155879259109497
1732873690490268200,4.75926806640625,0.3078126907348633,0.8523091077804565,-1.1339364051818848
1732873690500278000,4.769278076171875,0.5176210403442383,0.9877293109893799,-1.3872129917144775
1732873690510287600,4.77928759765625,0.4754304885864258,0.7083655595779419,-0.9123014211654663
1732873690520267000,4.78926708984375,0.22186851501464844,0.06575489044189453,0.16775399446487427
1732873690530276600,4.799276611328125,0.15497112274169922,-0.3932802081108093,0.9761091470718384
1732873690540286500,4.809286376953125,0.06888294219970703,-0.703899085521698,1.3656723499298096
1732873690550265600,4.819265625,-0.0861959457397461,-0.39106595516204834,1.9803227186203003
1732873690560275500,4.829275390625,-0.7077255249023438,-1.1353262662887573,1.3351320028305054
1732873690570285000,4.83928515625,-1.1224784851074219,-1.2219343185424805,1.1827472448349
1732873690580264400,4.849264404296875,-1.5041885375976562,-1.0946497917175293,0.7525637149810791
1732873690590274300,4.8592744140625,-1.9184579849243164,-0.9515135288238525,0.2775591015815735
1732873690600284000,4.869283935546875,-1.9438858032226562,-0.9641883373260498,-0.1798398494720459
1732873690610263300,4.87926318359375,-1.3600292205810547,-0.8638777732849121,-0.46205031871795654
1732873690620273200,4.889273193359375,-0.5448780059814453,-0.9305554032325745,-0.598884105682373
1732873690630282800,4.89928271484375,-0.19277381896972656,-1.0729327201843262,-0.523655891418457
1732873690640262100,4.90926220703125,0.055304527282714844,-1.1492362022399902,-0.15214896202087402
1732873690650271500,4.919271484375,-0.13889217376708984,-1.1686735153198242,0.15675634145736694
1732873690660281300,4.92928125,-0.1361074447631836,-0.9787283539772034,0.1468198299407959
1732873690670260700,4.9392607421875,-0.36566162109375,-0.8619187474250793,0.10947751998901367
1732873690680270600,4.9492705078125,-0.4677248001098633,-0.9545204639434814,0.6186156272888184
1732873690690280200,4.9592802734375,-0.26548194885253906,-1.1116148233413696,1.020970106124878
1732873690700259600,4.969259521484375,-0.1442127227783203,-1.1415092945098877,1.44892418384552
1732873690710269400,4.97926953125,-0.008136749267578125,-1.074569821357727,1.63069748878479
1732873690720279000,4.989279052734375,0.24993419647216797,-1.0261335372924805,1.6412112712860107
1732873690730289000,4.999288818359375,0.50396728515625,-1.1018705368041992,1.8406999111175537
1732873690740268000,5.00926806640625,0.6085233688354492,-1.2570161819458008,2.1603493690490723
1732873690750278000,5.01927783203125,0.5042343139648438,-1.5015151500701904,2.3775525093078613
1732873690760287500,5.02928759765625,0.3781118392944336,-1.6617826223373413,2.5644097328186035
1732873690770267000,5.039266845703125,0.2972230911254883,-1.7927343845367432,2.6682231426239014
1732873690780276700,5.04927685546875,0.24239063262939453,-1.7294472455978394,2.709167003631592
1732873690790286300,5.059286376953125,0.17675304412841797,-1.5078407526016235,2.9384095668792725
1732873690800265700,5.069265625,0.020707130432128906,-1.2909382581710815,2.9566166400909424
1732873690810275600,5.079275634765625,-0.2714099884033203,-1.3307571411132812,2.6571457386016846
1732873690820285200,5.08928515625,-0.42412567138671875,-1.8908710479736328,2.4749557971954346
1732873690830264600,5.0992646484375,-0.42472362518310547,-2.5181455612182617,2.17738676071167
1732873690840274200,5.109274169921875,0.3962230682373047,-2.5950965881347656,1.5025190114974976
1732873690850284000,5.119283935546875,1.5874671936035156,-2.5747251510620117,0.4541705846786499
1732873690860263200,5.12926318359375,2.4677696228027344,-2.6971776485443115,-0.6446976661682129
1732873690870273000,5.13927294921875,2.7786264419555664,-2.4755101203918457,-1.6271742582321167
1732873690880282600,5.14928271484375,2.4432907104492188,-2.2318530082702637,-2.107239246368408
1732873690890262000,5.159261962890625,1.8081140518188477,-1.9018915891647339,-2.1986491680145264
1732873690900271900,5.16927197265625,0.9953460693359375,-1.2515647411346436,-2.3322396278381348
1732873690910281500,5.179281494140625,0.6698331832885742,-0.7697416543960571,-1.8670037984848022
1732873690920260900,5.1892607421875,0.29212093353271484,-0.2951551675796509,-1.7703429460525513
1732873690930270700,5.199270751953125,-0.15559768676757812,-0.33111798763275146,-0.9588544368743896
1732873690940280600,5.209280517578125,0.03425312042236328,-0.3356778621673584,-0.8867253065109253
1732873690950259500,5.219259521484375,0.6185550689697266,-0.006699562072753906,-1.8760567903518677
1732873690960269300,5.229269287109375,0.8680181503295898,0.28596973419189453,-2.5631000995635986
1732873690970279200,5.239279052734375,0.6569375991821289,0.5164905786514282,-3.1589322090148926
1732873690980288800,5.249288818359375,0.04408836364746094,0.6349104642868042,-3.541844129562378
1732873690990268200,5.25926806640625,-0.5381860733032227,0.8100204467773438,-3.8071460723876953
1732873691000278000,5.269278076171875,-0.7674617767333984,0.9185400009155273,-3.789928913116455
1732873691010287600,5.27928759765625,-0.5080480575561523,0.5580185651779175,-2.880967378616333
1732873691020267000,5.28926708984375,0.019931793212890625,0.042233943939208984,-1.8178677558898926
1732873691030276600,5.299276611328125,0.5414419174194336,-0.32527101039886475,-0.8921854496002197
1732873691040286500,5.309286376953125,0.690730094909668,-0.4008913040161133,-0.4479546546936035
1732873691050265600,5.319265625,0.6892681121826172,-0.4320443868637085,-0.11660099029541016
1732873691060275500,5.329275390625,0.6694812774658203,-0.6188019514083862,0.07590103149414062
1732873691070285000,5.33928515625,0.651158332824707,-0.7864663004875183,0.1439380645751953
1732873691080264400,5.349264404296875,0.5788230895996094,-0.883289635181427,0.34230947494506836
1732873691090274300,5.3592744140625,0.5132522583007812,-1.002025842666626,0.618929386138916
1732873691100284000,5.369283935546875,0.14340877532958984,-1.1806018352508545,0.7715977430343628
1732873691110263300,5.37926318359375,-0.22312068939208984,-1.3877067565917969,0.8564131259918213
1732873691120273200,5.389273193359375,-0.3802347183227539,-1.7394717931747437,1.0023802518844604
1732873691130283000,5.399282958984375,-0.40151500701904297,-2.0973565578460693,1.0809880495071411
1732873691140262000,5.409261962890625,-0.22150039672851562,-2.335726261138916,0.956817626953125
1732873691150271700,5.419271728515625,0.21655559539794922,-2.431138038635254,0.7128901481628418
1732873691160281300,5.42928125,0.7848987579345703,-2.346756935119629,0.2329467535018921
1732873691170260700,5.4392607421875,1.2295112609863281,-2.11719012260437,-0.3945777416229248
1732873691180270600,5.4492705078125,1.3726749420166016,-1.917799711227417,-0.6175699234008789
1732873691190280200,5.4592802734375,1.0167255401611328,-1.6623178720474243,-0.617307186126709
1732873691200259600,5.469259521484375,0.30841064453125,-1.5199520587921143,-0.5380773544311523
1732873691210269400,5.47926953125,-0.5107755661010742,-1.3301869630813599,-0.37444186210632324
1732873691220279300,5.489279296875,-1.039154052734375,-1.2241443395614624,-0.33197665214538574
1732873691230289000,5.499288818359375,-1.4812841415405273,-1.2411630153656006,-0.1904916763305664
1732873691240268000,5.50926806640625,-1.4537739753723145,-1.3308523893356323,0.07591032981872559
1732873691250278000,5.51927783203125,-1.245285987854004,-1.4179260730743408,0.3063373565673828
1732873691260287500,5.52928759765625,-0.9568672180175781,-1.4986857175827026,0.468727707862854
1732873691270267000,5.539266845703125,-0.6030550003051758,-1.5875694751739502,0.7250547409057617
1732873691280276500,5.5492763671875,-0.2722597122192383,-1.6185290813446045,0.7854468822479248
1732873691290286300,5.559286376953125,0.05456829071044922,-1.5928157567977905,0.892257571220398
1732873691300265700,5.569265625,0.21604442596435547,-1.4062142372131348,0.9170941114425659
1732873691310275600,5.579275634765625,0.15196990966796875,-1.4269274473190308,1.1555191278457642
1732873691320285200,5.58928515625,0.0634012222290039,-1.4030449390411377,1.665068507194519
1732873691330264600,5.5992646484375,-0.12032318115234375,-0.9715428352355957,1.788121223449707
1732873691340274200,5.609274169921875,-0.23890399932861328,-0.6773276329040527,1.6588048934936523
1732873691350284000,5.619283935546875,0.049597740173339844,-0.5461910367012024,1.3354859352111816
1732873691360263200,5.62926318359375,0.7850923538208008,-0.38572752475738525,0.9510596394538879
1732873691370273000,5.63927294921875,1.3852300643920898,-0.4452510476112366,0.7778327465057373
1732873691380283000,5.649282958984375,1.9512920379638672,-0.819388210773468,0.9087939262390137
1732873691390262000,5.659261962890625,2.11483097076416,-1.1644998788833618,1.143510103225708
1732873691400272000,5.66927197265625,2.08322811126709,-1.446881890296936,1.2585129737854004
1732873691410281500,5.679281494140625,1.768411636352539,-1.6106219291687012,1.4473739862442017
1732873691420260900,5.6892607421875,1.014699935913086,-1.6560379266738892,1.357696771621704
1732873691430270700,5.699270751953125,0.24834537506103516,-1.4627376794815063,1.3169974088668823
1732873691440280300,5.7092802734375,0.02789592742919922,-1.2852779626846313,1.2878730297088623
1732873691450259700,5.719259765625,-0.2992534637451172,-0.9559681415557861,1.2913622856140137
1732873691460269300,5.729269287109375,-0.10194778442382812,-0.16401326656341553,0.5422006249427795
1732873691470279000,5.73927880859375,-0.8452177047729492,0.49179607629776,0.868941068649292
1732873691480288800,5.749288818359375,-2.9293370246887207,1.45123291015625,3.445265293121338
1732873691490268200,5.75926806640625,-2.867464065551758,0.4957164525985718,-0.9453045129776001
1732873691500278000,5.769278076171875,-2.3547730445861816,0.9500007629394531,-1.8485119342803955
1732873691510287600,5.77928759765625,-2.0137548446655273,1.6552057266235352,-1.4780468940734863
1732873691520267000,5.78926708984375,-1.9686603546142578,1.6545610427856445,-1.3115243911743164
1732873691530276600,5.799276611328125,-1.5648794174194336,1.650000810623169,-1.5395936965942383
1732873691540286500,5.809286376953125,-0.27471351623535156,1.788323163986206,-1.557025671005249
1732873691550265600,5.819265625,0.5308218002319336,1.7491767406463623,-1.5468515157699585
1732873691560275200,5.829275146484375,1.1374855041503906,0.7668522596359253,-0.9786195755004883
1732873691570285000,5.83928515625,1.854222297668457,-0.09110760688781738,-0.8761301040649414
1732873691580264400,5.849264404296875,2.506864547729492,-0.3833099603652954,-0.6102614402770996
1732873691590274300,5.8592744140625,2.610285758972168,-0.5169153213500977,-0.2867339849472046
1732873691600284000,5.869283935546875,2.5641326904296875,-0.9133438467979431,0.0029424428939819336
1732873691610263300,5.87926318359375,2.3253164291381836,-0.9905648231506348,1.2259254455566406
1732873691620273200,5.889273193359375,2.044827461242676,-1.385846734046936,1.82674241065979
1732873691630282800,5.89928271484375,1.866241455078125,-1.8200188875198364,1.899824857711792
1732873691640262000,5.909261962890625,1.6769895553588867,-1.8302110433578491,2.063260078430176
1732873691650271700,5.919271728515625,0.964390754699707,-1.8192164897918701,2.492870330810547
1732873691660281300,5.92928125,0.30781078338623047,-1.676313877105713,2.6841487884521484
1732873691670260700,5.9392607421875,-0.6807441711425781,-1.398177146911621,2.50221848487854
1732873691680270600,5.9492705078125,-1.2734060287475586,-1.164128303527832,2.056609630584717
1732873691690280200,5.9592802734375,-1.6709575653076172,-1.0563271045684814,2.058645725250244
1732873691700259600,5.969259521484375,-1.5859489440917969,-0.901892900466919,1.96283757686615
1732873691710269400,5.97926953125,-1.1684207916259766,-0.41812437772750854,1.7390493154525757
1732873691720279000,5.989279052734375,-0.8089990615844727,-0.10223394632339478,1.7154837846755981
1732873691730289000,5.999288818359375,-0.5538339614868164,-0.22959566116333008,1.4067809581756592
1732873691740268000,6.00926806640625,-0.6194677352905273,-0.3094429075717926,1.294068694114685
1732873691750278000,6.01927783203125,-0.6165018081665039,-0.3583870232105255,1.6175016164779663
1732873691760287500,6.02928759765625,-0.9716262817382812,-0.454682856798172,1.9216704368591309
1732873691770267000,6.039266845703125,-1.3110074996948242,-0.546131432056427,1.7520722150802612
1732873691780276700,6.04927685546875,-1.509617805480957,-0.7435727119445801,1.504390835762024
1732873691790286300,6.059286376953125,-1.5883502960205078,-0.8700746297836304,1.5737675428390503
1732873691800265700,6.069265625,-1.8061232566833496,-1.0481648445129395,1.607129693031311
1732873691810275600,6.079275634765625,-1.5113945007324219,-1.2285466194152832,1.4357452392578125
1732873691820285200,6.08928515625,-0.8996362686157227,-1.3415656089782715,1.3923381567001343
1732873691830264600,6.0992646484375,-0.3733224868774414,-1.4118839502334595,0.938076376914978
1732873691840274200,6.109274169921875,0.10466670989990234,-1.1894066333770752,0.2948213815689087
1732873691850284000,6.119283935546875,0.5411300659179688,-0.8117737770080566,-0.22514772415161133
1732873691860263400,6.129263427734375,0.9329376220703125,-0.4858648180961609,-0.5224153995513916
1732873691870273000,6.13927294921875,1.548187255859375,-0.0902329683303833,-0.6392707824707031
1732873691880282600,6.14928271484375,2.3235692977905273,0.56197190284729,-0.8444894552230835
1732873691890262000,6.159261962890625,3.0651016235351562,1.7007826566696167,-1.2726272344589233
1732873691900271900,6.16927197265625,3.1105146408081055,2.690962553024292,-1.5535645484924316
1732873691910281500,6.179281494140625,2.159402847290039,3.375849723815918,-1.7989113330841064
1732873691920260900,6.1892607421875,0.47644710540771484,3.746976375579834,-1.960699439048767
1732873691930270700,6.199270751953125,-2.052338123321533,3.589897632598877,-2.1163392066955566
1732873691940280600,6.209280517578125,-3.7982678413391113,2.9276609420776367,-1.7272673845291138
1732873691950259500,6.219259521484375,-3.144070625305176,2.0265095233917236,-1.5046164989471436
1732873691960269300,6.229269287109375,-0.1988992691040039,0.8577431440353394,-1.6918412446975708
1732873691970279200,6.239279052734375,2.9286766052246094,0.4213743209838867,-2.126354217529297
1732873691980288800,6.249288818359375,5.853659629821777,0.02224290370941162,-1.8772989511489868
1732873691990268200,6.25926806640625,6.988543510437012,0.024697482585906982,-1.660353660583496
1732873692000278000,6.269278076171875,6.5323028564453125,0.5024392008781433,-1.8409076929092407
1732873692010287600,6.27928759765625,5.1856842041015625,1.090747356414795,-2.1292202472686768
1732873692020267000,6.28926708984375,2.9117746353149414,1.4250167608261108,-2.1414430141448975
1732873692030276900,6.29927685546875,0.558074951171875,1.4055960178375244,-1.7817957401275635
1732873692040286500,6.309286376953125,-1.3733654022216797,1.3596830368041992,-1.4565390348434448
1732873692050265600,6.319265625,-2.5365943908691406,1.5981005430221558,-1.7112035751342773
1732873692060275500,6.329275390625,-2.815445899963379,1.4297420978546143,-1.4388434886932373
1732873692070285000,6.33928515625,-3.36197566986084,1.0057486295700073,-0.8517435789108276
1732873692080264400,6.349264404296875,-3.7965102195739746,0.7088010311126709,-0.3333648443222046
1732873692090274300,6.3592744140625,-4.028428077697754,0.4279617667198181,0.0247613787651062
1732873692100284000,6.369283935546875,-4.0355119705200195,0.1480238437652588,0.18730884790420532
1732873692110263300,6.37926318359375,-3.7990312576293945,-0.1441035270690918,0.16366171836853027
1732873692120273200,6.389273193359375,-3.4047837257385254,-0.24482017755508423,0.11914604902267456
1732873692130283000,6.399282958984375,-3.070772647857666,-0.16277766227722168,-0.023262083530426025
1732873692140262000,6.409261962890625,-2.701669216156006,-0.013533830642700195,-0.2355213165283203
1732873692150271700,6.419271728515625,-2.111232280731201,0.3142138719558716,-0.8378473520278931
1732873692160281300,6.42928125,-1.1177434921264648,0.56744384765625,-1.3246828317642212
1732873692170260700,6.4392607421875,-0.2840747833251953,0.6013799905776978,-1.5614452362060547
1732873692180270600,6.4492705078125,0.18298721313476562,0.5885869264602661,-1.6531044244766235
1732873692190280400,6.459280517578125,0.37732887268066406,0.5589761734008789,-1.5620683431625366
1732873692200259600,6.469259521484375,0.5607938766479492,0.39431554079055786,-1.3342145681381226
1732873692210269400,6.47926953125,0.8075714111328125,0.23690056800842285,-1.1716375350952148
1732873692220279300,6.489279296875,1.0792064666748047,0.0904005765914917,-0.9449871182441711
1732873692230289000,6.499288818359375,1.3740301132202148,-0.21113711595535278,-0.2178865671157837
1732873692240268000,6.50926806640625,1.3408880233764648,-0.3380151391029358,0.09965956211090088
1732873692250278000,6.51927783203125,0.8875131607055664,-0.3726392388343811,0.1987377405166626
1732873692260287500,6.52928759765625,0.19907760620117188,-0.3145289421081543,0.2703477144241333
1732873692270267000,6.539266845703125,-0.5590877532958984,-0.30624920129776,0.20781433582305908
1732873692280276500,6.5492763671875,-1.1098766326904297,-0.3284614682197571,0.06038403511047363
1732873692290286300,6.559286376953125,-1.4658927917480469,-0.3668747544288635,-0.18486905097961426
1732873692300265700,6.569265625,-1.5970458984375,-0.44113075733184814,-0.5509259700775146
1732873692310275600,6.579275634765625,-1.3748750686645508,-0.5823172926902771,-0.8370989561080933
1732873692320285200,6.58928515625,-0.7700166702270508,-0.8712369203567505,-0.7050315141677856
1732873692330264600,6.5992646484375,0.033237457275390625,-1.1825530529022217,-0.5256147384643555
1732873692340274200,6.609274169921875,0.9099130630493164,-1.3498095273971558,-0.23424887657165527
1732873692350284000,6.619283935546875,1.367293357849121,-1.3845818042755127,0.5748121738433838
1732873692360263200,6.62926318359375,0.9179916381835938,-1.1671828031539917,1.3198082447052002
1732873692370273000,6.63927294921875,-0.3341093063354492,-0.7314791679382324,1.7358087301254272
1732873692380283000,6.649282958984375,-2.004879951477051,-0.43380409479141235,1.6420056819915771
1732873692390262000,6.659261962890625,-3.333833694458008,-0.23316621780395508,1.655993103981018
1732873692400272000,6.66927197265625,-4.185206413269043,-0.21217668056488037,1.8022358417510986
1732873692410281500,6.679281494140625,-4.187303066253662,-0.13274550437927246,1.6578023433685303
1732873692420260900,6.6892607421875,-3.212404727935791,0.02428460121154785,1.2327197790145874
1732873692430270700,6.699270751953125,-1.627192497253418,-0.4413996934890747,1.6055564880371094
1732873692440280300,6.7092802734375,-0.07087516784667969,-0.7118785381317139,2.0488643646240234
1732873692450259700,6.719259765625,1.0806398391723633,-0.6056888699531555,2.3898329734802246
1732873692460269300,6.729269287109375,2.0129928588867188,-0.35155099630355835,2.228764772415161
1732873692470279000,6.73927880859375,2.5532264709472656,0.37238872051239014,1.1835668087005615
1732873692480288800,6.749288818359375,3.410369873046875,1.233668327331543,0.1227257251739502
1732873692490268200,6.75926806640625,4.504121780395508,1.721254587173462,-0.7189403772354126
1732873692500278000,6.769278076171875,5.396526336669922,2.0691909790039062,-1.1902680397033691
1732873692510287600,6.77928759765625,6.125003814697266,2.3190464973449707,-1.446570873260498
1732873692520267000,6.78926708984375,6.542136192321777,2.40077805519104,-1.484643816947937
1732873692530276600,6.799276611328125,6.648886680603027,2.3734753131866455,-1.588090419769287
1732873692540286500,6.809286376953125,6.043081283569336,2.317831039428711,-1.501660943031311
1732873692550265600,6.819265625,4.623614311218262,2.347370147705078,-1.2907580137252808
1732873692560275500,6.829275390625,3.20743465423584,2.188103675842285,-0.8551111221313477
1732873692570285000,6.83928515625,1.8079004287719727,1.7743438482284546,-0.268654465675354
1732873692580264400,6.849264404296875,1.0729780197143555,1.4074516296386719,0.20407164096832275
1732873692590274300,6.8592744140625,1.0853290557861328,0.8900307416915894,0.794509768486023
1732873692600284000,6.869283935546875,1.012526512145996,0.3636602461338043,1.255648136138916
1732873692610263300,6.87926318359375,0.8936805725097656,0.06596457958221436,1.3016773462295532
1732873692620273200,6.889273193359375,0.5588474273681641,-0.1785438060760498,1.366710901260376
1732873692630282800,6.89928271484375,-0.20371246337890625,-0.4240143895149231,1.4020085334777832
1732873692640262100,6.90926220703125,-0.8667478561401367,-0.4925927221775055,0.983382523059845
1732873692650271700,6.919271728515625,-1.294804573059082,-0.3929309546947479,0.4601811170578003
1732873692660281300,6.92928125,-1.3182859420776367,-0.2869317829608917,-0.03262472152709961
1732873692670260700,6.9392607421875,-1.171677589416504,-0.3650158643722534,0.011989474296569824
1732873692680270600,6.9492705078125,-1.2550220489501953,-0.4347672462463379,0.28514671325683594
1732873692690280200,6.9592802734375,-1.2912883758544922,-0.41434013843536377,0.6197867393493652
1732873692700259600,6.969259521484375,-1.8688921928405762,-0.3922635316848755,0.7000766396522522
1732873692710269400,6.97926953125,-2.1804776191711426,-0.21420228481292725,0.6421757936477661
1732873692720279000,6.989279052734375,-2.331045150756836,-0.19304275512695312,1.0020382404327393
1732873692730289000,6.999288818359375,-2.6703433990478516,-0.11737465858459473,1.2194359302520752
1732873692740268000,7.00926806640625,-2.800656318664551,0.003378152847290039,1.1899356842041016
1732873692750278000,7.01927783203125,-3.1197104454040527,0.07735514640808105,1.1751198768615723
1732873692760287500,7.02928759765625,-3.2548718452453613,0.15602028369903564,0.9629440307617188
1732873692770267000,7.039266845703125,-2.5253705978393555,0.06619739532470703,1.1680737733840942
1732873692780276700,7.04927685546875,-1.689439296722412,-0.20728003978729248,1.7124683856964111
1732873692790286300,7.059286376953125,-0.695277214050293,-0.6995446681976318,2.552584409713745
1732873692800265700,7.069265625,0.20095443725585938,-0.9640858173370361,3.5806729793548584
1732873692810275300,7.079275390625,1.4001340866088867,-1.2634254693984985,3.6511735916137695
1732873692820285200,7.08928515625,3.096546173095703,-0.8279197812080383,2.8302667140960693
1732873692830264600,7.0992646484375,3.531134605407715,-0.8413271903991699,2.4438633918762207
1732873692840274400,7.1092744140625,3.2105398178100586,-0.905401349067688,1.8726975917816162
1732873692850284000,7.119283935546875,2.605118751525879,-0.7987611293792725,1.3348121643066406
1732873692860263400,7.129263427734375,1.751021385192871,-0.5954524278640747,0.9281198978424072
1732873692870273000,7.13927294921875,0.891880989074707,-0.5421571731567383,0.5405865907669067
1732873692880282600,7.14928271484375,0.07617473602294922,-0.4587576389312744,0.310100793838501
1732873692890262000,7.159261962890625,-0.42574214935302734,-0.6044937968254089,1.072540521621704
1732873692900271900,7.16927197265625,-1.0348625183105469,-0.8204014301300049,1.9584288597106934
1732873692910281500,7.179281494140625,-1.9624991416931152,-0.85490882396698,2.4220619201660156
1732873692920260900,7.1892607421875,-2.26241397857666,-1.0483498573303223,2.920053720474243
1732873692930270700,7.199270751953125,-2.3641395568847656,-1.2296257019042969,3.0971288681030273
1732873692940280600,7.209280517578125,-2.0309948921203613,-1.1963250637054443,2.845179319381714
1732873692950259500,7.219259521484375,-1.4329729080200195,-0.8985843658447266,1.914306640625
1732873692960269300,7.229269287109375,-0.35314273834228516,-0.45320212841033936,0.32729363441467285
1732873692970279200,7.239279052734375,1.4848785400390625,0.07471072673797607,-1.3326908349990845
1732873692980288800,7.249288818359375,2.3201332092285156,0.3647571802139282,-2.1493334770202637
1732873692990268200,7.25926806640625,2.554926872253418,0.5994187593460083,-2.2163753509521484
1732873693000278000,7.269278076171875,2.2857847213745117,0.33592092990875244,-1.1730228662490845
1732873693010287600,7.27928759765625,1.733687400817871,0.5461879968643188,-0.44514167308807373
1732873693020267000,7.28926708984375,0.8648004531860352,1.0446784496307373,-0.5522201061248779
1732873693030276900,7.29927685546875,0.21368694305419922,1.0646802186965942,-0.3042484521865845
1732873693040286500,7.309286376953125,0.24161052703857422,0.9559923410415649,0.22941482067108154
1732873693050265600,7.319265625,0.4904155731201172,1.0366079807281494,0.49896055459976196
1732873693060275500,7.329275390625,0.3469696044921875,1.5831385850906372,0.20706778764724731
1732873693070285000,7.33928515625,-0.037299156188964844,1.8706907033920288,-0.5741321444511414
1732873693080264400,7.349264404296875,-0.3223085403442383,1.85684072971344,-0.9071966409683228
1732873693090274300,7.3592744140625,-0.8082914352416992,1.6428102254867554,-1.158650279045105
1732873693100284000,7.369283935546875,0.12552928924560547,1.2172743082046509,-1.617879033088684
1732873693110263300,7.37926318359375,1.1366167068481445,0.8809689283370972,-2.4126169681549072
1732873693120273200,7.389273193359375,1.7460098266601562,0.8744761943817139,-3.4770379066467285
1732873693130282800,7.39928271484375,2.3955812454223633,0.9241577386856079,-3.091376543045044
1732873693140262000,7.409261962890625,2.236607551574707,0.455089807510376,-1.899206280708313
1732873693150271700,7.419271728515625,1.604635238647461,0.5207589864730835,-0.8822685480117798
1732873693160281300,7.42928125,0.8592567443847656,0.5151731967926025,-0.2721158266067505
1732873693170260700,7.4392607421875,-0.25693225860595703,0.54891037940979,-0.034807562828063965
1732873693180270600,7.4492705078125,-1.2431831359863281,0.5699918270111084,-0.03510904312133789
1732873693190280400,7.459280517578125,-2.157409191131592,0.5181475877761841,-0.15543782711029053
1732873693200259600,7.469259521484375,-2.574916362762451,0.47455334663391113,-0.2533292770385742
1732873693210269400,7.47926953125,-2.7295188903808594,0.3640255928039551,-0.5395799875259399
1732873693220279000,7.489279052734375,-2.796299934387207,0.29567909240722656,-0.9012352228164673
1732873693230289000,7.499288818359375,-2.3770737648010254,0.07049763202667236,-1.5244317054748535
1732873693240268000,7.50926806640625,-1.4435110092163086,-0.14040911197662354,-1.722441554069519
1732873693250278000,7.51927783203125,-1.118154525756836,-0.1455596685409546,-1.727508544921875
1732873693260287500,7.52928759765625,-0.320953369140625,-0.3441340923309326,-1.2418529987335205
1732873693270267000,7.539266845703125,0.047313690185546875,-0.38075363636016846,-0.6159640550613403
1732873693280276500,7.5492763671875,0.27191638946533203,-0.4105604887008667,-0.08197522163391113
1732873693290286300,7.559286376953125,0.2621126174926758,-0.3203212022781372,-0.025913119316101074
1732873693300265700,7.569265625,0.4424095153808594,-0.15027356147766113,-0.05870842933654785
1732873693310275600,7.579275634765625,0.3942527770996094,-0.006194114685058594,-0.1793900728225708
1732873693320285200,7.58928515625,0.10105705261230469,0.1447315216064453,-0.45924270153045654
1732873693330264600,7.5992646484375,-0.039282798767089844,0.2177422046661377,-0.3346339464187622
1732873693340274400,7.6092744140625,-0.025959014892578125,0.16422390937805176,-0.09688961505889893
1732873693350284000,7.619283935546875,-0.029793739318847656,0.15619409084320068,0.05744516849517822
1732873693360263200,7.62926318359375,-0.17883682250976562,0.15379393100738525,0.16733145713806152
1732873693370273000,7.63927294921875,-0.21142196655273438,0.07317900657653809,0.4657033681869507
1732873693380283000,7.649282958984375,-0.2856588363647461,-0.008964776992797852,0.828399658203125
1732873693390262000,7.659261962890625,-0.5226945877075195,-0.08663034439086914,1.1528432369232178
1732873693400271600,7.669271728515625,-0.7848291397094727,-0.3268636465072632,1.5477898120880127
1732873693410281500,7.679281494140625,-1.329549789428711,-0.519325852394104,1.9504324197769165
1732873693420260900,7.6892607421875,-1.8564181327819824,-0.6844673156738281,2.279863119125366
1732873693430270700,7.699270751953125,-1.9450440406799316,-0.7554075717926025,2.4762234687805176
1732873693440280300,7.7092802734375,-1.7211341857910156,-0.6620727777481079,2.071955442428589
1732873693450259700,7.719259765625,-0.9505834579467773,-0.6271973848342896,1.533395767211914
1732873693460269300,7.729269287109375,0.1535205841064453,-0.45258331298828125,0.6509369015693665
1732873693470279000,7.73927880859375,0.9261617660522461,-0.07239389419555664,0.35663628578186035
1732873693480288800,7.749288818359375,0.8177242279052734,0.4034682512283325,0.41345030069351196
1732873693490268200,7.75926806640625,0.34294605255126953,0.7997134923934937,0.3533303737640381
1732873693500278000,7.769278076171875,-0.2370767593383789,0.9787636995315552,0.3525768518447876
1732873693510287600,7.77928759765625,-0.5378894805908203,0.8755614757537842,0.30919772386550903
1732873693520267000,7.78926708984375,0.4912557601928711,0.5129095315933228,0.32842886447906494
1732873693530276600,7.799276611328125,1.8974418640136719,0.19815587997436523,0.43337345123291016
1732873693540286500,7.809286376953125,3.6692380905151367,0.061225175857543945,-0.14457261562347412
1732873693550265600,7.819265625,5.898225784301758,0.043338656425476074,-0.45283007621765137
1732873693560275500,7.829275390625,7.192598342895508,0.22892439365386963,-0.3000677824020386
1732873693570285000,7.83928515625,6.608692169189453,0.9026339054107666,-0.4012356996536255
1732873693580264400,7.849264404296875,5.190349578857422,1.334105372428894,-0.37749767303466797
1732873693590274300,7.8592744140625,2.99798583984375,1.5878838300704956,-0.016308903694152832
1732873693600284000,7.869283935546875,1.2496461868286133,1.7692917585372925,0.19250702857971191
1732873693610263300,7.87926318359375,-0.0867166519165039,1.7713614702224731,0.2153933048248291
1732873693620273200,7.889273193359375,-1.215437889099121,1.4026838541030884,0.6516157984733582
1732873693630283000,7.899282958984375,-2.5321617126464844,1.145770788192749,0.9219093918800354
1732873693640262000,7.909261962890625,-3.2410035133361816,0.849631667137146,0.9912629127502441
1732873693650271500,7.919271484375,-3.56270694732666,0.4289284944534302,1.2651383876800537
1732873693660281300,7.92928125,-3.4667978286743164,0.10668075084686279,1.5059020519256592
1732873693670260700,7.9392607421875,-2.757387638092041,-0.06362950801849365,1.5640076398849487
1732873693680270600,7.9492705078125,-2.099942684173584,-0.026735901832580566,1.290971279144287
1732873693690280200,7.9592802734375,-1.9245166778564453,0.1087338924407959,0.9003399610519409
1732873693700259600,7.969259521484375,-1.426046371459961,0.1498863697052002,0.47603803873062134
1732873693710269400,7.97926953125,-1.1888351440429688,0.186553955078125,0.36373358964920044
1732873693720279000,7.989279052734375,-1.5649948120117188,0.12611353397369385,0.4113655090332031
1732873693730289000,7.999288818359375,-1.3844623565673828,0.09057736396789551,0.5852845311164856
1732873693740268000,8.00926806640625,-0.6720514297485352,-0.13700079917907715,1.0351309776306152
1732873693750278000,8.01927783203125,0.011569023132324219,-0.338373064994812,1.6139845848083496
1732873693760287500,8.02928759765625,0.6789636611938477,-0.5123487710952759,2.2392871379852295
1732873693770267000,8.039266845703125,0.9772825241088867,-0.5157982110977173,2.7883822917938232
1732873693780276500,8.0492763671875,0.8244171142578125,-0.36445510387420654,2.996220588684082
1732873693790286300,8.059286376953125,0.4456157684326172,-0.20151138305664062,2.856922149658203
1732873693800265700,8.069265625,0.06901073455810547,-0.09791743755340576,2.670262336730957
1732873693810275600,8.079275634765626,-0.3582429885864258,-0.07311475276947021,2.474627733230591
1732873693820285200,8.08928515625,-0.5495700836181641,-0.1618403196334839,2.360405206680298
1732873693830264600,8.0992646484375,-0.5369901657104492,-0.2499542236328125,2.069973945617676
1732873693840274400,8.1092744140625,-0.5361776351928711,-0.3528251647949219,1.662432074546814
1732873693850284000,8.119283935546875,-0.4752511978149414,-0.39950835704803467,1.4052109718322754
1732873693860263200,8.12926318359375,-0.4288911819458008,-0.3903636932373047,1.3364593982696533
1732873693870273000,8.13927294921875,-0.5309219360351562,-0.4351940155029297,1.3155760765075684
1732873693880283000,8.149282958984376,-0.6520223617553711,-0.41694509983062744,1.2588114738464355
1732873693890262000,8.159261962890625,-0.7806034088134766,-0.22639334201812744,0.5659046173095703
1732873693900271900,8.16927197265625,-0.8413915634155273,-0.043465375900268555,0.01218903437256813
1732873693910281500,8.179281494140625,-0.9005622863769531,0.014513969421386719,-0.18762511014938354
1732873693920260900,8.1892607421875,-1.006387710571289,-0.1784381866455078,-0.025264129042625427
1732873693930270700,8.199270751953126,-1.0573482513427734,-0.3486597537994385,0.25918933749198914
1732873693940280300,8.2092802734375,-0.8535442352294922,-0.3919491767883301,0.5067484378814697
1732873693950259700,8.219259765625,-0.45020389556884766,-0.39358699321746826,0.4649803340435028
1732873693960269300,8.229269287109375,0.06677913665771484,-0.2335745096206665,0.3712683916091919
1732873693970279000,8.23927880859375,0.3626213073730469,-0.08911442756652832,0.3277105987071991
1732873693980288800,8.249288818359375,0.5839509963989258,0.2659168243408203,0.06053885817527771
1732873693990268200,8.25926806640625,0.5035028457641602,0.5667592287063599,-0.3679155707359314
1732873694000278000,8.269278076171876,0.4280214309692383,0.8651467561721802,-0.9852246046066284
1732873694010287600,8.27928759765625,0.5671348571777344,1.0108288526535034,-1.4263924360275269
1732873694020267000,8.28926708984375,1.0715322494506836,1.0219643115997314,-1.5485594272613525
1732873694030276600,8.299276611328125,1.9265928268432617,0.7871654033660889,-1.48905611038208
1732873694040286500,8.309286376953125,2.855052947998047,0.6273702383041382,-1.5409200191497803
1732873694050265600,8.319265625,4.001428604125977,0.5884302854537964,-1.708591103553772
1732873694060275500,8.329275390625,4.658066749572754,0.6759899854660034,-1.7797521352767944
1732873694070285000,8.33928515625,4.797072410583496,0.9284390211105347,-1.5543712377548218
1732873694080264400,8.349264404296875,4.2815656661987305,1.3013001680374146,-1.3633249998092651
1732873694090274300,8.3592744140625,3.1056394577026367,1.495233178138733,-1.2459743022918701
1732873694100284000,8.369283935546875,1.8869962692260742,1.6677663326263428,-1.157790184020996
1732873694110263300,8.37926318359375,0.2637958526611328,1.7665053606033325,-1.1817445755004883
1732873694120273200,8.389273193359376,-1.0820236206054688,1.6420061588287354,-1.1659479141235352
1732873694130283000,8.399282958984376,-1.981083869934082,1.413286805152893,-1.105032205581665
1732873694140262000,8.409261962890625,-2.498839855194092,1.138401746749878,-1.0111494064331055
1732873694150271700,8.419271728515625,-2.4834022521972656,0.8660169839859009,-1.0697579383850098
1732873694160281300,8.42928125,-2.0610294342041016,0.503296971321106,-1.152907371520996
1732873694170260700,8.4392607421875,-1.4270706176757812,0.1933600902557373,-1.2425780296325684
1732873694180270600,8.4492705078125,-0.7464361190795898,-0.04378533363342285,-1.2588350772857666
1732873694190280200,8.4592802734375,-0.39467525482177734,-0.19888603687286377,-1.397963285446167
1732873694200259600,8.469259521484375,-0.3490257263183594,-0.2379390001296997,-1.547966718673706
1732873694210269400,8.47926953125,-0.6045980453491211,-0.22733688354492188,-1.5871254205703735
1732873694220279000,8.489279052734375,-1.008056640625,-0.195967435836792,-1.4710748195648193
1732873694230289000,8.499288818359375,-1.389683723449707,-0.16821753978729248,-1.280001163482666
1732873694240268000,8.50926806640625,-1.6949234008789062,-0.16417205333709717,-1.0874676704406738
1732873694250278000,8.51927783203125,-1.8381843566894531,-0.15544211864471436,-0.8431830406188965
1732873694260287500,8.52928759765625,-1.783602237701416,-0.2259230613708496,-0.7981135845184326
1732873694270267000,8.539266845703125,-1.4906530380249023,-0.30703628063201904,-0.7399945259094238
1732873694280276500,8.5492763671875,-1.1197624206542969,-0.3606550693511963,-0.7686824202537537
1732873694290286300,8.559286376953125,-0.8453054428100586,-0.4248615503311157,-0.7281897068023682
1732873694300265700,8.569265625,-0.8318243026733398,-0.43593645095825195,-0.6401100158691406
1732873694310275600,8.579275634765626,-0.9639387130737305,-0.4063081741333008,-0.6008589267730713
1732873694320285200,8.58928515625,-1.1244220733642578,-0.3788313865661621,-0.7166202068328857
1732873694330264600,8.5992646484375,-1.3301200866699219,-0.42008042335510254,-0.8032783269882202
1732873694340274400,8.6092744140625,-1.4974040985107422,-0.5315761566162109,-0.7699047327041626
1732873694350284000,8.619283935546875,-1.679117202758789,-0.5518497228622437,-0.7904840707778931
1732873694360263200,8.62926318359375,-1.7006950378417969,-0.5822896957397461,-0.6461522579193115
1732873694370273000,8.63927294921875,-1.9505152702331543,-0.4756147861480713,-0.47171780467033386
1732873694380283000,8.649282958984376,-2.5455245971679688,-0.2744412422180176,-0.40439578890800476
1732873694390262000,8.659261962890625,-3.0598278045654297,-0.17115819454193115,-0.19242650270462036
1732873694400271600,8.669271728515625,-3.5804624557495117,-0.10958504676818848,-0.0004432797431945801
1732873694410281500,8.679281494140625,-3.8833041191101074,-0.14326369762420654,0.23367977142333984
1732873694420260900,8.6892607421875,-3.3157453536987305,-0.3993889093399048,0.40429502725601196
1732873694430270700,8.699270751953126,-1.9049715995788574,-0.7033911943435669,0.43310782313346863
1732873694440280300,8.7092802734375,-0.15337371826171875,-0.8037433624267578,0.42003098130226135
1732873694450259700,8.719259765625,1.487685203552246,-0.49203741550445557,-0.11050277948379517
1732873694460269300,8.729269287109375,2.210573196411133,-0.06575751304626465,-0.6914255619049072
1732873694470279000,8.73927880859375,2.263195037841797,0.3260536193847656,-0.8996925354003906
1732873694480288800,8.749288818359375,1.627028465270996,0.730657696723938,-0.8906978964805603
1732873694490268200,8.75926806640625,0.6418581008911133,1.0184400081634521,-0.8012620210647583
1732873694500278000,8.769278076171876,0.13929462432861328,1.1580060720443726,-0.8256858587265015
1732873694510287600,8.77928759765625,-0.051812171936035156,1.2666637897491455,-1.0095489025115967
1732873694520267000,8.78926708984375,0.22095680236816406,1.194083571434021,-1.1482503414154053
1732873694530276600,8.799276611328125,1.0743827819824219,0.8808978796005249,-1.0954394340515137
1732873694540286500,8.809286376953125,2.245058059692383,0.5675837397575378,-1.029748558998108
1732873694550265600,8.819265625,3.7961912155151367,0.23630595207214355,-1.0148409605026245
1732873694560275500,8.829275390625,5.211660385131836,0.3593609929084778,-1.2072420120239258
1732873694570285000,8.83928515625,6.056509971618652,0.27432096004486084,-0.9216911196708679
1732873694580264400,8.849264404296875,6.199737548828125,0.5481321215629578,-0.513984739780426
1732873694590274300,8.8592744140625,5.364496231079102,0.8359509706497192,-0.1937878131866455
1732873694600284000,8.869283935546875,3.889354705810547,1.1858805418014526,0.019936025142669678
1732873694610263300,8.87926318359375,2.443927764892578,1.485977292060852,0.048812270164489746
1732873694620273200,8.889273193359376,0.9893703460693359,1.610583782196045,0.036937713623046875
1732873694630283000,8.899282958984376,0.1646900177001953,1.569361925125122,0.03625369071960449
1732873694640262000,8.909261962890625,-0.1884174346923828,1.3525971174240112,-0.10142475366592407
1732873694650271700,8.919271728515625,-0.13707637786865234,1.0981338024139404,-0.37940090894699097
1732873694660281300,8.92928125,0.00289154052734375,0.7960435748100281,-0.6732125282287598
1732873694670260700,8.9392607421875,-0.012312889099121094,0.47595059871673584,-0.686450719833374
1732873694680270600,8.9492705078125,-0.20395851135253906,0.23684751987457275,-0.5345638990402222
1732873694690280200,8.9592802734375,-0.5360431671142578,-0.002687692642211914,-0.24447011947631836
1732873694700259600,8.969259521484375,-0.9583902359008789,-0.09606629610061646,-0.003135979175567627
1732873694710269400,8.97926953125,-1.4215288162231445,-0.27746450901031494,0.23820167779922485
1732873694720279000,8.989279052734375,-1.637953758239746,-0.3375071883201599,0.4081037640571594
1732873694730289000,8.999288818359375,-1.7573027610778809,-0.3571482300758362,0.512864887714386
1732873694740268000,9.00926806640625,-1.537832260131836,-0.3534933924674988,0.4125196933746338
1732873694750278000,9.01927783203125,-0.920257568359375,-0.46134912967681885,0.1574709415435791
1732873694760287700,9.029287841796876,-0.29828548431396484,-0.5936858057975769,0.18817806243896484
1732873694770267000,9.039266845703125,0.37116432189941406,-0.7500026822090149,0.30783939361572266
1732873694780276500,9.0492763671875,0.8969259262084961,-0.8668571710586548,0.40050262212753296
1732873694790286300,9.059286376953125,1.2220478057861328,-0.8445037603378296,0.3794040083885193
1732873694800265700,9.069265625,1.1884260177612305,-0.8190690875053406,0.4438145160675049
1732873694810275600,9.079275634765626,0.7932662963867188,-0.5255804061889648,0.5014005899429321
1732873694820285200,9.08928515625,0.21130657196044922,-0.23856639862060547,0.42431700229644775
1732873694830264600,9.0992646484375,-0.2638082504272461,-0.18150323629379272,0.428547739982605
1732873694840274400,9.1092744140625,-0.49489784240722656,-0.1582067608833313,0.4632464051246643
1732873694850284000,9.119283935546875,-0.46295833587646484,-0.1139678955078125,0.4210010766983032
1732873694860263200,9.12926318359375,-0.1488046646118164,-0.1448935866355896,0.3830224871635437
1732873694870273000,9.13927294921875,0.07177352905273438,-0.1834341287612915,0.4096065163612366
1732873694880283000,9.149282958984376,0.2252025604248047,-0.3073607087135315,0.3365129232406616
1732873694890262000,9.159261962890625,0.48662471771240234,-0.3736687898635864,0.16420286893844604
1732873694900271600,9.169271728515625,0.745849609375,-0.49153774976730347,0.011647343635559082
1732873694910281500,9.179281494140625,1.163442611694336,-0.8871805667877197,-0.018672674894332886
1732873694920260900,9.1892607421875,1.4786615371704102,-1.1854827404022217,0.22130385041236877
1732873694930270700,9.199270751953126,1.1354360580444336,-1.272841453552246,0.758233904838562
1732873694940280300,9.2092802734375,0.49239540100097656,-1.1846178770065308,1.3259183168411255
1732873694950259700,9.219259765625,-0.507197380065918,-1.1352341175079346,2.0203328132629395
1732873694960269300,9.229269287109375,-1.5316362380981445,-1.0652639865875244,2.6829957962036133
1732873694970279000,9.23927880859375,-2.704097270965576,-0.7067171335220337,2.9768011569976807
1732873694980288800,9.249288818359375,-3.4270339012145996,-0.7102414965629578,3.440621852874756
1732873694990268200,9.25926806640625,-3.8450827598571777,-0.37703531980514526,3.310445547103882
1732873695000278000,9.269278076171876,-3.8632593154907227,-0.02386629581451416,2.817471504211426
1732873695010287600,9.27928759765625,-3.527360439300537,0.31574130058288574,2.356663227081299
1732873695020267000,9.28926708984375,-2.923640727996826,0.7231285572052002,2.051607370376587
1732873695030276600,9.299276611328125,-2.1965856552124023,1.0473641157150269,1.9352964162826538
1732873695040286500,9.309286376953125,-1.2032241821289062,1.315428614616394,1.7429454326629639
1732873695050265600,9.319265625,-0.33555030822753906,1.6238030195236206,1.2450780868530273
1732873695060275500,9.329275390625,0.47417736053466797,1.899654746055603,0.666840136051178
1732873695070285000,9.33928515625,1.2621631622314453,2.003446102142334,0.1587946116924286
1732873695080264400,9.349264404296875,2.3280277252197266,2.037315845489502,-0.30805063247680664
1732873695090274300,9.3592744140625,2.9682159423828125,1.9852445125579834,-0.5039470195770264
1732873695100284000,9.369283935546875,3.5451183319091797,1.8500840663909912,-0.6799091100692749
1732873695110263300,9.37926318359375,3.7212600708007812,1.7519056797027588,-0.6402512788772583
1732873695120273200,9.389273193359376,3.5900840759277344,1.8341186046600342,-0.6732339262962341
1732873695130283000,9.399282958984376,3.1393508911132812,2.104567527770996,-1.0976338386535645
1732873695140262000,9.409261962890625,2.457448959350586,2.456705093383789,-1.8515920639038086
1732873695150271700,9.419271728515625,1.682988166809082,2.72182297706604,-2.8071093559265137
1732873695160281300,9.42928125,1.3304862976074219,2.711432456970215,-3.4758100509643555
1732873695170260700,9.4392607421875,1.7180681228637695,2.182666540145874,-3.4616196155548096
1732873695180270600,9.4492705078125,1.9119195938110352,1.8864829540252686,-3.4161429405212402
1732873695190280200,9.4592802734375,1.5796136856079102,1.6802446842193604,-3.550900936126709
1732873695200259600,9.469259521484375,0.9273624420166016,1.5628368854522705,-3.404374361038208
1732873695210269400,9.47926953125,-0.11647605895996094,1.4577046632766724,-2.8336875438690186
1732873695220279000,9.489279052734375,-1.3124732971191406,1.244938611984253,-2.0019190311431885
1732873695230289000,9.499288818359375,-2.1220765113830566,1.1218845844268799,-1.4730055332183838
1732873695240268000,9.50926806640625,-2.955197811126709,0.9393596053123474,-1.0022740364074707
1732873695250278000,9.51927783203125,-3.347907066345215,0.7651228308677673,-0.6691681146621704
1732873695260287700,9.529287841796876,-3.365283489227295,0.6019190549850464,-0.5172178745269775
1732873695270267000,9.539266845703125,-3.1368565559387207,0.4005473852157593,-0.5381433367729187
1732873695280276500,9.5492763671875,-2.629201889038086,0.2400054931640625,-0.7348704934120178
1732873695290286300,9.559286376953125,-2.1558966636657715,0.08563101291656494,-0.8739168047904968
1732873695300265700,9.569265625,-1.7646384239196777,0.07429242134094238,-1.1022469997406006
1732873695310275600,9.579275634765626,-1.6586627960205078,0.0524064302444458,-1.2180466651916504
1732873695320285200,9.58928515625,-1.7852039337158203,0.12439298629760742,-1.122689127922058
1732873695330264600,9.5992646484375,-1.8976588249206543,0.23489582538604736,-0.9122506976127625
1732873695340274400,9.6092744140625,-1.713759422302246,0.28541266918182373,-0.7791293859481812
1732873695350284000,9.619283935546875,-1.3055238723754883,0.44317126274108887,-0.8346012830734253
1732873695360263200,9.62926318359375,-0.9170150756835938,0.6283087730407715,-0.8914409875869751
1732873695370273000,9.63927294921875,-0.5647153854370117,0.8193002939224243,-0.9759693145751953
1732873695380282600,9.64928271484375,-0.39677906036376953,0.967865526676178,-1.0320762395858765
1732873695390262000,9.659261962890625,-0.2741079330444336,1.0117278099060059,-1.0209320783615112
1732873695400272000,9.66927197265625,-0.18440914154052734,0.9145419001579285,-0.916803240776062
1732873695410281500,9.679281494140625,-0.16355037689208984,0.6786881685256958,-0.6933783888816833
1732873695420260900,9.6892607421875,-0.2672147750854492,0.4725891351699829,-0.4089031517505646
1732873695430270700,9.699270751953126,-0.6208248138427734,0.3689534664154053,-0.05021068453788757
1732873695440280300,9.7092802734375,-1.070047378540039,0.29846787452697754,0.2582310140132904
1732873695450259500,9.719259521484375,-1.4642362594604492,0.19674193859100342,0.4365403652191162
1732873695460269300,9.729269287109375,-1.7795324325561523,0.0632326602935791,0.6734442710876465
1732873695470279000,9.73927880859375,-2.0213441848754883,0.013310432434082031,0.6067741513252258
1732873695480288800,9.749288818359375,-1.9166359901428223,-0.09636843204498291,0.36410316824913025
1732873695490268200,9.75926806640625,-1.3412256240844727,-0.21218883991241455,-0.029702410101890564
1732873695500278000,9.769278076171876,-0.41001224517822266,-0.12645494937896729,-0.8238434195518494
1732873695510287600,9.77928759765625,0.38661956787109375,0.21437621116638184,-1.3785145282745361
1732873695520267000,9.78926708984375,0.7645330429077148,0.6207208633422852,-1.979403018951416
1732873695530276600,9.799276611328125,0.3770608901977539,1.1610522270202637,-2.645275115966797
1732873695540286500,9.809286376953125,-0.5573816299438477,1.5702812671661377,-2.904611110687256
1732873695550265600,9.819265625,-1.148970603942871,1.283778429031372,-2.3771681785583496
1732873695560275500,9.829275390625,-0.9079008102416992,0.8268522024154663,-1.7352657318115234
1732873695570285000,9.83928515625,0.4816608428955078,0.1856706738471985,-1.0186853408813477
1732873695580264400,9.849264404296875,2.500401496887207,-0.16468432545661926,-0.8050711154937744
1732873695590274300,9.8592744140625,5.254365921020508,-0.6882398128509521,-0.37751686573028564
1732873695600284000,9.869283935546875,7.181100845336914,-0.34164124727249146,-0.3031805753707886
1732873695610263300,9.87926318359375,7.431240081787109,0.6166694164276123,-0.6963275074958801
1732873695620273200,9.889273193359376,6.155490875244141,1.3605496883392334,-0.7777150869369507
1732873695630282800,9.89928271484375,4.180998802185059,1.9383513927459717,-0.3970978260040283
1732873695640262000,9.909261962890625,2.5631103515625,2.245871067047119,-0.11614519357681274
1732873695650271700,9.919271728515625,1.268157958984375,2.3182215690612793,-0.046249330043792725
1732873695660281300,9.92928125,0.952143669128418,2.0912647247314453,-0.041637122631073
1732873695670260700,9.9392607421875,1.2823591232299805,1.637010931968689,-0.001942753791809082
1732873695680270600,9.9492705078125,1.7874116897583008,1.1467564105987549,0.12223947048187256
1732873695690280200,9.9592802734375,1.9577865600585938,0.7291579246520996,0.22679784893989563
1732873695700259600,9.969259521484375,1.884592056274414,0.5000377893447876,0.23080667853355408
1732873695710269400,9.97926953125,1.5249271392822266,0.31780001521110535,0.3139447271823883
1732873695720279000,9.989279052734375,0.8190269470214844,0.14554467797279358,0.48126208782196045
1732873695730289000,9.999288818359375,-0.010370254516601562,0.011211991310119629,0.6075890064239502
1732873695740268000,10.00926806640625,-0.9920063018798828,-0.04850196838378906,0.5348793864250183
1732873695750278000,10.01927783203125,-1.7907719612121582,-0.06809669733047485,0.3483477234840393
1732873695760287700,10.029287841796876,-2.217965602874756,-0.09575027227401733,0.2407301366329193
1732873695770267000,10.039266845703125,-2.5371251106262207,-0.14685672521591187,0.2920340299606323
1732873695780276500,10.0492763671875,-2.6958279609680176,-0.24268192052841187,0.46312275528907776
1732873695790286300,10.059286376953125,-2.6894679069519043,-0.280741810798645,0.7238519191741943
1732873695800265700,10.069265625,-2.611642837524414,-0.2666136622428894,0.869996190071106
1732873695810275600,10.079275634765626,-2.2469558715820312,-0.21028298139572144,0.8781976699829102
1732873695820285200,10.08928515625,-1.7966132164001465,-0.1650693416595459,0.894750714302063
1732873695830264600,10.0992646484375,-1.3946609497070312,-0.10418581962585449,0.7810999155044556
1732873695840274400,10.1092744140625,-1.1415929794311523,-0.025182366371154785,0.5283197164535522
1732873695850284000,10.119283935546875,-0.8957271575927734,0.023143529891967773,0.3327249586582184
1732873695860263200,10.12926318359375,-0.5948619842529297,-0.0495457649230957,0.27757319808006287
1732873695870273000,10.13927294921875,-0.20308971405029297,-0.04876852035522461,0.276710569858551
1732873695880282600,10.14928271484375,0.21016311645507812,-0.07918286323547363,0.49211400747299194
1732873695890262000,10.159261962890625,0.26934051513671875,-0.2661064863204956,0.9345492720603943
1732873695900271900,10.16927197265625,0.1642007827758789,-0.3924509286880493,1.3936353921890259
1732873695910281500,10.179281494140625,0.2541971206665039,-0.6507689952850342,1.9156148433685303
1732873695920260900,10.1892607421875,0.5522956848144531,-0.9234075546264648,2.395303726196289
1732873695930270700,10.199270751953126,0.8549222946166992,-1.2323592901229858,2.7991676330566406
1732873695940280300,10.2092802734375,1.036966323852539,-1.2084368467330933,2.493075132369995
1732873695950259700,10.219259765625,1.2066497802734375,-1.191760540008545,2.2911171913146973
1732873695960269300,10.229269287109375,0.7186460494995117,-0.9793328046798706,1.896698236465454
1732873695970279000,10.23927880859375,-0.13070392608642578,-0.7499879598617554,1.4664373397827148
1732873695980288800,10.249288818359375,-0.9853954315185547,-0.45915964245796204,1.226946234703064
1732873695990268200,10.25926806640625,-2.215913772583008,-0.17033296823501587,0.835258960723877
1732873696000278000,10.269278076171876,-3.0659451484680176,0.2214612364768982,0.7050782442092896
1732873696010287600,10.27928759765625,-3.847024917602539,0.7391998171806335,0.8800016641616821
1732873696020267000,10.28926708984375,-4.41996955871582,1.026554822921753,1.077687382698059
1732873696030276600,10.299276611328125,-4.420846939086914,1.1602836847305298,1.2412543296813965
1732873696040286500,10.309286376953125,-3.5824222564697266,1.19841730594635,1.1613291501998901
1732873696050265600,10.319265625,-2.0258727073669434,1.275524616241455,0.25619184970855713
1732873696060275500,10.329275390625,-0.4111614227294922,1.4168133735656738,-1.231909990310669
1732873696070285000,10.33928515625,1.7213077545166016,1.4062048196792603,-3.2434332370758057
1732873696080264400,10.349264404296875,3.4341611862182617,1.0909135341644287,-4.703383445739746
1732873696090274300,10.3592744140625,4.285836219787598,1.2785601615905762,-5.694125652313232
1732873696100284000,10.369283935546875,4.45796012878418,1.3587720394134521,-5.438469409942627
1732873696110263300,10.37926318359375,3.52829647064209,1.680126667022705,-4.530689239501953
1732873696120273200,10.389273193359376,2.183873176574707,2.0102713108062744,-3.408470630645752
1732873696130283000,10.399282958984376,1.174870491027832,2.3019776344299316,-2.9697065353393555
1732873696140262000,10.409261962890625,0.3835115432739258,2.838521957397461,-3.1464967727661133
1732873696150271700,10.419271728515625,0.0723104476928711,3.1373343467712402,-3.6126022338867188
1732873696160281300,10.42928125,0.20018482208251953,3.129826068878174,-4.350619316101074
1732873696170260700,10.4392607421875,1.097245216369629,3.0722641944885254,-5.491559028625488
1732873696180270600,10.4492705078125,2.4314613342285156,2.452414035797119,-6.158804416656494
1732873696190280200,10.4592802734375,4.177844047546387,1.8455003499984741,-6.000009059906006
1732873696200259600,10.469259521484375,5.070234298706055,1.388782024383545,-5.676222801208496
1732873696210269400,10.47926953125,5.015992164611816,1.268284559249878,-5.1619367599487305
1732873696220279000,10.489279052734375,4.03730583190918,1.4451099634170532,-4.587656021118164
1732873696230289000,10.499288818359375,2.16033935546875,1.8101096153259277,-3.748408555984497
1732873696240268000,10.50926806640625,0.2630748748779297,2.1755146980285645,-3.2593016624450684
1732873696250278000,10.51927783203125,-1.5498113632202148,2.123457670211792,-2.2631168365478516
1732873696260287700,10.529287841796876,-2.3553943634033203,2.0019149780273438,-1.2962462902069092
1732873696270267000,10.539266845703125,-3.1673617362976074,1.7338513135910034,-0.5384582281112671
1732873696280276500,10.5492763671875,-3.4711880683898926,1.4719901084899902,-0.38017916679382324
1732873696290286300,10.559286376953125,-3.3654661178588867,1.2200490236282349,-0.661771297454834
1732873696300265700,10.569265625,-2.999922275543213,1.112922191619873,-1.0787380933761597
1732873696310275600,10.579275634765626,-2.5343551635742188,0.9383214712142944,-1.7869383096694946
1732873696320285200,10.58928515625,-1.9305167198181152,0.6198859214782715,-2.6734888553619385
1732873696330264600,10.5992646484375,-1.3924083709716797,0.314414381980896,-3.0305652618408203
1732873696340274400,10.6092744140625,-1.2315425872802734,0.039052605628967285,-3.1143851280212402
1732873696350284000,10.619283935546875,-0.9499330520629883,-0.3332796096801758,-2.9331398010253906
1732873696360263200,10.62926318359375,-0.4270973205566406,-0.5960588455200195,-2.8131637573242188
1732873696370273000,10.63927294921875,-0.2568988800048828,-0.6492445468902588,-3.0163300037384033
1732873696380283000,10.649282958984376,-0.3119382858276367,-0.4964140057563782,-3.435911178588867
1732873696390262000,10.659261962890625,-0.7071304321289062,-0.30700749158859253,-3.5515778064727783
1732873696400272000,10.66927197265625,-1.4813814163208008,0.057589173316955566,-3.489717960357666
1732873696410281500,10.679281494140625,-2.4667248725891113,0.5344468355178833,-3.5687403678894043
1732873696420260900,10.6892607421875,-3.0144271850585938,0.7907167673110962,-3.542633056640625
1732873696430270700,10.699270751953126,-3.0152134895324707,1.0186899900436401,-3.450137138366699
1732873696440280300,10.7092802734375,-2.699397087097168,1.1624826192855835,-3.4497344493865967
1732873696450259700,10.719259765625,-1.8274550437927246,1.241981029510498,-3.5857019424438477
1732873696460269300,10.729269287109375,-0.6289558410644531,1.4193196296691895,-3.8756935596466064
1732873696470279000,10.73927880859375,0.8997869491577148,1.7418956756591797,-4.057860374450684
1732873696480288800,10.749288818359375,1.3237323760986328,1.8720568418502808,-4.005335807800293
1732873696490268200,10.75926806640625,1.1824655532836914,1.7022149562835693,-3.72676682472229
1732873696500278000,10.769278076171876,0.9495534896850586,1.390462875366211,-2.994112968444824
1732873696510287600,10.77928759765625,0.35903453826904297,1.094213843345642,-1.8647356033325195
1732873696520267000,10.78926708984375,-0.015501976013183594,0.7821152210235596,-0.887995719909668
1732873696530276600,10.799276611328125,-0.23153972625732422,0.7031094431877136,-0.5038045644760132
1732873696540286500,10.809286376953125,-0.09260272979736328,0.8552573323249817,-0.5196788311004639
1732873696550265600,10.819265625,-0.13599109649658203,1.1989279985427856,-0.567025899887085
1732873696560275500,10.829275390625,-0.49629688262939453,1.7077070474624634,-0.9688066244125366
1732873696570285000,10.83928515625,-0.9322471618652344,2.0306084156036377,-1.624260425567627
1732873696580264400,10.849264404296875,-0.6971321105957031,2.0317647457122803,-2.1239047050476074
1732873696590274300,10.8592744140625,0.5111255645751953,1.8289011716842651,-2.5045483112335205
1732873696600284000,10.869283935546875,2.6316957473754883,1.4707070589065552,-2.9203619956970215
1732873696610263300,10.87926318359375,4.745726585388184,1.230628252029419,-2.995162010192871
1732873696620273200,10.889273193359376,6.4875593185424805,1.3107439279556274,-2.872157573699951
1732873696630283000,10.899282958984376,7.23060417175293,1.8172824382781982,-2.933898687362671
1732873696640262000,10.909261962890625,6.898623466491699,2.437105655670166,-2.8250415325164795
1732873696650271700,10.919271728515625,6.248067855834961,3.044156074523926,-2.5685830116271973
1732873696660281300,10.92928125,5.252302169799805,3.447056293487549,-2.0271871089935303
1732873696670260700,10.9392607421875,3.4759769439697266,3.5923054218292236,-1.570500373840332
1732873696680270600,10.9492705078125,2.5057802200317383,3.592179775238037,-1.7014479637145996
1732873696690280400,10.959280517578126,1.8119001388549805,3.3127894401550293,-2.237459897994995
1732873696700259600,10.969259521484375,1.1783123016357422,2.8702778816223145,-2.500229597091675
1732873696710269400,10.97926953125,0.4229898452758789,2.433821439743042,-2.37378191947937
1732873696720279000,10.989279052734375,-0.2504749298095703,2.0828630924224854,-2.5288119316101074
1732873696730289000,10.999288818359375,-0.7630300521850586,1.766451358795166,-2.619230270385742
1732873696740268000,11.00926806640625,-1.1031131744384766,1.4103801250457764,-2.524573564529419
1732873696750278000,11.01927783203125,-1.2317180633544922,1.086073875427246,-2.350189208984375
1732873696760287700,11.029287841796876,-1.4624509811401367,0.7936974167823792,-2.0229203701019287
1732873696770267000,11.039266845703125,-1.9035673141479492,0.7470477819442749,-2.0350868701934814
1732873696780276500,11.0492763671875,-2.1435461044311523,0.7221970558166504,-2.150904417037964
1732873696790286300,11.059286376953125,-2.4989843368530273,0.7812085151672363,-2.178340196609497
1732873696800265700,11.069265625,-2.453883171081543,0.9069502949714661,-2.0475873947143555
1732873696810275600,11.079275634765626,-2.476405143737793,1.0460267066955566,-1.8923141956329346
1732873696820285200,11.08928515625,-2.3795981407165527,1.1264269351959229,-1.8024373054504395
1732873696830264600,11.0992646484375,-1.8525581359863281,1.1610026359558105,-1.743749976158142
1732873696840274400,11.1092744140625,-1.2069692611694336,1.0670082569122314,-1.4971861839294434
1732873696850284000,11.119283935546875,-0.4402923583984375,0.964205265045166,-1.3401341438293457
1732873696860263200,11.12926318359375,0.2757835388183594,0.8209109306335449,-1.2469505071640015
1732873696870273000,11.13927294921875,0.8296127319335938,0.7246531248092651,-1.3063108921051025
1732873696880283000,11.149282958984376,1.145273208618164,0.6538505554199219,-1.009230136871338
1732873696890262000,11.159261962890625,0.3173341751098633,0.6895942687988281,-0.42234933376312256
1732873696900271900,11.16927197265625,-0.8983268737792969,0.78010094165802,-0.010562896728515625
1732873696910281500,11.179281494140625,-1.7940387725830078,0.7356874942779541,0.6635452508926392
1732873696920260900,11.1892607421875,-2.4339475631713867,0.7169739007949829,0.8879600763320923
1732873696930270700,11.199270751953126,-2.7607979774475098,0.710727334022522,0.9515652656555176
1732873696940280300,11.2092802734375,-2.7746448516845703,0.6926865577697754,1.048644781112671
1732873696950259700,11.219259765625,-2.698087215423584,0.7889186143875122,0.8701695203781128
1732873696960269300,11.229269287109375,-2.569371223449707,0.9496493339538574,0.6137493848800659
1732873696970279000,11.23927880859375,-2.2474236488342285,0.8665468692779541,0.5191348791122437
1732873696980288800,11.249288818359375,-1.6563019752502441,0.6170859336853027,0.6325087547302246
1732873696990268200,11.25926806640625,-0.9636974334716797,0.293070912361145,0.7647074460983276
1732873697000278000,11.269278076171876,-0.16633033752441406,-0.20577919483184814,1.1351730823516846
1732873697010287600,11.27928759765625,0.4232950210571289,-0.4825659394264221,1.5602774620056152
1732873697020267000,11.28926708984375,1.1579694747924805,-0.7597110271453857,2.13375186920166
1732873697030276600,11.299276611328125,1.621260643005371,-0.6455298066139221,1.9475421905517578
1732873697040286500,11.309286376953125,2.006978988647461,-0.36150282621383667,1.4118531942367554
1732873697050265600,11.319265625,1.8555974960327148,-0.1276075839996338,1.0149564743041992
1732873697060275500,11.329275390625,1.175095558166504,-0.07446408271789551,0.7409098148345947
1732873697070285000,11.33928515625,0.5708169937133789,-0.08534955978393555,0.645317554473877
1732873697080264400,11.349264404296875,-0.30734729766845703,-0.13907289505004883,0.42918920516967773
1732873697090274300,11.3592744140625,-0.9475078582763672,-0.12034785747528076,0.010285615921020508
1732873697100284000,11.369283935546875,-0.8090229034423828,-0.06283867359161377,-0.24835872650146484
1732873697110263300,11.37926318359375,-1.1056499481201172,0.15439581871032715,-0.7318784594535828
1732873697120273200,11.389273193359376,-1.1461982727050781,0.2762115001678467,-1.1282349824905396
1732873697130282800,11.39928271484375,-0.6971702575683594,0.2930166721343994,-1.5156322717666626
1732873697140262000,11.409261962890625,-0.04889869689941406,0.19589054584503174,-1.942887544631958
1732873697150271700,11.419271728515625,1.055419921875,-0.09711050987243652,-1.8581007719039917
1732873697160281300,11.42928125,1.5122556686401367,0.17095279693603516,-2.05591082572937
1732873697170260700,11.4392607421875,1.630300521850586,0.42605113983154297,-2.2951102256774902
1732873697180270600,11.4492705078125,1.2471513748168945,0.5909072160720825,-1.888962984085083
1732873697190280200,11.4592802734375,0.3863677978515625,0.7877317667007446,-1.2690685987472534
1732873697200259600,11.469259521484375,-0.49117374420166016,1.216036319732666,-0.858527660369873
1732873697210269400,11.47926953125,-1.4109745025634766,1.6596367359161377,-0.7440868616104126
1732873697220279000,11.489279052734375,-2.111227035522461,2.042947292327881,-1.1197164058685303
1732873697230289000,11.499288818359375,-1.9993476867675781,2.3350989818573,-1.8637028932571411
1732873697240268300,11.509268310546876,-1.6876354217529297,2.5796027183532715,-2.5976853370666504
1732873697250278000,11.51927783203125,-1.1996698379516602,2.8922152519226074,-3.5739336013793945
1732873697260287700,11.529287841796876,-0.015863418579101562,3.1194663047790527,-4.746560096740723
1732873697270267000,11.539266845703125,1.4427928924560547,3.1349902153015137,-5.457738876342773
1732873697280276500,11.5492763671875,2.9165420532226562,2.9505298137664795,-5.9645538330078125
1732873697290286300,11.559286376953125,4.33040714263916,2.5615546703338623,-6.212256908416748
1732873697300265700,11.569265625,5.489624977111816,2.008395195007324,-6.083332061767578
1732873697310275600,11.579275634765626,5.940700531005859,1.5538082122802734,-5.2772603034973145
1732873697320285200,11.58928515625,5.495073318481445,1.6297518014907837,-4.547358512878418
1732873697330264600,11.5992646484375,4.229607582092285,1.9501738548278809,-4.16160249710083
1732873697340274400,11.6092744140625,2.456845283508301,1.7285069227218628,-3.234401226043701
1732873697350284000,11.619283935546875,0.62274169921875,1.8046996593475342,-2.184718608856201
1732873697360263200,11.62926318359375,-0.34830379486083984,2.080340623855591,-2.235260486602783
1732873697370273000,11.63927294921875,-0.8401451110839844,2.3114914894104004,-2.6737968921661377
1732873697380283000,11.649282958984376,-1.0956792831420898,2.466860055923462,-2.909597873687744
1732873697390262000,11.659261962890625,-1.4117374420166016,2.3011844158172607,-3.061728000640869
1732873697400272000,11.66927197265625,-1.7005634307861328,2.2316701412200928,-3.5027284622192383
1732873697410281500,11.679281494140625,-1.8286800384521484,2.095348358154297,-3.8895463943481445
1732873697420260900,11.6892607421875,-1.6368165016174316,2.0981202125549316,-4.321073055267334
1732873697430270700,11.699270751953126,-2.0262093544006348,2.044708251953125,-4.421859264373779
1732873697440280300,11.7092802734375,-1.6002702713012695,2.1235501766204834,-4.382071495056152
1732873697450259700,11.719259765625,-1.5505332946777344,2.203042984008789,-3.8606550693511963
1732873697460269300,11.729269287109375,-2.148630142211914,2.172183036804199,-3.1912221908569336
1732873697470279000,11.73927880859375,-2.5293374061584473,2.1193504333496094,-2.661738395690918
1732873697480288800,11.749288818359375,-2.783674716949463,1.9289827346801758,-2.211069345474243
1732873697490268200,11.75926806640625,-2.5885066986083984,1.9372344017028809,-2.3066375255584717
1732873697500278000,11.769278076171876,-2.3778328895568848,2.048637866973877,-2.5907092094421387
1732873697510287600,11.77928759765625,-2.418731689453125,2.040228843688965,-2.7840847969055176
1732873697520267000,11.78926708984375,-2.1434073448181152,1.9445252418518066,-2.801875591278076
1732873697530276600,11.799276611328125,-1.4274921417236328,1.8823047876358032,-2.9000420570373535
1732873697540286500,11.809286376953125,-0.5890226364135742,1.7587406635284424,-2.865659713745117
1732873697550265600,11.819265625,0.4035024642944336,1.5126687288284302,-2.6283531188964844
1732873697560275500,11.829275390625,1.1887588500976562,1.2859257459640503,-2.4363794326782227
1732873697570285000,11.83928515625,1.7760868072509766,0.976519763469696,-2.023437976837158
1732873697580264400,11.849264404296875,2.086043357849121,0.9261461496353149,-2.1561899185180664
1732873697590274300,11.8592744140625,2.322406768798828,0.9814679622650146,-2.5508763790130615
1732873697600284000,11.869283935546875,2.0396461486816406,1.0094637870788574,-2.7285964488983154
1732873697610263300,11.87926318359375,1.5542287826538086,0.5788024067878723,-1.703841209411621
1732873697620273200,11.889273193359376,0.5978260040283203,1.031795859336853,-2.185487985610962
1732873697630283000,11.899282958984376,-0.6485633850097656,1.2884678840637207,-2.5282039642333984
1732873697640262000,11.909261962890625,-1.417928695678711,1.602405071258545,-2.783729314804077
1732873697650271700,11.919271728515625,-1.7590436935424805,1.8008549213409424,-3.1020665168762207
1732873697660281300,11.92928125,-1.602630615234375,1.8137524127960205,-3.1774604320526123
1732873697670260700,11.9392607421875,-1.166229248046875,1.7875401973724365,-3.356830596923828
1732873697680270600,11.9492705078125,-0.5626316070556641,1.7153067588806152,-3.541759967803955
1732873697690280200,11.9592802734375,0.011736869812011719,1.4629406929016113,-3.400412082672119
1732873697700259600,11.969259521484375,0.4494190216064453,1.4232618808746338,-3.292567253112793
1732873697710269400,11.97926953125,0.865941047668457,1.2601425647735596,-3.0782337188720703
1732873697720279000,11.989279052734375,1.3046588897705078,1.072970986366272,-2.7527804374694824
1732873697730289000,11.999288818359375,1.6318540573120117,0.9246889352798462,-2.523219585418701
1732873697740268300,12.009268310546876,1.7259817123413086,0.8219528198242188,-2.211508274078369
1732873697750278000,12.01927783203125,1.4651708602905273,0.8434053063392639,-1.769742727279663
1732873697760287700,12.029287841796876,0.7883644104003906,0.8998726010322571,-1.3590636253356934
1732873697770267000,12.039266845703125,-0.050769805908203125,0.9556411504745483,-1.1579869985580444
1732873697780276500,12.0492763671875,-0.4553976058959961,1.0201760530471802,-1.323103904724121
1732873697790286300,12.059286376953125,-0.30991268157958984,0.8393494486808777,-1.325031042098999
1732873697800265700,12.069265625,0.21954631805419922,0.6069396138191223,-1.400299072265625
1732873697810275600,12.079275634765626,1.0210847854614258,0.2947421669960022,-1.2787975072860718
1732873697820285200,12.08928515625,1.6455574035644531,0.14480119943618774,-1.126846432685852
1732873697830264600,12.0992646484375,2.1940574645996094,0.26014357805252075,-1.0864052772521973
1732873697840274400,12.1092744140625,2.1330385208129883,0.5291903614997864,-1.1455260515213013
1732873697850284000,12.119283935546875,1.4244565963745117,0.7879478335380554,-1.3611171245574951
1732873697860263200,12.12926318359375,0.34839725494384766,1.0669441223144531,-1.5333772897720337
1732873697870273000,12.13927294921875,-0.5759544372558594,1.153007984161377,-1.5307080745697021
1732873697880283000,12.149282958984376,-1.4183692932128906,1.1910312175750732,-1.706495761871338
1732873697890262000,12.159261962890625,-1.7750163078308105,1.1570606231689453,-1.8225433826446533
1732873697900271900,12.16927197265625,-1.8069171905517578,1.0529117584228516,-2.0069429874420166
1732873697910281500,12.179281494140625,-1.4046630859375,0.9662793874740601,-2.139468193054199
1732873697920260900,12.1892607421875,-0.6683139801025391,0.7841391563415527,-2.1613926887512207
1732873697930270700,12.199270751953126,0.09168052673339844,0.6281313896179199,-2.0196776390075684
1732873697940280300,12.2092802734375,0.853668212890625,0.4238952398300171,-1.8603124618530273
1732873697950259700,12.219259765625,1.1917724609375,0.2862588167190552,-1.759475827217102
1732873697960269300,12.229269287109375,1.1761703491210938,0.27931642532348633,-1.6486430168151855
1732873697970279000,12.23927880859375,0.8109140396118164,0.2650480270385742,-1.6406580209732056
1732873697980288800,12.249288818359375,0.5516490936279297,0.2455732822418213,-1.4173190593719482
1732873697990268200,12.25926806640625,0.20728111267089844,0.1793231964111328,-0.7876530289649963
1732873698000278000,12.269278076171876,-0.014693260192871094,0.20842409133911133,-0.604174017906189
1732873698010287600,12.27928759765625,-0.49956512451171875,0.2967339754104614,-0.511401891708374
1732873698020267000,12.28926708984375,-1.1731529235839844,0.09299933910369873,-0.29936668276786804
1732873698030276600,12.299276611328125,-1.4370412826538086,0.1620182991027832,-0.4691287875175476
1732873698040286500,12.309286376953125,-1.8025307655334473,0.04730117321014404,-0.5143644213676453
1732873698050265600,12.319265625,-1.5832109451293945,-0.07966244220733643,-0.48558467626571655
1732873698060275500,12.329275390625,-0.7092485427856445,-0.185105562210083,-0.37634751200675964
1732873698070285000,12.33928515625,-0.166839599609375,-0.12383067607879639,-0.33535054326057434
1732873698080264400,12.349264404296875,0.064422607421875,0.08226644992828369,-0.7238790392875671
1732873698090274300,12.3592744140625,0.1408224105834961,0.22810709476470947,-0.9031011462211609
1732873698100284000,12.369283935546875,-0.03571891784667969,0.2873135805130005,-0.9835747480392456
1732873698110263300,12.37926318359375,-0.1491708755493164,0.42028582096099854,-1.1059612035751343
1732873698120273200,12.389273193359376,-0.07346153259277344,0.660926342010498,-1.1130132675170898
1732873698130283000,12.399282958984376,-0.00991058349609375,0.660723090171814,-1.0707249641418457
1732873698140262000,12.409261962890625,0.0008678436279296875,0.6418232917785645,-1.0391054153442383
1732873698150271700,12.419271728515625,0.06895065307617188,0.6644953489303589,-1.0325831174850464
1732873698160281300,12.42928125,0.04817390441894531,0.5707712173461914,-0.876122772693634
1732873698170260700,12.4392607421875,0.23930931091308594,0.14130902290344238,-0.16433651745319366
1732873698180270600,12.4492705078125,0.5036592483520508,-0.12183690071105957,0.2518761157989502
1732873698190280200,12.4592802734375,0.5842695236206055,-0.2625359296798706,0.5771321654319763
1732873698200259600,12.469259521484375,0.4813699722290039,-0.26466691493988037,0.6443732976913452
1732873698210269400,12.47926953125,0.24921417236328125,-0.11368393898010254,0.6177298426628113
1732873698220279000,12.489279052734375,-0.018479347229003906,0.03384864330291748,0.583891749382019
1732873698230289000,12.499288818359375,-0.27223873138427734,0.0880739688873291,0.5406314730644226
1732873698240268300,12.509268310546876,-0.5932388305664062,0.0756990909576416,0.5311474800109863
1732873698250278000,12.51927783203125,-0.7888994216918945,0.08648467063903809,0.17766782641410828
1732873698260287700,12.529287841796876,-0.9251804351806641,0.27990591526031494,-0.42531609535217285
1732873698270267000,12.539266845703125,-0.8157520294189453,0.44724035263061523,-0.7521679997444153
1732873698280276500,12.5492763671875,-0.5105295181274414,0.3158167600631714,-0.7732834815979004
1732873698290286300,12.559286376953125,-0.19120407104492188,0.2120896577835083,-0.5569549798965454
1732873698300265700,12.569265625,-0.05124378204345703,0.020884394645690918,-0.5548732876777649
1732873698310275600,12.579275634765626,0.2982444763183594,-0.16210341453552246,-0.18385054171085358
1732873698320285200,12.58928515625,0.4708232879638672,-0.26585638523101807,0.21753625571727753
1732873698330264600,12.5992646484375,0.3107290267944336,-0.22439730167388916,0.3957749605178833
1732873698340274400,12.6092744140625,-0.2453317642211914,-0.2099289894104004,0.42072752118110657
1732873698350284000,12.619283935546875,-0.6186618804931641,-0.12286067008972168,0.4098544120788574
1732873698360263200,12.62926318359375,-0.6449432373046875,-0.0662161111831665,0.2677367627620697
1732873698370273000,12.63927294921875,-0.4963645935058594,-0.03383755683898926,0.19500534236431122
1732873698380283000,12.649282958984376,-0.15696144104003906,-0.05729854106903076,0.12663337588310242
1732873698390262000,12.659261962890625,0.2431497573852539,-0.12032759189605713,0.1707560122013092
1732873698400272000,12.66927197265625,0.488525390625,-0.1462569236755371,0.13412827253341675
1732873698410281500,12.679281494140625,0.6761655807495117,-0.12720787525177002,0.07648031413555145
1732873698420260900,12.6892607421875,0.7402734756469727,-0.05575549602508545,0.03472863882780075
1732873698430270700,12.699270751953126,0.4754219055175781,0.01253819465637207,-0.0441313274204731
