time,seconds_elapsed,z,y,x
1732873685930925600,0.199925537109375,-0.09651670604944229,-0.08246681094169617,0.022602014243602753
1732873685940899800,0.20989990234375,-0.08857546001672745,-0.08185594528913498,0.02932153269648552
1732873685950857200,0.219857177734375,-0.08552113175392151,-0.08552113175392151,0.039706241339445114
1732873685960888600,0.229888671875,-0.08124507963657379,-0.0861319974064827,0.04581489413976669
1732873685970877000,0.239876953125,-0.07819075137376785,-0.08246681094169617,0.04337143152952194
1732873685980908300,0.249908203125,-0.07819075137376785,-0.08185594528913498,0.03726277872920036
1732873685990865700,0.25986572265625,-0.08307767659425735,-0.0910189226269722,0.036651913076639175
1732873686000897300,0.269897216796875,-0.0861319974064827,-0.09712757170200348,0.03237585723400116
1732873686010885000,0.279885009765625,-0.07757988572120667,-0.10018189996480942,0.021991148591041565
1732873686020886300,0.28988623046875,-0.06719517707824707,-0.09957103431224823,0.019547687843441963
1732873686030874000,0.2998740234375,-0.05742133408784866,-0.08796459436416626,0.021991148591041565
1732873686040905700,0.30990576171875,-0.0507018156349659,-0.07391469180583954,0.02626720629632473
1732873686050863400,0.31986328125,-0.05253441259264946,-0.06963863968849182,0.03420845419168472
1732873686060894700,0.329894775390625,-0.05192354694008827,-0.0708603709936142,0.04153883829712868
1732873686070882800,0.3398828125,-0.04886921867728233,-0.07696902006864548,0.04459316283464432
1732873686080883700,0.3498837890625,-0.05009094998240471,-0.08552113175392151,0.045204028487205505
1732873686090871800,0.359871826171875,-0.0555887371301651,-0.08857546001672745,0.039095375686883926
1732873686100903400,0.3699033203125,-0.059864792972803116,-0.0910189226269722,0.03481931984424591
1732873686110860800,0.37986083984375,-0.06291911751031876,-0.08796459436416626,0.02932153269648552
1732873686120892400,0.389892333984375,-0.05925392732024193,-0.08307767659425735,0.024434609338641167
1732873686130880300,0.39988037109375,-0.05253441259264946,-0.07452555745840073,0.02015855349600315
1732873686140881400,0.40988134765625,-0.04886921867728233,-0.06841690838336945,0.01466076634824276
1732873686150869500,0.419869384765625,-0.051312681287527084,-0.06108652427792549,0.009773843921720982
1732873686160900900,0.42990087890625,-0.05619960278272629,-0.06719517707824707,0.012217304669320583
1732873686170858500,0.4398583984375,-0.06108652427792549,-0.07941248267889023,0.02076941914856434
1732873686180890000,0.44989013671875,-0.06536258012056351,-0.08552113175392151,0.025656340643763542
1732873686190878000,0.4598779296875,-0.06475171446800232,-0.08491026610136032,0.02382374368607998
1732873686200879000,0.469879150390625,-0.06291911751031876,-0.07147123664617538,0.01710422709584236
1732873686210867000,0.479866943359375,-0.06291911751031876,-0.05375614017248154,0.012217304669320583
1732873686220898600,0.489898681640625,-0.06475171446800232,-0.045204028487205505,0.013439035043120384
1732873686230886700,0.49988671875,-0.07391469180583954,-0.06230825558304787,0.033597588539123535
1732873686240887600,0.509887451171875,-0.0806342139840126,-0.07757988572120667,0.048258353024721146
1732873686250875400,0.51987548828125,-0.08246681094169617,-0.08491026610136032,0.05314527451992035
1732873686260907000,0.529906982421875,-0.0806342139840126,-0.08857546001672745,0.051312681287527084
1732873686270864600,0.53986474609375,-0.07696902006864548,-0.09407325088977814,0.04337143152952194
1732873686280896000,0.54989599609375,-0.06963863968849182,-0.10262536257505417,0.033597588539123535
1732873686290884000,0.559884033203125,-0.05619960278272629,-0.11178833991289139,0.02382374368607998
1732873686300885200,0.56988525390625,-0.039095375686883926,-0.11301007121801376,0.015271631069481373
1732873686310872800,0.579872802734375,-0.03787364438176155,-0.10323622822761536,0.009773843921720982
1732873686320904400,0.589904541015625,-0.04214970022439957,-0.08185594528913498,0.0024434609804302454
1732873686330862000,0.599862060546875,-0.042760565876960754,-0.05375614017248154,-0.006719517521560192
1732873686340893400,0.6098935546875,-0.04214970022439957,-0.031154127791523933,-0.01160643994808197
1732873686350881500,0.619881591796875,-0.04153883829712868,-0.024434609338641167,-0.01466076634824276
1732873686360882700,0.629882568359375,-0.039095375686883926,-0.03176499158143997,-0.01710422709584236
1732873686370870500,0.63987060546875,-0.03420845419168472,-0.05314527451992035,-0.014049900695681572
1732873686380902100,0.649902099609375,-0.0354301854968071,-0.06719517707824707,-0.006108652334660292
1732873686390859800,0.65985986328125,-0.042760565876960754,-0.07513642311096191,0.004886921960860491
1732873686400891400,0.669891357421875,-0.048258353024721146,-0.07513642311096191,0.013439035043120384
1732873686410879200,0.679879150390625,-0.051312681287527084,-0.06963863968849182,0.018325956538319588
1732873686420880100,0.689880126953125,-0.051312681287527084,-0.06230825558304787,0.02015855349600315
1732873686430868200,0.6998681640625,-0.05619960278272629,-0.0555887371301651,0.018325956538319588
1732873686440899800,0.70989990234375,-0.06536258012056351,-0.05375614017248154,0.02076941914856434
1732873686450857200,0.719857177734375,-0.07391469180583954,-0.05314527451992035,0.025045474991202354
1732873686460888800,0.729888916015625,-0.07208210229873657,-0.04948008432984352,0.025656340643763542
1732873686470877000,0.739876953125,-0.06536258012056351,-0.04459316283464432,0.021380282938480377
1732873686480908500,0.749908447265625,-0.06169738993048668,-0.045204028487205505,0.01038470957428217
1732873686490866200,0.7598662109375,-0.06230825558304787,-0.05314527451992035,0.0012217304902151227
1732873686500897500,0.7698974609375,-0.0659734457731247,-0.06230825558304787,-0.0024434609804302454
1732873686510885000,0.779885009765625,-0.06780604273080826,-0.06108652427792549,-0.007941247895359993
1732873686520886500,0.789886474609375,-0.06658431142568588,-0.04703662544488907,-0.005497787147760391
1732873686530874400,0.799874267578125,-0.056810468435287476,-0.033597588539123535,-0.00366519158706069
1732873686540906200,0.80990625,-0.039095375686883926,-0.019547687843441963,-0.006719517521560192
1732873686550863400,0.81986328125,-0.024434609338641167,-0.015271631069481373,-0.01771509274840355
1732873686560895000,0.82989501953125,-0.02076941914856434,-0.021991148591041565,-0.029932396486401558
1732873686570883000,0.839883056640625,-0.021380282938480377,-0.025656340643763542,-0.05009094998240471
1732873686580884000,0.849884033203125,-0.021991148591041565,-0.03726277872920036,-0.06780604273080826
1732873686590870300,0.859870361328125,-0.02076941914856434,-0.054367005825042725,-0.06475171446800232
1732873686600902400,0.86990234375,-0.019547687843441963,-0.05375614017248154,-0.05009094998240471
1732873686610860000,0.879860107421875,-0.01771509274840355,-0.04642575979232788,-0.03237585723400116
1732873686620891400,0.889891357421875,-0.018325956538319588,-0.045204028487205505,-0.015271631069481373
1732873686630879500,0.89987939453125,-0.019547687843441963,-0.04153883829712868,-0.00855211354792118
1732873686640880000,0.909880126953125,-0.02382374368607998,-0.036651913076639175,-0.014049900695681572
1732873686650868500,0.919868408203125,-0.029932396486401558,-0.02932153269648552,-0.025656340643763542
1732873686660900400,0.929900390625,-0.04153883829712868,-0.02687807008624077,-0.03726277872920036
1732873686670857500,0.939857421875,-0.059864792972803116,-0.03298672288656235,-0.048258353024721146
1732873686680889300,0.949889404296875,-0.07269296050071716,-0.04337143152952194,-0.048258353024721146
1732873686690878000,0.9598779296875,-0.08857546001672745,-0.05497787147760391,-0.03726277872920036
1732873686700879000,0.969879150390625,-0.10812314599752426,-0.06475171446800232,-0.015882495790719986
1732873686710867000,0.979866943359375,-0.12278391420841217,-0.07269296050071716,0.00855211354792118
1732873686720898600,0.989898681640625,-0.1270599663257599,-0.06352998316287994,0.01771509274840355
1732873686730886400,0.999886474609375,-0.12339477986097336,-0.04642575979232788,0.01038470957428217
1732873686740887600,1.009887451171875,-0.12278391420841217,-0.0403171069920063,-0.01038470957428217
1732873686750875600,1.019875732421875,-0.12889257073402405,-0.04642575979232788,-0.02871066704392433
1732873686760907000,1.029906982421875,-0.13927727937698364,-0.05864306539297104,-0.039706241339445114
1732873686770864600,1.03986474609375,-0.15027284622192383,-0.06414084881544113,-0.04886921867728233
1732873686780896300,1.049896240234375,-0.15454891324043274,-0.06169738993048668,-0.048258353024721146
1732873686790884000,1.059884033203125,-0.15760323405265808,-0.04764748737215996,-0.04398229718208313
1732873686800885200,1.06988525390625,-0.15821409225463867,-0.031154127791523933,-0.03298672288656235
1732873686810872800,1.079872802734375,-0.16554448008537292,-0.009773843921720982,-0.004886921960860491
1732873686820904400,1.089904541015625,-0.17409659922122955,-0.00427605677396059,0.01771509274840355
1732873686830862000,1.099862060546875,-0.18325957655906677,0.001832595793530345,0.036041051149368286
1732873686840894000,1.10989404296875,-0.18875735998153687,0.010995574295520782,0.04398229718208313
1732873686850881500,1.119881591796875,-0.18875735998153687,0.027488935738801956,0.03848451003432274
1732873686860882700,1.129882568359375,-0.18936823308467865,0.03787364438176155,0.031154127791523933
1732873686870870500,1.13987060546875,-0.19058994948863983,0.039706241339445114,0.02626720629632473
1732873686880902100,1.149902099609375,-0.19853121042251587,0.02932153269648552,0.02871066704392433
1732873686890859500,1.159859619140625,-0.22357667982578278,-0.001832595793530345,0.04153883829712868
1732873686900891400,1.169891357421875,-0.24068090319633484,-0.02076941914856434,0.05314527451992035
1732873686910879000,1.17987890625,-0.25045475363731384,-0.03237585723400116,0.05925392732024193
1732873686920880400,1.18988037109375,-0.252287358045578,-0.02076941914856434,0.06414084881544113
1732873686930868200,1.1998681640625,-0.2528982162475586,0.005497787147760391,0.0708603709936142
1732873686940899600,1.209899658203125,-0.26145032048225403,0.03787364438176155,0.0861319974064827
1732873686950857200,1.219857177734375,-0.2736676335334778,0.06414084881544113,0.10506882518529892
1732873686960888600,1.229888671875,-0.2938261926174164,0.07635815441608429,0.13561208546161652
1732873686970876700,1.239876708984375,-0.30482175946235657,0.06780604273080826,0.1466076523065567
1732873686980908300,1.249908203125,-0.3066543638706207,0.05253441259264946,0.1466076523065567
1732873686990865700,1.25986572265625,-0.2981022298336029,0.04214970022439957,0.13927727937698364
1732873687000897500,1.2698974609375,-0.2840523421764374,0.03787364438176155,0.12889257073402405
1732873687010885000,1.279885009765625,-0.2718350291252136,0.04459316283464432,0.12339477986097336
1732873687020886300,1.28988623046875,-0.2571742534637451,0.05497787147760391,0.12950342893600464
1732873687030874000,1.2998740234375,-0.23945917189121246,0.08491026610136032,0.16554448008537292
1732873687040905700,1.30990576171875,-0.2272418737411499,0.11362093687057495,0.19792033731937408
1732873687050863000,1.319863037109375,-0.2119702398777008,0.13866640627384186,0.22418753802776337
1732873687060894700,1.329894775390625,-0.1875356286764145,0.1563815027475357,0.23945917189121246
1732873687070882800,1.3398828125,-0.15760323405265808,0.1661553531885147,0.2376265823841095
1732873687080883700,1.3498837890625,-0.1264491081237793,0.16371189057826996,0.21319197118282318
1732873687090900200,1.359900146484375,-0.1062905490398407,0.14416420459747314,0.18387043476104736
1732873687100903400,1.3699033203125,-0.10751228034496307,0.1111774742603302,0.16249015927314758
1732873687110860800,1.37986083984375,-0.1368338167667389,0.060475658625364304,0.13439035415649414
1732873687120892400,1.389892333984375,-0.15882496535778046,0.04581489413976669,0.10690141469240189
1732873687130880300,1.39988037109375,-0.1618792861700058,0.04092797264456749,0.0806342139840126
1732873687140881400,1.40988134765625,-0.15515977144241333,0.033597588539123535,0.059864792972803116
1732873687150869200,1.419869140625,-0.1411098688840866,0.01710422709584236,0.05314527451992035
1732873687160900900,1.42990087890625,-0.13316862285137177,-0.00855211354792118,0.05742133408784866
1732873687170858500,1.4398583984375,-0.1264491081237793,-0.029932396486401558,0.07147123664617538
1732873687180890000,1.44989013671875,-0.10567969083786011,-0.05925392732024193,0.1007927656173706
1732873687190878000,1.4598779296875,-0.08857546001672745,-0.07452555745840073,0.12095131725072861
1732873687200879000,1.469879150390625,-0.07269296050071716,-0.08368854224681854,0.13927727937698364
1732873687210867000,1.479866943359375,-0.05497787147760391,-0.08979719132184982,0.15332718193531036
1732873687220898300,1.489898193359375,-0.04398229718208313,-0.08185594528913498,0.16310101747512817
1732873687230886400,1.499886474609375,-0.033597588539123535,-0.06658431142568588,0.16493362188339233
1732873687240887300,1.50988720703125,-0.02932153269648552,-0.04948008432984352,0.16065755486488342
1732873687250875400,1.51987548828125,-0.024434609338641167,-0.02076941914856434,0.13561208546161652
1732873687260907000,1.529906982421875,-0.02015855349600315,-0.01771509274840355,0.11789698898792267
1732873687270864600,1.53986474609375,-0.02687807008624077,-0.042760565876960754,0.11301007121801376
1732873687280896000,1.54989599609375,-0.03420845419168472,-0.08429940044879913,0.11850785464048386
1732873687290884000,1.559884033203125,-0.021380282938480377,-0.12400564551353455,0.11972958594560623
1732873687300884500,1.569884521484375,0.02076941914856434,-0.14782938361167908,0.11728613078594208
1732873687310872800,1.579872802734375,0.08307767659425735,-0.1618792861700058,0.10323622822761536
1732873687320903700,1.589903564453125,0.1466076523065567,-0.15760323405265808,0.0659734457731247
1732873687330862000,1.599862060546875,0.2565633952617645,-0.03420845419168472,-0.08246681094169617
1732873687340893700,1.609893798828125,0.32070425152778625,0.10201449692249298,-0.23640485107898712
1732873687350881500,1.619881591796875,0.3439171314239502,0.20830504596233368,-0.3891211748123169
1732873687360882700,1.629882568359375,0.3017674386501312,0.2431243658065796,-0.5051855444908142
1732873687370870800,1.639870849609375,0.19425514340400696,0.16432274878025055,-0.5467243790626526
1732873687380902100,1.649902099609375,0.05497787147760391,-0.03176499158143997,-0.4764748811721802
1732873687390859800,1.65985986328125,-0.06902777403593063,-0.304210901260376,-0.29077184200286865
1732873687400891100,1.66989111328125,-0.13255776464939117,-0.6432411074638367,0.0659734457731247
1732873687410879000,1.67987890625,-0.0861319974064827,-0.6328563690185547,0.24984388053417206
1732873687420880100,1.689880126953125,-0.02015855349600315,-0.46364670991897583,0.37568211555480957
1732873687430868200,1.6998681640625,0.004886921960860491,-0.2119702398777008,0.45142942667007446
1732873687440899000,1.709899169921875,-0.025045474991202354,0.054367005825042725,0.46303585171699524
1732873687450857200,1.719857177734375,-0.09407325088977814,0.2638937830924988,0.3738495409488678
1732873687460888300,1.729888427734375,-0.18325957655906677,0.3396410644054413,0.19608774781227112
1732873687470876700,1.739876708984375,-0.2883284091949463,0.22052235901355743,-0.14905111491680145
1732873687480907300,1.7499072265625,-0.3017674386501312,0.060475658625364304,-0.37568211555480957
1732873687490865700,1.75986572265625,-0.27000242471694946,-0.12217304855585098,-0.5448917746543884
1732873687500896000,1.76989599609375,-0.2168571650981903,-0.3072652220726013,-0.6151412725448608
1732873687510885000,1.779885009765625,-0.1716531366109848,-0.47280970215797424,-0.5723807215690613
1732873687520885200,1.78988525390625,-0.152105450630188,-0.5797111392021179,-0.4495968222618103
1732873687530874400,1.799874267578125,-0.15027284622192383,-0.5937610268592834,-0.29626965522766113
1732873687540905700,1.80990576171875,-0.17531833052635193,-0.5277875661849976,-0.1417207419872284
1732873687550863400,1.81986328125,-0.24862214922904968,-0.2974913716316223,0.056810468435287476
1732873687560895000,1.82989501953125,-0.29626965522766113,-0.07452555745840073,0.1411098688840866
1732873687570883000,1.839883056640625,-0.34025195240974426,0.12339477986097336,0.1820378452539444
1732873687580883700,1.8498837890625,-0.3701843321323395,0.2382374405860901,0.17776179313659668
1732873687590870300,1.859870361328125,-0.3781255781650543,0.24556782841682434,0.14905111491680145
1732873687600901400,1.8699013671875,-0.35552358627319336,0.1612684279680252,0.10690141469240189
1732873687610860000,1.879860107421875,-0.30604347586631775,0.02932153269648552,0.04886921867728233
1732873687620890400,1.889890380859375,-0.2064724564552307,-0.17898350954055786,-0.04337143152952194
1732873687630879500,1.89987939453125,-0.1411098688840866,-0.30970868468284607,-0.08246681094169617
1732873687640880400,1.90988037109375,-0.10445795953273773,-0.4190535545349121,-0.10323622822761536
1732873687650868500,1.919868408203125,-0.09529497474431992,-0.4740314185619354,-0.12278391420841217
1732873687660900000,1.929900146484375,-0.1014036312699318,-0.4599815309047699,-0.15577064454555511
1732873687670857500,1.939857421875,-0.10873401165008545,-0.38179078698158264,-0.19486601650714874
1732873687680889000,1.94988916015625,-0.12034045159816742,-0.26939156651496887,-0.24007004499435425
1732873687690878000,1.9598779296875,-0.15332718193531036,-0.09407325088977814,-0.3066543638706207
1732873687700878800,1.96987890625,-0.17470745742321014,-0.02871066704392433,-0.34697145223617554
1732873687710867000,1.979866943359375,-0.18570303916931152,-0.02932153269648552,-0.3781255781650543
1732873687720898300,1.989898193359375,-0.17470745742321014,-0.06719517707824707,-0.38728857040405273
1732873687730886400,1.999886474609375,-0.1569923609495163,-0.11728613078594208,-0.3481931984424591
1732873687740887300,2.00988720703125,-0.13805554807186127,-0.15821409225463867,-0.2620611786842346
1732873687750875400,2.01987548828125,-0.1264491081237793,-0.1716531366109848,-0.14355333149433136
1732873687760906200,2.02990625,-0.11728613078594208,-0.16798794269561768,-0.022602014243602753
1732873687770864600,2.03986474609375,-0.0910189226269722,-0.14905111491680145,0.11545353382825851
1732873687780895200,2.049895263671875,-0.07269296050071716,-0.15332718193531036,0.16982053220272064
1732873687790884000,2.059884033203125,-0.04581489413976669,-0.14355333149433136,0.19608774781227112
1732873687800884200,2.06988427734375,-0.018325956538319588,-0.11911872029304504,0.2070833146572113
1732873687810872800,2.079872802734375,0.0024434609804302454,-0.07880161702632904,0.22113321721553802
1732873687820903700,2.089903564453125,0.024434609338641167,-0.014049900695681572,0.24007004499435425
1732873687830862000,2.099862060546875,0.056810468435287476,0.06414084881544113,0.24495697021484375
1732873687840893400,2.1098935546875,0.08735372871160507,0.13927727937698364,0.22418753802776337
1732873687850881500,2.119881591796875,0.06291911751031876,0.13927727937698364,0.1771509200334549
1732873687860882400,2.12988232421875,0.015271631069481373,0.11239920556545258,0.08796459436416626
1732873687870870500,2.13987060546875,-0.02871066704392433,0.09040805697441101,-0.02321287989616394
1732873687880902100,2.149902099609375,-0.05375614017248154,0.07696902006864548,-0.1362229436635971
1732873687890859500,2.159859619140625,-0.07024950534105301,0.07513642311096191,-0.21930062770843506
1732873687900891000,2.169890869140625,-0.09040805697441101,0.07269296050071716,-0.24678955972194672
1732873687910879000,2.17987890625,-0.12217304855585098,0.025656340643763542,-0.192422553896904
1732873687920879900,2.1898798828125,-0.1319468915462494,-0.018325956538319588,-0.12034045159816742
1732873687930868200,2.1998681640625,-0.13561208546161652,-0.0555887371301651,-0.05375614017248154
1732873687940899800,2.20989990234375,-0.1411098688840866,-0.06841690838336945,-0.01038470957428217
1732873687950857200,2.219857177734375,-0.14049901068210602,-0.05375614017248154,0.003054326167330146
1732873687960888800,2.229888916015625,-0.14049901068210602,-0.010995574295520782,0.00366519158706069
1732873687970877000,2.239876953125,-0.15515977144241333,0.027488935738801956,-0.001832595793530345
1732873687980908500,2.249908447265625,-0.18325957655906677,0.04642575979232788,-0.015271631069481373
1732873687990865700,2.25986572265625,-0.22540926933288574,0.02932153269648552,-0.027488935738801956
1732873688000897500,2.2698974609375,-0.24984388053417206,-0.019547687843441963,-0.02687807008624077
1732873688010885000,2.279885009765625,-0.2681698501110077,-0.07513642311096191,-0.019547687843441963
1732873688020886300,2.28988623046875,-0.24984388053417206,-0.12522737681865692,-0.00733038317412138
1732873688030874000,2.2998740234375,-0.19792033731937408,-0.16493362188339233,0.001832595793530345
1732873688040905200,2.3099052734375,-0.12889257073402405,-0.21013765037059784,0.004886921960860491
1732873688050863400,2.31986328125,-0.0757472887635231,-0.2382374405860901,-0.016493361443281174
1732873688060894700,2.329894775390625,-0.04703662544488907,-0.24678955972194672,-0.12339477986097336
1732873688070882800,2.3398828125,-0.04703662544488907,-0.2577851414680481,-0.22357667982578278
1732873688080883200,2.34988330078125,-0.04886921867728233,-0.3396410644054413,-0.3439171314239502
1732873688090871800,2.359871826171875,0.051312681287527084,-0.16249015927314758,-0.4251621961593628
1732873688100903400,2.3699033203125,0.17776179313659668,-0.08735372871160507,-0.45875978469848633
1732873688110860800,2.37986083984375,0.15577064454555511,-0.05619960278272629,-0.5143485069274902
1732873688120892200,2.38989208984375,0.04153883829712868,-0.1411098688840866,-0.5149593949317932
1732873688130880300,2.39988037109375,-0.18814650177955627,-0.6017022728919983,-0.3952298164367676
1732873688140881200,2.409881103515625,-0.37079519033432007,-0.8857545852661133,-0.2675589919090271
1732873688150869500,2.419869384765625,-0.5357288122177124,-1.1197160482406616,-0.06291911751031876
1732873688160900900,2.42990087890625,-0.6157521605491638,-1.187522053718567,0.22357667982578278
1732873688170858500,2.4398583984375,-0.6108652353286743,-1.0757336616516113,0.5308418869972229
1732873688180889900,2.449889892578125,-0.5552765130996704,-0.7922922372817993,0.799011766910553
1732873688190878000,2.4598779296875,-0.48197266459465027,-0.3933972120285034,0.9767735004425049
1732873688200877600,2.469877685546875,-0.44165557622909546,0.04764748737215996,1.0396926403045654
1732873688210867000,2.479866943359375,-0.45326200127601624,0.5681046843528748,0.9291260242462158
1732873688220898300,2.489898193359375,-0.4709770977497101,0.7452555894851685,0.7397578358650208
1732873688230886700,2.49988671875,-0.46853363513946533,0.8063421249389648,0.4691445231437683
1732873688240886300,2.50988623046875,-0.4288274049758911,0.7195992469787598,0.15393804013729095
1732873688250875400,2.51987548828125,-0.37262779474258423,0.5668829679489136,-0.1667662113904953
1732873688260905500,2.529905517578125,-0.3591887652873993,0.37079519033432007,-0.475253164768219
1732873688270864600,2.53986474609375,-0.3701843321323395,0.13377949595451355,-0.7018841505050659
1732873688280896000,2.54989599609375,-0.35552358627319336,-0.2076941877603531,-0.7867944240570068
1732873688290884000,2.559884033203125,-0.34636059403419495,-0.3543018400669098,-0.7006624341011047
1732873688300885000,2.569885009765625,-0.3805690407752991,-0.42638394236564636,-0.5283984541893005
1732873688310873000,2.579873046875,-0.4508185386657715,-0.42271876335144043,-0.30604347586631775
1732873688320904700,2.58990478515625,-0.50335294008255,-0.3732386529445648,-0.060475658625364304
1732873688330862000,2.599862060546875,-0.5143485069274902,-0.2773328125476837,0.1716531366109848
1732873688340894000,2.60989404296875,-0.49235737323760986,-0.16859880089759827,0.34513887763023376
1732873688350881500,2.619881591796875,-0.44776421785354614,-0.03726277872920036,0.4917465150356293
1732873688360882400,2.62988232421875,-0.4178318381309509,0.019547687843441963,0.5320636034011841
1732873688370870800,2.639870849609375,-0.4001167416572571,0.0403171069920063,0.5375614166259766
1732873688380900900,2.64990087890625,-0.4086688458919525,0.0354301854968071,0.513126790523529
1732873688390859800,2.65985986328125,-0.4306600093841553,0.01771509274840355,0.4550946056842804
1732873688400890000,2.66989013671875,-0.45692721009254456,-0.015882495790719986,0.3591887652873993
1732873688410879000,2.67987890625,-0.47708576917648315,-0.039095375686883926,0.22540926933288574
1732873688420880100,2.689880126953125,-0.45814892649650574,-0.02015855349600315,0.06719517707824707
1732873688430868200,2.6998681640625,-0.3591887652873993,0.018936822190880775,-0.08246681094169617
1732873688440900000,2.709900146484375,-0.2718350291252136,0.029932396486401558,-0.09957103431224823
1732873688450857200,2.719857177734375,-0.16798794269561768,0.04214970022439957,-0.06719517707824707
1732873688460888800,2.729888916015625,-0.05192354694008827,0.05925392732024193,0.00366519158706069
1732873688470877000,2.739876953125,0.05192354694008827,0.07452555745840073,0.08918632566928864
1732873688480908300,2.749908203125,0.11484266817569733,0.07147123664617538,0.17104226350784302
1732873688490866000,2.759865966796875,0.1411098688840866,0.0659734457731247,0.23029619455337524
1732873688500897300,2.769897216796875,0.1270599663257599,0.06414084881544113,0.26633724570274353
1732873688510885400,2.779885498046875,0.0959058403968811,0.05864306539297104,0.26939156651496887
1732873688520886300,2.78988623046875,0.07757988572120667,0.04398229718208313,0.2626720666885376
1732873688530874400,2.799874267578125,0.07941248267889023,0.01466076634824276,0.24617868661880493
1732873688540905700,2.80990576171875,0.09896016865968704,-0.036651913076639175,0.23518311977386475
1732873688550863400,2.81986328125,0.13744467496871948,-0.09529497474431992,0.22968533635139465
1732873688560895000,2.82989501953125,0.20097467303276062,-0.13439035415649414,0.22540926933288574
1732873688570883000,2.839883056640625,0.3023782968521118,-0.16065755486488342,0.1814269721508026
1732873688580884000,2.849884033203125,0.35246923565864563,-0.1459967941045761,0.1111774742603302
1732873688590870300,2.859870361328125,0.394618958234787,-0.11667526513338089,-0.00733038317412138
1732873688600902700,2.869902587890625,0.42149701714515686,-0.09285151958465576,-0.16310101747512817
1732873688610860000,2.879860107421875,0.4239404797554016,-0.08307767659425735,-0.34025195240974426
1732873688620891400,2.889891357421875,0.4178318381309509,-0.1258382350206375,-0.5180137157440186
1732873688630879500,2.89987939453125,0.413555771112442,-0.1918116807937622,-0.6841690540313721
1732873688640880400,2.90988037109375,0.40744712948799133,-0.2932153046131134,-0.8289441466331482
1732873688650868200,2.9198681640625,0.3799581825733185,-0.5192354321479797,-0.8845328688621521
1732873688660900000,2.929900146484375,0.34147366881370544,-0.6517932415008545,-0.7556403279304504
1732873688670857500,2.939857421875,0.2877175211906433,-0.6890559792518616,-0.5241223573684692
1732873688680889000,2.94988916015625,0.20891591906547546,-0.6206390857696533,-0.22846360504627228
1732873688690877700,2.959877685546875,0.10506882518529892,-0.4709770977497101,0.08002334833145142
1732873688700878800,2.96987890625,0.0012217304902151227,-0.2840523421764374,0.3335324227809906
1732873688710867000,2.979866943359375,-0.08307767659425735,-0.0861319974064827,0.4917465150356293
1732873688720897800,2.989897705078125,-0.17837265133857727,0.15393804013729095,0.5467243790626526
1732873688730886400,2.999886474609375,-0.22479841113090515,0.242513507604599,0.47830748558044434
1732873688740886300,3.00988623046875,-0.22540926933288574,0.27061331272125244,0.34697145223617554
1732873688750875600,3.019875732421875,-0.17409659922122955,0.21563543379306793,0.1569923609495163
1732873688760906500,3.029906494140625,-0.11239920556545258,0.10384709388017654,-0.0757472887635231
1732873688770864600,3.03986474609375,-0.06841690838336945,-0.00855211354792118,-0.27611109614372253
1732873688780895200,3.049895263671875,-0.05192354694008827,-0.09285151958465576,-0.38667771220207214
1732873688790884000,3.059884033203125,-0.08307767659425735,-0.1716531366109848,-0.3683517575263977
1732873688800885200,3.06988525390625,-0.12400564551353455,-0.2070833146572113,-0.2773328125476837
1732873688810872800,3.079872802734375,-0.16432274878025055,-0.20830504596233368,-0.14477506279945374
1732873688820904400,3.089904541015625,-0.2028072625398636,-0.17043140530586243,0.02321287989616394
1732873688830862000,3.099862060546875,-0.24007004499435425,-0.09224065393209457,0.21624629199504852
1732873688840893400,3.1098935546875,-0.2730567753314972,0.01466076634824276,0.41233405470848083
1732873688850881500,3.119881591796875,-0.29138273000717163,0.10812314599752426,0.5717698931694031
1732873688860882400,3.12988232421875,-0.2974913716316223,0.1508837193250656,0.6524040699005127
1732873688870870500,3.13987060546875,-0.28466320037841797,0.15027284622192383,0.646906316280365
1732873688880901600,3.149901611328125,-0.26145032048225403,0.12461651116609573,0.5925393104553223
1732873688890859500,3.159859619140625,-0.23945917189121246,0.07330382615327835,0.503963828086853
1732873688900890400,3.169890380859375,-0.23151792585849762,0.009773843921720982,0.394008070230484
1732873688910879000,3.17987890625,-0.24068090319633484,-0.05742133408784866,0.28649580478668213
1732873688920879600,3.189879638671875,-0.2480112910270691,-0.11484266817569733,0.18814650177955627
1732873688930868200,3.1998681640625,-0.26022860407829285,-0.14905111491680145,0.10873401165008545
1732873688940899300,3.2098994140625,-0.27550023794174194,-0.1466076523065567,0.02382374368607998
1732873688950857200,3.219857177734375,-0.26450464129447937,-0.11484266817569733,-0.016493361443281174
1732873688960888300,3.229888427734375,-0.2321287989616394,-0.08918632566928864,-0.06291911751031876
1732873688970876700,3.239876708984375,-0.19364428520202637,-0.09040805697441101,-0.10812314599752426
1732873688980908000,3.249907958984375,-0.16249015927314758,-0.08246681094169617,-0.1417207419872284
1732873688990865700,3.25986572265625,-0.13072516024112701,-0.03726277872920036,-0.1514945775270462
1732873689000896500,3.269896484375,-0.09834930300712585,0.004886921960860491,-0.12950342893600464
1732873689010885000,3.279885009765625,-0.04886921867728233,0.04092797264456749,-0.02871066704392433
1732873689020886300,3.28988623046875,-0.03848451003432274,0.014049900695681572,0.06780604273080826
1732873689030874000,3.2998740234375,-0.039706241339445114,-0.03237585723400116,0.16310101747512817
1732873689040905700,3.30990576171875,-0.03726277872920036,-0.09162978827953339,0.24617868661880493
1732873689050863400,3.31986328125,-0.02382374368607998,-0.12889257073402405,0.2926044464111328
1732873689060894000,3.32989404296875,0.003054326167330146,-0.13500121235847473,0.2938261926174164
1732873689070882800,3.3398828125,0.02321287989616394,-0.1313360333442688,0.26083946228027344
1732873689080883200,3.34988330078125,0.04214970022439957,-0.11178833991289139,0.19303341209888458
1732873689090898400,3.3598984375,0.07696902006864548,-0.05375614017248154,0.054367005825042725
1732873689100903400,3.3699033203125,0.0806342139840126,0.013439035043120384,-0.03848451003432274
1732873689110860800,3.37986083984375,0.0659734457731247,0.08246681094169617,-0.10751228034496307
1732873689120892200,3.38989208984375,0.03481931984424591,0.1160643994808197,-0.15027284622192383
1732873689130880300,3.39988037109375,0.00366519158706069,0.09468411654233932,-0.17531833052635193
1732873689140881200,3.409881103515625,-0.012828170321881771,0,-0.20463985204696655
1732873689150869200,3.419869140625,0.0024434609804302454,-0.1508837193250656,-0.25473082065582275
1732873689160900600,3.429900634765625,0.0555887371301651,-0.4147774875164032,-0.3536909818649292
1732873689170858500,3.4398583984375,0.06352998316287994,-0.5607742667198181,-0.40194934606552124
1732873689180890000,3.44989013671875,0.04337143152952194,-0.6774495840072632,-0.3982841372489929
1732873689190877700,3.459877685546875,0.006108652334660292,-0.749531626701355,-0.33475416898727417
1732873689200878800,3.46987890625,-0.01160643994808197,-0.7324274182319641,-0.22968533635139465
1732873689210867000,3.479866943359375,0.0006108652451075613,-0.6004805564880371,-0.10690141469240189
1732873689220898300,3.489898193359375,0.05192354694008827,-0.2938261926174164,0.02626720629632473
1732873689230886400,3.499886474609375,0.04581489413976669,0.1966986060142517,0.19303341209888458
1732873689240887300,3.50988720703125,-0.024434609338641167,0.38117989897727966,0.18936823308467865
1732873689250875400,3.51987548828125,-0.0659734457731247,0.4105014503002167,0.07513642311096191
1732873689260905700,3.52990576171875,-0.039706241339445114,0.3591887652873993,-0.07513642311096191
1732873689270864600,3.53986474609375,0.048258353024721146,0.27611109614372253,-0.20586158335208893
1732873689280894700,3.549894775390625,0.14782938361167908,0.1618792861700058,-0.2730567753314972
1732873689290884000,3.559884033203125,0.21013765037059784,0.06230825558304787,-0.2834414839744568
1732873689300885000,3.569885009765625,0.20891591906547546,-0.03481931984424591,-0.2577851414680481
1732873689310873000,3.579873046875,0.17043140530586243,-0.08491026610136032,-0.24434609711170197
1732873689320904400,3.589904541015625,0.1319468915462494,-0.14233160018920898,-0.24495697021484375
1732873689330862000,3.599862060546875,0.10445795953273773,-0.17531833052635193,-0.21624629199504852
1732873689340893400,3.6098935546875,0.10201449692249298,-0.15027284622192383,-0.14294247329235077
1732873689350881800,3.6198818359375,0.11789698898792267,-0.07452555745840073,-0.036651913076639175
1732873689360882700,3.629882568359375,0.13927727937698364,0.012217304669320583,0.09712757170200348
1732873689370870500,3.63987060546875,0.18570303916931152,0.12767083942890167,0.24129177629947662
1732873689380902100,3.649902099609375,0.26939156651496887,0.22357667982578278,0.3933972120285034
1732873689390859800,3.65985986328125,0.28466320037841797,0.22968533635139465,0.4306600093841553
1732873689400891100,3.66989111328125,0.30482175946235657,0.2541199326515198,0.4440990388393402
1732873689410879000,3.67987890625,0.32070425152778625,0.27061331272125244,0.4331034719944
1732873689420878800,3.68987890625,0.3029891550540924,0.24556782841682434,0.3805690407752991
1732873689430868200,3.6998681640625,0.26145032048225403,0.2028072625398636,0.303600013256073
1732873689440899600,3.709899658203125,0.21074850857257843,0.1160643994808197,0.2168571650981903
1732873689450857200,3.719857177734375,0.14416420459747314,0.004886921960860491,0.12034045159816742
1732873689460888600,3.729888671875,0.1411098688840866,0.001832595793530345,0.11239920556545258
1732873689470877000,3.739876953125,0.15271630883216858,0.027488935738801956,0.14538592100143433
1732873689480908300,3.749908203125,0.17104226350784302,0.054367005825042725,0.19608774781227112
1732873689490865700,3.75986572265625,0.19364428520202637,0.06719517707824707,0.2382374405860901
1732873689500897300,3.769897216796875,0.21868975460529327,0.06902777403593063,0.2590068578720093
1732873689510885400,3.779885498046875,0.24495697021484375,0.06719517707824707,0.2620611786842346
1732873689520886300,3.78988623046875,0.3023782968521118,0.07330382615327835,0.2382374405860901
1732873689530874400,3.799874267578125,0.34086281061172485,0.08368854224681854,0.20402899384498596
1732873689540906000,3.809906005859375,0.38728857040405273,0.0806342139840126,0.15515977144241333
1732873689550863400,3.81986328125,0.44287729263305664,0.07147123664617538,0.09285151958465576
1732873689560895200,3.829895263671875,0.5002986192703247,0.06414084881544113,0.029932396486401558
1732873689570883000,3.839883056640625,0.5461135506629944,0.059864792972803116,-0.012828170321881771
1732873689580884000,3.849884033203125,0.5699372887611389,0.08185594528913498,-0.039095375686883926
1732873689590870300,3.859870361328125,0.5955936312675476,0.1966986060142517,-0.02076941914856434
1732873689600901000,3.869901123046875,0.6004805564880371,0.44776421785354614,0.07024950534105301
1732873689610860000,3.879860107421875,0.5094616413116455,0.5436700582504272,0.13439035415649414
1732873689620891400,3.889891357421875,0.3787364661693573,0.40256020426750183,0.13561208546161652
1732873689630879500,3.89987939453125,0.3903428912162781,0.21807889640331268,0.10812314599752426
1732873689640880600,3.909880615234375,0.4605923891067505,0.10018189996480942,0.08674286305904388
1732873689650868500,3.919868408203125,0.4746423065662384,-0.01038470957428217,0.08002334833145142
1732873689660900400,3.929900390625,0.4990769028663635,-0.10567969083786011,0.08918632566928864
1732873689670857500,3.939857421875,0.5564982295036316,-0.12950342893600464,0.06475171446800232
1732873689680889300,3.949889404296875,0.5638286471366882,-0.06291911751031876,0.05864306539297104
1732873689690878000,3.9598779296875,0.5528330206871033,0.09346238523721695,0.07819075137376785
1732873689700879000,3.969879150390625,0.5155702829360962,0.27061331272125244,0.06536258012056351
1732873689710867000,3.979866943359375,0.4202753007411957,0.27611109614372253,-0.059864792972803116
1732873689720898600,3.989898681640625,0.30482175946235657,0.13805554807186127,-0.2626720666885376
1732873689730886400,3.999886474609375,0.22296582162380219,-0.07147123664617538,-0.45814892649650574
1732873689740887300,4.00988720703125,0.16920967400074005,-0.2816088795661926,-0.5491678714752197
1732873689750875400,4.01987548828125,0.15577064454555511,-0.3139847218990326,-0.484416127204895
1732873689760906800,4.02990673828125,0.1368338167667389,-0.2724458873271942,-0.3781255781650543
1732873689770864400,4.039864501953125,0.09834930300712585,-0.19364428520202637,-0.2724458873271942
1732873689780896000,4.04989599609375,0.03726277872920036,-0.11301007121801376,-0.2119702398777008
1732873689790884400,4.05988427734375,-0.04398229718208313,-0.045204028487205505,-0.20402899384498596
1732873689800885000,4.069885009765625,-0.14416420459747314,-0.02626720629632473,-0.21502456068992615
1732873689810872800,4.079872802734375,-0.25961771607398987,-0.07330382615327835,-0.21991148591041565
1732873689820905000,4.089905029296875,-0.41111230850219727,-0.20891591906547546,-0.17837265133857727
1732873689830862000,4.099862060546875,-0.4905247986316681,-0.29016098380088806,-0.11362093687057495
1732873689840893000,4.109892822265625,-0.5436700582504272,-0.3396410644054413,-0.036041051149368286
1732873689850881500,4.119881591796875,-0.5583308339118958,-0.3628539443016052,0.036041051149368286
1732873689860881400,4.12988134765625,-0.5351179838180542,-0.3530801236629486,0.08185594528913498
1732873689870870500,4.13987060546875,-0.4917465150356293,-0.33047810196876526,0.0910189226269722
1732873689880901000,4.149901123046875,-0.43676865100860596,-0.3084869384765625,0.0659734457731247
1732873689890859500,4.159859619140625,-0.3543018400669098,-0.29626965522766113,0.010995574295520782
1732873689900890000,4.16989013671875,-0.30482175946235657,-0.3017674386501312,-0.0006108652451075613
1732873689910879000,4.17987890625,-0.2565633952617645,-0.29626965522766113,0.021380282938480377
1732873689920879600,4.189879638671875,-0.20097467303276062,-0.2785545587539673,0.0708603709936142
1732873689930868000,4.199867919921875,-0.16249015927314758,-0.24984388053417206,0.13866640627384186
1732873689940899000,4.209899169921875,-0.13439035415649414,-0.2064724564552307,0.20341812074184418
1732873689950857200,4.219857177734375,-0.10995574295520782,-0.16371189057826996,0.252287358045578
1732873689960888600,4.229888671875,-0.09162978827953339,-0.11056660860776901,0.2877175211906433
1732873689970876700,4.239876708984375,-0.08674286305904388,-0.07757988572120667,0.2816088795661926
1732873689980908300,4.249908203125,-0.08246681094169617,-0.04948008432984352,0.2577851414680481
1732873689990865700,4.25986572265625,-0.08002334833145142,-0.03848451003432274,0.21868975460529327
1732873690000897300,4.269897216796875,-0.07819075137376785,-0.04337143152952194,0.16982053220272064
1732873690010885000,4.279885009765625,-0.07696902006864548,-0.05864306539297104,0.10934487730264664
1732873690020886300,4.28988623046875,-0.07941248267889023,-0.07696902006864548,0.03848451003432274
1732873690030874000,4.2998740234375,-0.07635815441608429,-0.08002334833145142,-0.018325956538319588
1732873690040905700,4.30990576171875,-0.08735372871160507,-0.07391469180583954,-0.05375614017248154
1732873690050863400,4.31986328125,-0.09346238523721695,-0.05803219974040985,-0.04459316283464432
1732873690060895000,4.32989501953125,-0.09712757170200348,-0.03176499158143997,-0.02015855349600315
1732873690070882800,4.3398828125,-0.08918632566928864,-0.0024434609804302454,0.012828170321881771
1732873690080882400,4.34988232421875,-0.0659734457731247,0.03298672288656235,0.05192354694008827
1732873690090871800,4.359871826171875,-0.02321287989616394,0.06108652427792549,0.08918632566928864
1732873690100902100,4.369902099609375,0.033597588539123535,0.0708603709936142,0.13072516024112701
1732873690110860800,4.37986083984375,0.12767083942890167,0.0555887371301651,0.18448130786418915
1732873690120891600,4.3898916015625,0.18020524084568024,0.018325956538319588,0.20525072515010834
1732873690130880300,4.39988037109375,0.21930062770843506,-0.0354301854968071,0.21319197118282318
1732873690140881000,4.409880859375,0.2480112910270691,-0.060475658625364304,0.20097467303276062
1732873690150869200,4.419869140625,0.2742784917354584,-0.0555887371301651,0.17409659922122955
1732873690160900400,4.429900390625,0.2938261926174164,-0.02382374368607998,0.13866640627384186
1732873690170858500,4.4398583984375,0.30054569244384766,0.010995574295520782,0.09407325088977814
1732873690180889600,4.4498896484375,0.28466320037841797,0.02932153269648552,0.024434609338641167
1732873690190878000,4.4598779296875,0.27000242471694946,0.003054326167330146,-0.02321287989616394
1732873690200878600,4.469878662109375,0.2376265823841095,-0.048258353024721146,-0.09162978827953339
1732873690210866700,4.47986669921875,0.20586158335208893,-0.11789698898792267,-0.16859880089759827
1732873690220899000,4.489899169921875,0.17043140530586243,-0.182648703455925,-0.24373523890972137
1732873690230886400,4.499886474609375,0.12889257073402405,-0.24923302233219147,-0.3017674386501312
1732873690240887300,4.50988720703125,0.0806342139840126,-0.33169981837272644,-0.33047810196876526
1732873690250875400,4.51987548828125,0.03298672288656235,-0.4288274049758911,-0.32620203495025635
1732873690260905700,4.52990576171875,0,-0.5827654600143433,-0.27000242471694946
1732873690270864400,4.539864501953125,0.03420845419168472,-0.6041457056999207,-0.2638937830924988
1732873690280894500,4.54989453125,0.08429940044879913,-0.5259549617767334,-0.2816088795661926
1732873690290883800,4.5598837890625,0.10751228034496307,-0.37140607833862305,-0.28955012559890747
1732873690300883700,4.5698837890625,0.07024950534105301,-0.1466076523065567,-0.2938261926174164
1732873690310419200,4.579419189453125,-0.03176499158143997,0.05314527451992035,-0.32681289315223694
1732873690320449300,4.58944921875,-0.2064724564552307,0.13439035415649414,-0.3982841372489929
1732873690330408200,4.599408203125,-0.5222898125648499,0.1270599663257599,-0.3799581825733185
1732873690340439300,4.609439208984375,-0.7092145681381226,0.06658431142568588,-0.29504790902137756
1732873690350427600,4.619427734375,-0.856433093547821,0.030543262138962746,-0.1973094791173935
1732873690360428800,4.6294287109375,-0.9334021210670471,0.03176499158143997,-0.11850785464048386
1732873690370416600,4.639416748046875,-0.9126327037811279,0.06169738993048668,-0.09346238523721695
1732873690380447200,4.649447265625,-0.8289441466331482,0.08491026610136032,-0.14477506279945374
1732873690390405600,4.659405517578125,-0.7360926270484924,0.07513642311096191,-0.2565633952617645
1732873690400437500,4.6694375,-0.6762278079986572,0.04948008432984352,-0.42210787534713745
1732873690410425000,4.679425048828125,-0.7061602473258972,0.03237585723400116,-0.4807509481906891
1732873690420426500,4.689426513671875,-0.7513642311096191,0.03237585723400116,-0.47830748558044434
1732873690430414300,4.699414306640625,-0.8008443117141724,0.06719517707824707,-0.403781920671463
1732873690440446000,4.709446044921875,-0.8417723178863525,0.1459967941045761,-0.28038713335990906
1732873690450403300,4.7194033203125,-0.8619308471679688,0.2382374405860901,-0.1459967941045761
1732873690460435000,4.72943505859375,-0.8576548099517822,0.3286454975605011,-0.018936822190880775
1732873690470423000,4.739423095703125,-0.8338310718536377,0.39584067463874817,0.08552113175392151
1732873690480453400,4.749453369140625,-0.7452555894851685,0.42149701714515686,0.16554448008537292
1732873690490411800,4.759411865234375,-0.646295428276062,0.37751471996307373,0.1918116807937622
1732873690500442400,4.7694423828125,-0.5186246037483215,0.2687807083129883,0.20952677726745605
1732873690510431500,4.779431396484375,-0.37568211555480957,0.16004669666290283,0.23884831368923187
1732873690520432600,4.7894326171875,-0.24373523890972137,0.09529497474431992,0.28099802136421204
1732873690530420500,4.79942041015625,-0.16859880089759827,0.03298672288656235,0.323147714138031
1732873690540451800,4.809451904296875,-0.14416420459747314,-0.013439035043120384,0.3836233615875244
1732873690550409500,4.819409423828125,-0.15882496535778046,-0.018936822190880775,0.4899139404296875
1732873690560441000,4.829441162109375,-0.18997909128665924,0.00855211354792118,0.5393940210342407
1732873690570429200,4.83942919921875,-0.1618792861700058,-0.05619960278272629,0.5210680365562439
1732873690580430000,4.84943017578125,-0.1362229436635971,-0.16798794269561768,0.4599815309047699
1732873690590416100,4.859416015625,-0.10262536257505417,-0.22052235901355743,0.36713001132011414
1732873690600448500,4.869448486328125,-0.04092797264456749,-0.18570303916931152,0.2474004179239273
1732873690610406000,4.879406005859375,0.0403171069920063,-0.10567969083786011,0.13866640627384186
1732873690620436200,4.889436279296875,0.17959438264369965,0.10567969083786011,0.07941248267889023
1732873690630425300,4.89942529296875,0.27550023794174194,0.19120082259178162,0.10384709388017654
1732873690640426500,4.909426513671875,0.34513887763023376,0.24984388053417206,0.13988813757896423
1732873690650414300,4.919414306640625,0.3933972120285034,0.2565633952617645,0.17837265133857727
1732873690660446200,4.9294462890625,0.4306600093841553,0.2278527319431305,0.18631389737129211
1732873690670403600,4.939403564453125,0.4856378734111786,0.09957103431224823,0.1661553531885147
1732873690680435200,4.949435302734375,0.5387831330299377,0.0012217304902151227,0.10934487730264664
1732873690690423800,4.959423828125,0.5583308339118958,-0.04337143152952194,0.033597588539123535
1732873690700425200,4.96942529296875,0.5516113042831421,-0.07819075137376785,-0.04581489413976669
1732873690710413000,4.9794130859375,0.5375614166259766,-0.02932153269648552,-0.06658431142568588
1732873690720444400,4.9894443359375,0.5320636034011841,0.06414084881544113,-0.05619960278272629
1732873690730432500,4.9994326171875,0.5418374538421631,0.17287486791610718,-0.013439035043120384
1732873690740433700,5.00943359375,0.5448917746543884,0.2822197377681732,0.05925392732024193
1732873690750421500,5.01942138671875,0.5381723046302795,0.39217549562454224,0.14416420459747314
1732873690760453000,5.029453125,0.5210680365562439,0.4954117238521576,0.22602014243602753
1732873690770410500,5.039410400390625,0.4966334402561188,0.5839871764183044,0.31031954288482666
1732873690780442000,5.049442138671875,0.48869219422340393,0.5998696684837341,0.34636059403419495
1732873690790430000,5.059429931640625,0.4905247986316681,0.6053674817085266,0.3628539443016052
1732873690800429800,5.069429931640625,0.4801400899887085,0.6017022728919983,0.35613444447517395
1732873690810419000,5.0794189453125,0.4538728892803192,0.6285803318023682,0.33292156457901
1732873690820450600,5.089450439453125,0.4056145250797272,0.7409795522689819,0.2834414839744568
1732873690830408200,5.099408203125,0.3127630054950714,0.8943067193031311,0.19120082259178162
1732873690840439300,5.109439208984375,0.10873401165008545,1.0702359676361084,-0.018936822190880775
1732873690850427600,5.119427734375,-0.02626720629632473,1.1233811378479004,-0.10812314599752426
1732873690860427300,5.12942724609375,-0.09773843735456467,1.0751228332519531,-0.11423180252313614
1732873690870416600,5.139416748046875,-0.09957103431224823,0.8460483551025391,-0.06780604273080826
1732873690880447000,5.149447021484375,-0.0555887371301651,0.5827654600143433,-0.0012217304902151227
1732873690890405600,5.159405517578125,-0.018936822190880775,0.37568211555480957,0.04703662544488907
1732873690900435700,5.169435791015625,0.00855211354792118,0.17898350954055786,0.0507018156349659
1732873690910425000,5.179425048828125,0.04703662544488907,0.010995574295520782,-0.00733038317412138
1732873690920425500,5.189425537109375,0.05864306539297104,-0.23396138846874237,-0.15577064454555511
1732873690930414000,5.1994140625,0.009162978269159794,-0.11911872029304504,-0.23945917189121246
1732873690940444400,5.2094443359375,-0.09896016865968704,0.10323622822761536,-0.26022860407829285
1732873690950403300,5.2194033203125,-0.1771509200334549,0.20402899384498596,-0.23151792585849762
1732873690960433400,5.229433349609375,-0.19364428520202637,0.313373863697052,-0.13561208546161652
1732873690970422800,5.2394228515625,-0.16065755486488342,0.44654250144958496,0.004886921960860491
1732873690980452900,5.249452880859375,-0.10018189996480942,0.5351179838180542,0.1270599663257599
1732873690990411500,5.25941162109375,0.04886921867728233,0.5363397002220154,0.1667662113904953
1732873691000444400,5.2694443359375,0.17837265133857727,0.45631635189056396,0.10751228034496307
1732873691010431200,5.27943115234375,0.3017674386501312,0.3292563557624817,-0.001832595793530345
1732873691020431000,5.28943115234375,0.35613444447517395,0.1514945775270462,-0.11667526513338089
1732873691030420200,5.299420166015625,0.35124751925468445,-0.05619960278272629,-0.18997909128665924
1732873691040450600,5.309450439453125,0.32986724376678467,-0.24190263450145721,-0.22357667982578278
1732873691050409500,5.319409423828125,0.31642818450927734,-0.35735616087913513,-0.2119702398777008
1732873691060439600,5.329439453125,0.32131510972976685,-0.35246923565864563,-0.12950342893600464
1732873691070429000,5.339428955078125,0.33292156457901,-0.2620611786842346,-0.03848451003432274
1732873691080428500,5.349428466796875,0.3585779070854187,-0.13316862285137177,0.07024950534105301
1732873691090446300,5.3594462890625,0.37140607833862305,0.007941247895359993,0.182648703455925
1732873691100449800,5.36944970703125,0.37262779474258423,0.10995574295520782,0.2779437005519867
1732873691110407000,5.379406982421875,0.3738495409488678,0.16432274878025055,0.32009339332580566
1732873691120438500,5.3894384765625,0.3695734739303589,0.17531833052635193,0.30115658044815063
1732873691130426400,5.39942626953125,0.342695415019989,0.1368338167667389,0.24068090319633484
1732873691140427500,5.409427490234375,0.2528982162475586,0.022602014243602753,0.1062905490398407
1732873691150415400,5.419415283203125,0.18387043476104736,-0.054367005825042725,0.02321287989616394
1732873691160445700,5.42944580078125,0.11972958594560623,-0.12034045159816742,-0.01466076634824276
1732873691170404400,5.439404296875,0.08002334833145142,-0.16737708449363708,0.00366519158706069
1732873691180435000,5.44943505859375,0.0708603709936142,-0.19425514340400696,0.07696902006864548
1732873691190423800,5.459423828125,0.06902777403593063,-0.2015855312347412,0.18936823308467865
1732873691200423700,5.469423583984375,0.06291911751031876,-0.20402899384498596,0.2974913716316223
1732873691210413000,5.4794130859375,0.04886921867728233,-0.20830504596233368,0.37140607833862305
1732873691220443400,5.489443359375,0.03481931984424591,-0.20097467303276062,0.3579670190811157
1732873691230432500,5.4994326171875,0.024434609338641167,-0.19303341209888458,0.3066543638706207
1732873691240432000,5.50943212890625,0.01466076634824276,-0.18814650177955627,0.2278527319431305
1732873691250421500,5.51942138671875,-0.003054326167330146,-0.1973094791173935,0.14844025671482086
1732873691260451600,5.52945166015625,-0.022602014243602753,-0.21624629199504852,0.08002334833145142
1732873691270410500,5.539410400390625,-0.042760565876960754,-0.24007004499435425,0.03237585723400116
1732873691280442000,5.549442138671875,-0.0708603709936142,-0.28099802136421204,0.006719517521560192
1732873691290430000,5.559429931640625,-0.07757988572120667,-0.2834414839744568,0.015271631069481373
1732873691300431000,5.56943115234375,-0.07147123664617538,-0.3194825351238251,0.03726277872920036
1732873691310419000,5.5794189453125,-0.06536258012056351,-0.35246923565864563,0.048258353024721146
1732873691320450300,5.5894501953125,-0.08857546001672745,-0.3536909818649292,0.05742133408784866
1732873691330408200,5.599408203125,-0.12278391420841217,-0.31459560990333557,0.06658431142568588
1732873691340439600,5.609439453125,-0.15882496535778046,-0.21563543379306793,0.07024950534105301
1732873691350428000,5.619427978515625,-0.1869247704744339,-0.06658431142568588,0.06291911751031876
1732873691360428800,5.6294287109375,-0.19364428520202637,0.182648703455925,0.04459316283464432
1732873691370416600,5.639416748046875,-0.1820378452539444,0.2834414839744568,0.03848451003432274
1732873691380448300,5.6494482421875,-0.1618792861700058,0.2675589919090271,0.009162978269159794
1732873691390405600,5.659405517578125,-0.1618792861700058,0.18814650177955627,-0.005497787147760391
1732873691400437500,5.6694375,-0.18325957655906677,0.0959058403968811,-0.0012217304902151227
1732873691410425000,5.679425048828125,-0.21807889640331268,0.01160643994808197,0.01771509274840355
1732873691420426500,5.689426513671875,-0.27061331272125244,-0.08674286305904388,0.04948008432984352
1732873691430414300,5.699414306640625,-0.3243694305419922,-0.12034045159816742,0.09529497474431992
1732873691440446000,5.709446044921875,-0.33536502718925476,-0.056810468435287476,0.13500121235847473
1732873691450403300,5.7194033203125,-0.3439171314239502,0.022602014243602753,0.18997909128665924
1732873691460435000,5.72943505859375,-0.3017674386501312,0.09346238523721695,0.27000242471694946
1732873691470423000,5.739423095703125,-0.18509216606616974,0.21807889640331268,0.36163222789764404
1732873691480453000,5.749453125,-0.1820378452539444,0.2932153046131134,0.33169981837272644
1732873691490411800,5.759411865234375,-0.4386012554168701,0.30970868468284607,0.1215621829032898
1732873691500442400,5.7694423828125,-0.2773328125476837,0.22418753802776337,-0.21319197118282318
1732873691510431500,5.779431396484375,-0.08491026610136032,0.01710422709584236,-0.36651915311813354
1732873691520431400,5.789431396484375,0.03298672288656235,-0.14049901068210602,-0.48869219422340393
1732873691530420500,5.79942041015625,0.10934487730264664,-0.23396138846874237,-0.6139195561408997
1732873691540450600,5.809450439453125,0.1918116807937622,-0.2883284091949463,-0.7159340381622314
1732873691550409500,5.819409423828125,0.2791654169559479,-0.33292156457901,-0.7562511563301086
1732873691560439800,5.829439697265625,0.35185837745666504,-0.3903428912162781,-0.7562511563301086
1732873691570429200,5.83942919921875,0.3891211748123169,-0.41111230850219727,-0.7440338730812073
1732873691580430000,5.84943017578125,0.43737950921058655,-0.3842342495918274,-0.6291912198066711
1732873691590416100,5.859416015625,0.4648684561252594,-0.3646865487098694,-0.48869219422340393
1732873691600448500,5.869448486328125,0.48808133602142334,-0.3194825351238251,-0.3481931984424591
1732873691610406100,5.87940625,0.504574716091156,-0.24495697021484375,-0.2064724564552307
1732873691620437800,5.889437744140625,0.45265114307403564,-0.15821409225463867,-0.0708603709936142
1732873691630425300,5.89942529296875,0.37690386176109314,-0.06963863968849182,0.05742133408784866
1732873691640426500,5.909426513671875,0.3378084897994995,-0.01710422709584236,0.1875356286764145
1732873691650414600,5.91941455078125,0.3341432809829712,-0.004886921960860491,0.38240164518356323
1732873691660445700,5.92944580078125,0.3274237811565399,0.02382374368607998,0.46731191873550415
1732873691670403600,5.939403564453125,0.313373863697052,0.07147123664617538,0.5070181488990784
1732873691680435200,5.949435302734375,0.3219259977340698,0.17043140530586243,0.4954117238521576
1732873691690423800,5.959423828125,0.3579670190811157,0.3017674386501312,0.45692721009254456
1732873691700425000,5.969425048828125,0.3799581825733185,0.4440990388393402,0.4184426963329315
1732873691710412800,5.979412841796875,0.3891211748123169,0.5711590051651001,0.40072759985923767
1732873691720444400,5.9894443359375,0.40194934606552124,0.6096435189247131,0.4141666293144226
1732873691730432500,5.9994326171875,0.4196644127368927,0.5522221922874451,0.4331034719944
1732873691740433400,6.009433349609375,0.45631635189056396,0.43188172578811646,0.44837507605552673
1732873691750421500,6.01942138671875,0.47708576917648315,0.2736676335334778,0.45692721009254456
1732873691760453000,6.029453125,0.455705463886261,0.12889257073402405,0.4709770977497101
1732873691770410500,6.039410400390625,0.41599923372268677,0.036041051149368286,0.4758640229701996
1732873691780442000,6.049442138671875,0.4001167416572571,0.0024434609804302454,0.4746423065662384
1732873691790430000,6.059429931640625,0.4086688458919525,-0.02015855349600315,0.4648684561252594
1732873691800431000,6.06943115234375,0.42088615894317627,0.02015855349600315,0.41233405470848083
1732873691810419000,6.0794189453125,0.42760565876960754,0.15821409225463867,0.3341432809829712
1732873691820450600,6.089450439453125,0.42210787534713745,0.2919935882091522,0.2376265823841095
1732873691830408200,6.099408203125,0.37690386176109314,0.34758231043815613,0.14294247329235077
1732873691840439600,6.109439453125,0.3127630054950714,0.3439171314239502,0.04948008432984352
1732873691850427600,6.119427734375,0.2669481039047241,0.29077184200286865,-0.02932153269648552
1732873691860427300,6.12942724609375,0.22968533635139465,0.1771509200334549,-0.10201449692249298
1732873691870416600,6.139416748046875,0.13072516024112701,-0.06352998316287994,-0.1918116807937622
1732873691880447000,6.149447021484375,-0.0012217304902151227,-0.25534167885780334,-0.2028072625398636
1732873691890405400,6.1594052734375,-0.152105450630188,-0.46181413531303406,-0.1313360333442688
1732873691900436000,6.16943603515625,-0.2877175211906433,-0.6505714654922485,0.02382374368607998
1732873691910425000,6.179425048828125,-0.39584067463874817,-0.7916813492774963,0.21074850857257843
1732873691920425000,6.189425048828125,-0.45631635189056396,-0.8338310718536377,0.3543018400669098
1732873691930414300,6.199414306640625,-0.4453207552433014,-0.6976081132888794,0.375071257352829
1732873691940446700,6.20944677734375,-0.32070425152778625,-0.17470745742321014,-0.016493361443281174
1732873691950403300,6.2194033203125,-0.27611109614372253,0.12400564551353455,-0.5241223573684692
1732873691960433700,6.22943359375,-0.2871066629886627,0.18997909128665924,-1.0329731702804565
1732873691970422800,6.2394228515625,-0.32498031854629517,0.004886921960860491,-1.36650550365448
1732873691980452900,6.249452880859375,-0.36651915311813354,-0.27550023794174194,-1.4214833974838257
1732873691990411800,6.259411865234375,-0.4660901725292206,-0.5271766781806946,-1.1856894493103027
1732873692000441900,6.26944189453125,-0.5815436840057373,-0.6487388610839844,-0.7531968355178833
1732873692010431200,6.27943115234375,-0.6524040699005127,-0.5943718552589417,-0.23273965716362
1732873692020431400,6.289431396484375,-0.6591235995292664,-0.34086281061172485,0.4960225820541382
1732873692030420200,6.299420166015625,-0.6352998614311218,-0.20463985204696655,0.7898487448692322
1732873692040450600,6.309450439453125,-0.608421802520752,-0.11423180252313614,0.8881980776786804
1732873692050409500,6.319409423828125,-0.5687155723571777,-0.06352998316287994,0.8637634515762329
1732873692060439600,6.329439453125,-0.47280970215797424,-0.02382374368607998,0.7953465580940247
1732873692070429000,6.339428955078125,-0.3842342495918274,-0.060475658625364304,0.7153232097625732
1732873692080428500,6.349428466796875,-0.31459560990333557,-0.13072516024112701,0.5955936312675476
1732873692090417700,6.359417724609375,-0.25473082065582275,-0.16493362188339233,0.3805690407752991
1732873692100448800,6.36944873046875,-0.23396138846874237,-0.10812314599752426,0.2565633952617645
1732873692110407000,6.379406982421875,-0.2223549485206604,-0.02626720629632473,0.15943582355976105
1732873692120438500,6.3894384765625,-0.21868975460529327,0.025656340643763542,0.07635815441608429
1732873692130426600,6.399426513671875,-0.2217440903186798,0.021380282938480377,0.0012217304902151227
1732873692140427300,6.40942724609375,-0.23029619455337524,-0.02687807008624077,-0.08552113175392151
1732873692150415600,6.41941552734375,-0.23579397797584534,-0.09529497474431992,-0.18081611394882202
1732873692160445700,6.42944580078125,-0.2015855312347412,-0.17837265133857727,-0.29138273000717163
1732873692170404400,6.439404296875,-0.17104226350784302,-0.21013765037059784,-0.3084869384765625
1732873692180434700,6.4494345703125,-0.15027284622192383,-0.22357667982578278,-0.2828305959701538
1732873692190423800,6.459423828125,-0.13316862285137177,-0.2070833146572113,-0.24495697021484375
1732873692200424000,6.469423828125,-0.1215621829032898,-0.1716531366109848,-0.21074850857257843
1732873692210413000,6.4794130859375,-0.11972958594560623,-0.12950342893600464,-0.18325957655906677
1732873692220444400,6.4894443359375,-0.11728613078594208,-0.0861319974064827,-0.14477506279945374
1732873692230432500,6.4994326171875,-0.1111774742603302,-0.05497787147760391,-0.07941248267889023
1732873692240433400,6.509433349609375,-0.11178833991289139,0.00366519158706069,0.08979719132184982
1732873692250421500,6.51942138671875,-0.10690141469240189,0.04581489413976669,0.2217440903186798
1732873692260453000,6.529453125,-0.09712757170200348,0.09773843735456467,0.33658674359321594
1732873692270410500,6.539410400390625,-0.08491026610136032,0.13866640627384186,0.4056145250797272
1732873692280441900,6.54944189453125,-0.06536258012056351,0.16798794269561768,0.4190535545349121
1732873692290430000,6.559429931640625,-0.04948008432984352,0.17470745742321014,0.38117989897727966
1732873692300429800,6.569429931640625,-0.031154127791523933,0.15760323405265808,0.3017674386501312
1732873692310419200,6.579419189453125,0.02076941914856434,0.10445795953273773,0.13927727937698364
1732873692320449300,6.58944921875,0.06963863968849182,0.025045474991202354,0.025656340643763542
1732873692330408200,6.599408203125,0.09896016865968704,-0.1062905490398407,-0.060475658625364304
1732873692340439600,6.609439453125,0.12339477986097336,-0.24617868661880493,-0.09712757170200348
1732873692350427600,6.619427734375,0.13744467496871948,-0.3891211748123169,-0.05742133408784866
1732873692360428500,6.629428466796875,0.11178833991289139,-0.5265658497810364,0.042760565876960754
1732873692370416600,6.639416748046875,0.054367005825042725,-0.607200026512146,0.14355333149433136
1732873692380448300,6.6494482421875,-0.025656340643763542,-0.5644394755363464,0.21807889640331268
1732873692390406000,6.659406005859375,-0.04581489413976669,-0.4398229718208313,0.14844025671482086
1732873692400436500,6.6694365234375,-0.042760565876960754,-0.3225368559360504,-0.036651913076639175
1732873692410425000,6.679425048828125,-0.025045474991202354,-0.2272418737411499,-0.323147714138031
1732873692420425500,6.689425537109375,0.02687807008624077,-0.13927727937698364,-0.6499606370925903
1732873692430414300,6.699414306640625,0.09162978827953339,-0.1215621829032898,-0.9450085163116455
1732873692440445700,6.70944580078125,0.09712757170200348,-0.21441370248794556,-1.1704177856445312
1732873692450403300,6.7194033203125,0.054367005825042725,-0.3378084897994995,-1.3151928186416626
1732873692460434700,6.7294345703125,-0.07024950534105301,-0.40256020426750183,-1.36650550365448
1732873692470423000,6.739423095703125,-0.14233160018920898,-0.3225368559360504,-1.3213015794754028
1732873692480454400,6.749454345703125,-0.16065755486488342,-0.13561208546161652,-1.236391305923462
1732873692490411800,6.759411865234375,-0.13866640627384186,0.0806342139840126,-1.1160508394241333
1732873692500443400,6.769443359375,-0.10934487730264664,0.24862214922904968,-0.9645562171936035
1732873692510431500,6.779431396484375,-0.08368854224681854,0.3286454975605011,-0.7941248416900635
1732873692520432400,6.789432373046875,-0.06291911751031876,0.32131510972976685,-0.6102544069290161
1732873692530420500,6.79942041015625,-0.0507018156349659,0.1569923609495163,-0.29626965522766113
1732873692540450800,6.809450927734375,-0.03298672288656235,-0.015882495790719986,-0.0659734457731247
1732873692550409500,6.819409423828125,0.0024434609804302454,-0.14233160018920898,0.14782938361167908
1732873692560441000,6.829441162109375,0.07880161702632904,-0.16554448008537292,0.31581732630729675
1732873692570429200,6.83942919921875,0.16310101747512817,-0.07819075137376785,0.4398229718208313
1732873692580430000,6.84943017578125,0.2370157092809677,0.1007927656173706,0.5247332453727722
1732873692590416100,6.859416015625,0.29993483424186707,0.32620203495025635,0.5839871764183044
1732873692600448500,6.869448486328125,0.3194825351238251,0.5644394755363464,0.7122688889503479
1732873692610406000,6.879406005859375,0.30604347586631775,0.6200281977653503,0.7874053120613098
1732873692620437500,6.8894375,0.29016098380088806,0.5833762884140015,0.8417723178863525
1732873692630425300,6.89942529296875,0.2620611786842346,0.4495968222618103,0.8521569967269897
1732873692640426200,6.90942626953125,0.23090706765651703,0.28466320037841797,0.7996225953102112
1732873692650414600,6.91941455078125,0.23640485107898712,0.1313360333442688,0.7092145681381226
1732873692660444700,6.929444580078125,0.2883284091949463,0.04642575979232788,0.6304129362106323
1732873692670403600,6.939403564453125,0.37140607833862305,0.04642575979232788,0.5955936312675476
1732873692680435000,6.94943505859375,0.47708576917648315,0.08857546001672745,0.6322455406188965
1732873692690423800,6.959423828125,0.5253441333770752,0.152105450630188,0.6792821288108826
1732873692700425000,6.969425048828125,0.5601634383201599,0.2272418737411499,0.7336491346359253
1732873692710413000,6.9794130859375,0.6047565937042236,0.34086281061172485,0.7580837607383728
1732873692720444400,6.9894443359375,0.6517932415008545,0.46364670991897583,0.7507534027099609
1732873692730432500,6.9994326171875,0.6695083379745483,0.4966334402561188,0.7037167549133301
1732873692740433000,7.009432861328125,0.6609562039375305,0.4294382631778717,0.5907067060470581
1732873692750421500,7.01942138671875,0.6310238242149353,0.19303341209888458,0.32070425152778625
1732873692760452900,7.029452880859375,0.6188064813613892,0,0.08002334833145142
1732873692770410500,7.039410400390625,0.6340781450271606,-0.1313360333442688,-0.18020524084568024
1732873692780442400,7.0494423828125,0.6432411074638367,-0.2168571650981903,-0.3952298164367676
1732873692790430000,7.059429931640625,0.6218608021736145,-0.23579397797584534,-0.5436700582504272
1732873692800430000,7.06943017578125,0.5516113042831421,-0.12217304855585098,-0.6151412725448608
1732873692810419000,7.0794189453125,0.42699480056762695,0.07513642311096191,-0.5907067060470581
1732873692820450300,7.0894501953125,0.27488934993743896,0.4141666293144226,-0.32498031854629517
1732873692830408200,7.099408203125,0.22968533635139465,0.5326744914054871,-0.01466076634824276
1732873692840439600,7.109439453125,0.17776179313659668,0.5705481171607971,0.28588494658470154
1732873692850427600,7.119427734375,0.12461651116609573,0.5375614166259766,0.513737678527832
1732873692860428800,7.1294287109375,0.10567969083786011,0.4105014503002167,0.6340781450271606
1732873692870416600,7.139416748046875,0.1258382350206375,0.15332718193531036,0.6420193910598755
1732873692880448300,7.1494482421875,0.17531833052635193,-0.1722639948129654,0.5717698931694031
1732873692890405600,7.159405517578125,0.2638937830924988,-0.44776421785354614,0.46547931432724
1732873692900437000,7.16943701171875,0.3549126982688904,-0.7385360598564148,0.32559117674827576
1732873692910425000,7.179425048828125,0.3781255781650543,-0.8026769161224365,0.23457226157188416
1732873692920426200,7.18942626953125,0.3836233615875244,-0.7745771408081055,0.13377949595451355
1732873692930414000,7.1994140625,0.3384193480014801,-0.6359107494354248,0.05375614017248154
1732873692940445700,7.20944580078125,0.23457226157188416,-0.4642575979232788,-0.03848451003432274
1732873692950403300,7.2194033203125,0.08185594528913498,-0.3188716471195221,-0.15515977144241333
1732873692960434700,7.2294345703125,-0.08918632566928864,-0.23273965716362,-0.2877175211906433
1732873692970422800,7.2394228515625,-0.23396138846874237,-0.25106561183929443,-0.40744712948799133
1732873692980453000,7.249453125,-0.25961771607398987,-0.42577308416366577,-0.3732386529445648
1732873692990411800,7.259411865234375,-0.2620611786842346,-0.608421802520752,-0.2993239760398865
1732873693000442000,7.269442138671875,-0.2834414839744568,-0.7507534027099609,-0.21563543379306793
1732873693010431200,7.27943115234375,-0.3683517575263977,-0.9071348905563354,-0.16737708449363708
1732873693020432000,7.289431884765625,-0.4337143301963806,-1.006095051765442,-0.13988813757896423
1732873693030420200,7.299420166015625,-0.4239404797554016,-0.9706648588180542,-0.1258382350206375
1732873693040451300,7.309451416015625,-0.394008070230484,-0.7519751191139221,-0.14538592100143433
1732873693050409500,7.319409423828125,-0.40256020426750183,-0.5693264007568359,-0.11911872029304504
1732873693060440300,7.3294404296875,-0.4239404797554016,-0.3585779070854187,-0.048258353024721146
1732873693070428700,7.3394287109375,-0.4440990388393402,-0.1160643994808197,0.01160643994808197
1732873693080428800,7.3494287109375,-0.4648684561252594,0.06963863968849182,0.033597588539123535
1732873693090448100,7.3594482421875,-0.5180137157440186,0.10995574295520782,0.001832595793530345
1732873693100448500,7.369448486328125,-0.5852088928222656,0.10262536257505417,-0.09651670604944229
1732873693110407000,7.379406982421875,-0.6426302194595337,0.059864792972803116,-0.14782938361167908
1732873693120437500,7.3894375,-0.6285803318023682,-0.07024950534105301,-0.08429940044879913
1732873693130426400,7.39942626953125,-0.5149593949317932,-0.1319468915462494,0.018325956538319588
1732873693140426200,7.40942626953125,-0.4239404797554016,-0.22357667982578278,0.17287486791610718
1732873693150415600,7.41941552734375,-0.39095374941825867,-0.2919935882091522,0.33658674359321594
1732873693160447000,7.429447021484375,-0.3897320330142975,-0.26083946228027344,0.49724429845809937
1732873693170404600,7.439404541015625,-0.40256020426750183,-0.1722639948129654,0.6334672570228577
1732873693180435200,7.449435302734375,-0.4141666293144226,-0.08002334833145142,0.7165449261665344
1732873693190423800,7.459423828125,-0.44287729263305664,-0.003054326167330146,0.7122688889503479
1732873693200424400,7.469424560546875,-0.4612032473087311,0.024434609338641167,0.6389650702476501
1732873693210413000,7.4794130859375,-0.4764748811721802,0.03848451003432274,0.5400048494338989
1732873693220443100,7.489443115234375,-0.4905247986316681,0.02076941914856434,0.41599923372268677
1732873693230432500,7.4994326171875,-0.48685958981513977,-0.013439035043120384,0.26939156651496887
1732873693240432400,7.509432373046875,-0.4544837474822998,-0.04703662544488907,0.1417207419872284
1732873693250421500,7.51942138671875,-0.4080579876899719,-0.1111774742603302,0.05742133408784866
1732873693260451800,7.529451904296875,-0.33658674359321594,-0.20830504596233368,-0.04153883829712868
1732873693270410500,7.539410400390625,-0.32009339332580566,-0.26145032048225403,-0.04337143152952194
1732873693280442000,7.549442138671875,-0.32986724376678467,-0.28038713335990906,-0.01771509274840355
1732873693290430000,7.559429931640625,-0.3579670190811157,-0.26633724570274353,0.02871066704392433
1732873693300431400,7.569431396484375,-0.37629300355911255,-0.21319197118282318,0.07757988572120667
1732873693310419000,7.5794189453125,-0.3878994286060333,-0.15393804013729095,0.13072516024112701
1732873693320450300,7.5894501953125,-0.394008070230484,-0.10506882518529892,0.17959438264369965
1732873693330408200,7.599408203125,-0.38606682419776917,-0.06352998316287994,0.20341812074184418
1732873693340439300,7.609439208984375,-0.3683517575263977,-0.06902777403593063,0.2028072625398636
1732873693350428000,7.619427978515625,-0.36651915311813354,-0.12400564551353455,0.20097467303276062
1732873693360428300,7.62942822265625,-0.36590829491615295,-0.21135938167572021,0.192422553896904
1732873693370416600,7.639416748046875,-0.36590829491615295,-0.30115658044815063,0.17959438264369965
1732873693380447500,7.649447509765625,-0.37079519033432007,-0.4043927788734436,0.17592918872833252
1732873693390405600,7.659405517578125,-0.38117989897727966,-0.484416127204895,0.1765400618314743
1732873693400437200,7.669437255859375,-0.37690386176109314,-0.4996877610683441,0.1765400618314743
1732873693410425000,7.679425048828125,-0.3646865487098694,-0.4245513379573822,0.16310101747512817
1732873693420426200,7.68942626953125,-0.35246923565864563,-0.35185837745666504,0.09957103431224823
1732873693430414300,7.699414306640625,-0.35063666105270386,-0.2730567753314972,-0.01710422709584236
1732873693440446000,7.709446044921875,-0.35735616087913513,-0.20036379992961884,-0.15577064454555511
1732873693450403300,7.7194033203125,-0.35613444447517395,-0.14049901068210602,-0.2926044464111328
1732873693460435000,7.72943505859375,-0.35735616087913513,-0.09773843735456467,-0.38606682419776917
1732873693470423000,7.739423095703125,-0.34758231043815613,-0.07819075137376785,-0.4129449129104614
1732873693480453400,7.749453369140625,-0.34086281061172485,-0.11178833991289139,-0.36224308609962463
1732873693490411800,7.759411865234375,-0.34697145223617554,-0.14538592100143433,-0.3604104816913605
1732873693500442600,7.769442626953125,-0.34086281061172485,-0.17043140530586243,-0.42088615894317627
1732873693510431500,7.779431396484375,-0.3219259977340698,-0.13316862285137177,-0.5503895878791809
1732873693520431900,7.789431884765625,-0.30054569244384766,-0.036041051149368286,-0.7354817390441895
1732873693530420500,7.79942041015625,-0.2822197377681732,0.03787364438176155,-0.8936958312988281
1732873693540451800,7.809451904296875,-0.2724458873271942,0.056810468435287476,-0.9816604256629944
1732873693550409500,7.819409423828125,-0.23273965716362,0.07880161702632904,-0.9676105380058289
1732873693560441000,7.829441162109375,-0.1514945775270462,-0.01160643994808197,-0.6206390857696533
1732873693570429200,7.83942919921875,-0.10384709388017654,-0.0757472887635231,-0.2528982162475586
1732873693580430000,7.84943017578125,-0.04886921867728233,-0.0708603709936142,0.11728613078594208
1732873693590416100,7.859416015625,0.00733038317412138,-0.0555887371301651,0.413555771112442
1732873693600448000,7.869447998046875,0.05619960278272629,-0.04092797264456749,0.6010913848876953
1732873693610406100,7.87940625,0.11850785464048386,-0.016493361443281174,0.6939429044723511
1732873693620436700,7.889436767578125,0.18875735998153687,-0.013439035043120384,0.7379252314567566
1732873693630425300,7.89942529296875,0.2431243658065796,-0.05192354694008827,0.7195992469787598
1732873693640426000,7.909426025390625,0.27611109614372253,-0.05925392732024193,0.6414085030555725
1732873693650414600,7.91941455078125,0.3066543638706207,-0.07330382615327835,0.5363397002220154
1732873693660445400,7.929445556640625,0.3170390725135803,-0.09651670604944229,0.4178318381309509
1732873693670403600,7.939403564453125,0.3023782968521118,-0.1111774742603302,0.31459560990333557
1732873693680434700,7.9494345703125,0.27488934993743896,-0.11667526513338089,0.2620611786842346
1732873693690423800,7.959423828125,0.24984388053417206,-0.12217304855585098,0.251676470041275
1732873693700424200,7.969424072265625,0.25595253705978394,-0.11239920556545258,0.22296582162380219
1732873693710413000,7.9794130859375,0.2877175211906433,-0.1362229436635971,0.20891591906547546
1732873693720444200,7.989444091796875,0.33108896017074585,-0.18325957655906677,0.16859880089759827
1732873693730432500,7.9994326171875,0.3830125033855438,-0.21807889640331268,0.06963863968849182
1732873693740433000,8.009432861328126,0.4355469346046448,-0.28588494658470154,-0.033597588539123535
1732873693750421500,8.01942138671875,0.4758640229701996,-0.3689626157283783,-0.09712757170200348
1732873693760453000,8.029453125,0.48869219422340393,-0.4105014503002167,-0.1014036312699318
1732873693770410500,8.039410400390626,0.47342056035995483,-0.4050036668777466,-0.039095375686883926
1732873693780441000,8.049441162109375,0.4056145250797272,-0.375071257352829,0.10690141469240189
1732873693790430000,8.059429931640626,0.36529740691185,-0.33292156457901,0.20952677726745605
1732873693800430000,8.06943017578125,0.3384193480014801,-0.2767219543457031,0.28588494658470154
1732873693810419000,8.0794189453125,0.3225368559360504,-0.23396138846874237,0.32498031854629517
1732873693820450000,8.089449951171876,0.32131510972976685,-0.2064724564552307,0.32009339332580566
1732873693830408200,8.099408203125,0.32986724376678467,-0.1667662113904953,0.304210901260376
1732873693840439800,8.109439697265625,0.35063666105270386,-0.12889257073402405,0.2919935882091522
1732873693850427600,8.119427734375,0.4178318381309509,-0.08246681094169617,0.2583959996700287
1732873693860428800,8.1294287109375,0.4648684561252594,-0.05742133408784866,0.24556782841682434
1732873693870417000,8.1394169921875,0.49724429845809937,-0.036651913076639175,0.23579397797584534
1732873693880448300,8.1494482421875,0.50335294008255,-0.04398229718208313,0.20952677726745605
1732873693890405600,8.159405517578126,0.4899139404296875,-0.08674286305904388,0.16859880089759827
1732873693900436500,8.1694365234375,0.4740314185619354,-0.1618792861700058,0.11362093687057495
1732873693910425000,8.179425048828126,0.46792277693748474,-0.2638937830924988,0.04703662544488907
1732873693920425500,8.189425537109376,0.45631635189056396,-0.41599923372268677,-0.06475171446800232
1732873693930414300,8.199414306640625,0.4245513379573822,-0.48380526900291443,-0.16310101747512817
1732873693940445700,8.20944580078125,0.38179078698158264,-0.5106833577156067,-0.26939156651496887
1732873693950403300,8.2194033203125,0.32559117674827576,-0.49235737323760986,-0.3585779070854187
1732873693960434700,8.2294345703125,0.2577851414680481,-0.45326200127601624,-0.4190535545349121
1732873693970422800,8.2394228515625,0.18448130786418915,-0.4080579876899719,-0.4495968222618103
1732873693980453400,8.249453369140625,0.10201449692249298,-0.3604104816913605,-0.46364670991897583
1732873693990411800,8.259411865234375,0.02382374368607998,-0.2883284091949463,-0.4648684561252594
1732873694000442600,8.269442626953126,-0.05253441259264946,-0.13316862285137177,-0.4856378734111786
1732873694010431200,8.27943115234375,-0.08307767659425735,-0.0403171069920063,-0.5338962078094482
1732873694020432000,8.289431884765625,-0.1062905490398407,0.03726277872920036,-0.6017022728919983
1732873694030420200,8.299420166015626,-0.14416420459747314,0.0757472887635231,-0.6609562039375305
1732873694040451800,8.309451904296875,-0.2070833146572113,0.05803219974040985,-0.6969972252845764
1732873694050409500,8.319409423828125,-0.27611109614372253,0.009162978269159794,-0.6762278079986572
1732873694060440800,8.32944091796875,-0.32681289315223694,-0.04886921867728233,-0.5717698931694031
1732873694070429000,8.339428955078125,-0.3646865487098694,-0.060475658625364304,-0.2626720666885376
1732873694080430000,8.34943017578125,-0.3805690407752991,-0.00733038317412138,0.0012217304902151227
1732873694090417700,8.359417724609376,-0.39156460762023926,0.060475658625364304,0.27061331272125244
1732873694100448800,8.36944873046875,-0.40072759985923767,0.11056660860776901,0.4862487316131592
1732873694110407000,8.379406982421875,-0.39217549562454224,0.1508837193250656,0.645684540271759
1732873694120438000,8.38943798828125,-0.3597996234893799,0.1966986060142517,0.7305948138237
1732873694130426400,8.39942626953125,-0.31581732630729675,0.22113321721553802,0.7440338730812073
1732873694140427000,8.409427001953125,-0.2724458873271942,0.18387043476104736,0.646295428276062
1732873694150415600,8.41941552734375,-0.2724458873271942,0.09834930300712585,0.5259549617767334
1732873694160446500,8.429446533203125,-0.29016098380088806,-0.027488935738801956,0.40256020426750183
1732873694170404400,8.439404296875,-0.31642818450927734,-0.13439035415649414,0.31154128909111023
1732873694180436200,8.449436279296876,-0.34086281061172485,-0.16859880089759827,0.27488934993743896
1732873694190423800,8.459423828125,-0.3585779070854187,-0.1466076523065567,0.28649580478668213
1732873694200425200,8.46942529296875,-0.37201693654060364,-0.09224065393209457,0.32559117674827576
1732873694210413000,8.4794130859375,-0.3701843321323395,-0.036651913076639175,0.36651915311813354
1732873694220444200,8.489444091796875,-0.3628539443016052,0.015882495790719986,0.3836233615875244
1732873694230432500,8.4994326171875,-0.3597996234893799,0.005497787147760391,0.36224308609962463
1732873694240433000,8.509432861328126,-0.3585779070854187,-0.03176499158143997,0.313373863697052
1732873694250421500,8.51942138671875,-0.36590829491615295,-0.08307767659425735,0.24556782841682434
1732873694260452400,8.529452392578126,-0.38117989897727966,-0.12522737681865692,0.18081611394882202
1732873694270410500,8.539410400390626,-0.3891211748123169,-0.15882496535778046,0.11972958594560623
1732873694280441300,8.54944140625,-0.39584067463874817,-0.1875356286764145,0.07941248267889023
1732873694290430000,8.559429931640626,-0.3995058834552765,-0.2168571650981903,0.07452555745840073
1732873694300431400,8.569431396484376,-0.40072759985923767,-0.2021963894367218,0.09896016865968704
1732873694310419000,8.5794189453125,-0.41111230850219727,-0.17348572611808777,0.12095131725072861
1732873694320450000,8.589449951171876,-0.4251621961593628,-0.14782938361167908,0.13744467496871948
1732873694330408200,8.599408203125,-0.4349360466003418,-0.12217304855585098,0.1466076523065567
1732873694340439800,8.609439697265625,-0.44104471802711487,-0.11239920556545258,0.14294247329235077
1732873694350428000,8.619427978515626,-0.4453207552433014,-0.1417207419872284,0.12461651116609573
1732873694360428800,8.6294287109375,-0.4386012554168701,-0.25106561183929443,0.06780604273080826
1732873694370416600,8.639416748046875,-0.43737950921058655,-0.3445279896259308,0.030543262138962746
1732873694380447700,8.64944775390625,-0.42149701714515686,-0.4294382631778717,-0.022602014243602753
1732873694390406000,8.659406005859376,-0.38728857040405273,-0.45814892649650574,-0.11239920556545258
1732873694400436700,8.669436767578125,-0.34758231043815613,-0.43188172578811646,-0.24068090319633484
1732873694410425000,8.679425048828126,-0.2981022298336029,-0.3604104816913605,-0.41722095012664795
1732873694420425700,8.68942578125,-0.2541199326515198,-0.25595253705978394,-0.6389650702476501
1732873694430414300,8.699414306640625,-0.22296582162380219,-0.1612684279680252,-0.8631525635719299
1732873694440445700,8.70944580078125,-0.21074850857257843,-0.11056660860776901,-1.0580185651779175
1732873694450403300,8.7194033203125,-0.22418753802776337,-0.11239920556545258,-1.0610729455947876
1732873694460434700,8.7294345703125,-0.22052235901355743,-0.14294247329235077,-0.9676105380058289
1732873694470423000,8.739423095703126,-0.2076941877603531,-0.19547687470912933,-0.8301658630371094
1732873694480453600,8.74945361328125,-0.19975294172763824,-0.2541199326515198,-0.6976081132888794
1732873694490411800,8.759411865234375,-0.1869247704744339,-0.2638937830924988,-0.6151412725448608
1732873694500442600,8.769442626953126,-0.16554448008537292,-0.22418753802776337,-0.6114761233329773
1732873694510431500,8.779431396484375,-0.12828169763088226,-0.16554448008537292,-0.7183775305747986
1732873694520431900,8.789431884765625,-0.09529497474431992,-0.12767083942890167,-0.8387179970741272
1732873694530420500,8.79942041015625,-0.06230825558304787,-0.08246681094169617,-0.970054030418396
1732873694540451800,8.809451904296875,-0.04398229718208313,-0.036651913076639175,-1.0739010572433472
1732873694550409500,8.819409423828125,-0.025656340643763542,-0.025045474991202354,-1.1233811378479004
1732873694560441000,8.829441162109376,-0.00366519158706069,-0.05742133408784866,-1.0903944969177246
1732873694570429200,8.83942919921875,0.042760565876960754,-0.12828169763088226,-0.9663888216018677
1732873694580430000,8.84943017578125,0.09529497474431992,-0.2376265823841095,-0.6151412725448608
1732873694590416100,8.859416015625,0.11545353382825851,-0.24923302233219147,-0.3188716471195221
1732873694600448500,8.869448486328125,0.13439035415649414,-0.20402899384498596,-0.05192354694008827
1732873694610406000,8.879406005859375,0.14966198801994324,-0.1313360333442688,0.15271630883216858
1732873694620436700,8.889436767578125,0.16798794269561768,-0.06414084881544113,0.2816088795661926
1732873694630425300,8.89942529296875,0.18814650177955627,0.005497787147760391,0.34086281061172485
1732873694640425700,8.90942578125,0.2064724564552307,0.0659734457731247,0.3597996234893799
1732873694650414600,8.91941455078125,0.2168571650981903,0.07696902006864548,0.3579670190811157
1732873694660446000,8.929446044921875,0.23457226157188416,0.03420845419168472,0.3701843321323395
1732873694670403600,8.939403564453125,0.251676470041275,-0.03787364438176155,0.40256020426750183
1732873694680435200,8.949435302734376,0.27000242471694946,-0.09957103431224823,0.4434881806373596
1732873694690423800,8.959423828125,0.29077184200286865,-0.14049901068210602,0.484416127204895
1732873694700425000,8.969425048828125,0.313373863697052,-0.16920967400074005,0.5125159621238708
1732873694710412800,8.979412841796876,0.33597588539123535,-0.17898350954055786,0.513737678527832
1732873694720444400,8.9894443359375,0.36529740691185,-0.1508837193250656,0.484416127204895
1732873694730432500,8.9994326171875,0.4043927788734436,-0.04581489413976669,0.41599923372268677
1732873694740433400,9.009433349609376,0.423329621553421,0.0354301854968071,0.3494149148464203
1732873694750421500,9.01942138671875,0.4447098970413208,0.09896016865968704,0.28649580478668213
1732873694760453000,9.029453125,0.46792277693748474,0.13500121235847473,0.25045475363731384
1732873694770410500,9.039410400390626,0.4789183437824249,0.1313360333442688,0.24007004499435425
1732873694780442000,9.049442138671875,0.4758640229701996,0.09407325088977814,0.2590068578720093
1732873694790430000,9.059429931640626,0.4660901725292206,0.033597588539123535,0.3017674386501312
1732873694800431400,9.069431396484376,0.4660901725292206,-0.036041051149368286,0.413555771112442
1732873694810419000,9.0794189453125,0.4807509481906891,-0.025045474991202354,0.49296826124191284
1732873694820450600,9.089450439453126,0.5027421116828918,0.03848451003432274,0.5534439086914062
1732873694830408200,9.099408203125,0.5363397002220154,0.14416420459747314,0.5913175344467163
1732873694840439600,9.109439453125,0.5723807215690613,0.251676470041275,0.598647952079773
1732873694850427600,9.119427734375,0.6010913848876953,0.33047810196876526,0.5870414972305298
1732873694860428800,9.1294287109375,0.6236934065818787,0.3885102868080139,0.5681046843528748
1732873694870416600,9.139416748046875,0.6401867866516113,0.45326200127601624,0.5613851547241211
1732873694880448300,9.1494482421875,0.6377432942390442,0.4642575979232788,0.5558874011039734
1732873694890405600,9.159405517578126,0.6285803318023682,0.4691445231437683,0.5455026626586914
1732873694900437200,9.169437255859375,0.6359107494354248,0.46364670991897583,0.5406157374382019
1732873694910425000,9.179425048828126,0.6420193910598755,0.43676865100860596,0.5455026626586914
1732873694920426200,9.18942626953125,0.6475171446800232,0.3597996234893799,0.5711590051651001
1732873694930414300,9.199414306640625,0.6511823534965515,0.24556782841682434,0.6279694437980652
1732873694940444700,9.209444580078125,0.6432411074638367,0.13072516024112701,0.6798930168151855
1732873694950403300,9.2194033203125,0.617584764957428,0.003054326167330146,0.7177666425704956
1732873694960433400,9.229433349609375,0.5931501388549805,-0.021380282938480377,0.6994407176971436
1732873694970422800,9.2394228515625,0.5644394755363464,0.00366519158706069,0.6328563690185547
1732873694980455200,9.249455078125,0.5259549617767334,0.07330382615327835,0.5143485069274902
1732873694990411500,9.25941162109375,0.45875978469848633,0.15271630883216858,0.35674530267715454
1732873695000442400,9.2694423828125,0.38606682419776917,0.2028072625398636,0.16920967400074005
1732873695010431200,9.27943115234375,0.3127630054950714,0.19486601650714874,-0.0403171069920063
1732873695020431400,9.289431396484375,0.18570303916931152,0.09834930300712585,-0.3500257730484009
1732873695030420500,9.29942041015625,0.08002334833145142,0.015271631069481373,-0.5418374538421631
1732873695040450300,9.3094501953125,-0.0507018156349659,-0.04153883829712868,-0.6890559792518616
1732873695050409500,9.319409423828125,-0.17837265133857727,-0.04581489413976669,-0.7843509912490845
1732873695060440600,9.329440673828126,-0.2883284091949463,0,-0.8356636762619019
1732873695070428700,9.3394287109375,-0.3732386529445648,0.07269296050071716,-0.8619308471679688
1732873695080429300,9.34942919921875,-0.4349360466003418,0.12278391420841217,-0.8649851679801941
1732873695090446300,9.3594462890625,-0.4899139404296875,0.10445795953273773,-0.79840087890625
1732873695100448500,9.369448486328125,-0.513126790523529,0.05864306539297104,-0.7122688889503479
1732873695110407000,9.379406982421875,-0.5290092825889587,0.028099801391363144,-0.5760459303855896
1732873695120437800,9.389437744140626,-0.5577199459075928,0.06475171446800232,-0.39217549562454224
1732873695130426400,9.39942626953125,-0.6047565937042236,0.1215621829032898,-0.2015855312347412
1732873695140427000,9.409427001953125,-0.6487388610839844,0.16371189057826996,-0.04642575979232788
1732873695150415600,9.41941552734375,-0.6621779203414917,0.182648703455925,0.054367005825042725
1732873695160445700,9.42944580078125,-0.637132465839386,0.18814650177955627,0.09346238523721695
1732873695170404600,9.439404541015625,-0.5564982295036316,0.19608774781227112,0.11911872029304504
1732873695180435000,9.44943505859375,-0.5112941861152649,0.21380282938480377,0.20463985204696655
1732873695190423800,9.459423828125,-0.4605923891067505,0.22907446324825287,0.3280346393585205
1732873695200424000,9.469423828125,-0.394008070230484,0.21135938167572021,0.4495968222618103
1732873695210413000,9.4794130859375,-0.33292156457901,0.1667662113904953,0.5491678714752197
1732873695220443400,9.489443359375,-0.2889392673969269,0.10690141469240189,0.6102544069290161
1732873695230432500,9.4994326171875,-0.27122417092323303,0.051312681287527084,0.6096435189247131
1732873695240433000,9.509432861328126,-0.26572638750076294,-0.01038470957428217,0.5491678714752197
1732873695250421500,9.51942138671875,-0.2889392673969269,-0.029932396486401558,0.4612032473087311
1732873695260452600,9.52945263671875,-0.32498031854629517,-0.039706241339445114,0.3597996234893799
1732873695270410500,9.539410400390626,-0.3646865487098694,-0.05497787147760391,0.2620611786842346
1732873695280441300,9.54944140625,-0.40683624148368835,-0.08246681094169617,0.1722639948129654
1732873695290430000,9.559429931640626,-0.43676865100860596,-0.11789698898792267,0.10506882518529892
1732873695300431400,9.569431396484376,-0.45631635189056396,-0.14477506279945374,0.06536258012056351
1732873695310419000,9.5794189453125,-0.45753806829452515,-0.16493362188339233,0.0354301854968071
1732873695320450800,9.589450927734376,-0.44715335965156555,-0.1618792861700058,0.00855211354792118
1732873695330408200,9.599408203125,-0.44593164324760437,-0.14477506279945374,-0.039706241339445114
1732873695340439800,9.609439697265625,-0.4599815309047699,-0.13988813757896423,-0.10812314599752426
1732873695350427600,9.619427734375,-0.48685958981513977,-0.1563815027475357,-0.16920967400074005
1732873695360427800,9.629427734375,-0.5155702829360962,-0.1722639948129654,-0.20525072515010834
1732873695370416600,9.639416748046875,-0.5418374538421631,-0.1771509200334549,-0.21319197118282318
1732873695380447500,9.649447509765626,-0.5699372887611389,-0.1820378452539444,-0.19975294172763824
1732873695390405600,9.659405517578126,-0.6047565937042236,-0.23029619455337524,-0.16920967400074005
1732873695400436700,9.669436767578125,-0.6249151229858398,-0.2968805134296417,-0.15271630883216858
1732873695410425000,9.679425048828126,-0.646906316280365,-0.3927863538265228,-0.13561208546161652
1732873695420425700,9.68942578125,-0.6511823534965515,-0.4917465150356293,-0.11728613078594208
1732873695430414300,9.699414306640625,-0.6426302194595337,-0.5803219676017761,-0.1111774742603302
1732873695440446000,9.709446044921876,-0.626747727394104,-0.6731734871864319,-0.12889257073402405
1732873695450403300,9.7194033203125,-0.6053674817085266,-0.7287622094154358,-0.1661553531885147
1732873695460434700,9.7294345703125,-0.5571091175079346,-0.6866125464439392,-0.26145032048225403
1732873695470423000,9.739423095703126,-0.53328537940979,-0.5742133259773254,-0.3396410644054413
1732873695480454400,9.749454345703125,-0.5021312236785889,-0.3982841372489929,-0.423329621553421
1732873695490411800,9.759411865234375,-0.4740314185619354,-0.2278527319431305,-0.5051855444908142
1732873695500443400,9.769443359375,-0.44715335965156555,-0.14782938361167908,-0.5632177591323853
1732873695510431200,9.77943115234375,-0.4092797040939331,-0.14966198801994324,-0.5736024379730225
1732873695520432400,9.789432373046875,-0.35735616087913513,-0.21991148591041565,-0.5461135506629944
1732873695530420500,9.79942041015625,-0.24984388053417206,-0.36163222789764404,-0.4764748811721802
1732873695540450800,9.809450927734375,-0.13805554807186127,-0.40194934606552124,-0.48808133602142334
1732873695550409500,9.819409423828125,-0.019547687843441963,-0.40683624148368835,-0.5992587804794312
1732873695560441000,9.829441162109376,0.06536258012056351,-0.394008070230484,-0.7874053120613098
1732873695570429200,9.83942919921875,0.12889257073402405,-0.34574973583221436,-0.9950994849205017
1732873695580430000,9.84943017578125,0.1814269721508026,-0.2871066629886627,-1.1533136367797852
1732873695590416100,9.859416015625,0.21930062770843506,-0.2528982162475586,-1.187522053718567
1732873695600448500,9.869448486328125,0.20891591906547546,-0.26145032048225403,-1.0476338863372803
1732873695610406000,9.879406005859375,0.19058994948863983,-0.26022860407829285,-0.5265658497810364
1732873695620437500,9.8894375,0.2064724564552307,-0.21135938167572021,-0.1466076523065567
1732873695630425300,9.89942529296875,0.21991148591041565,-0.12950342893600464,0.14477506279945374
1732873695640426000,9.909426025390625,0.21807889640331268,-0.03481931984424591,0.32131510972976685
1732873695650414600,9.91941455078125,0.2168571650981903,0.05742133408784866,0.3952298164367676
1732873695660445200,9.929445068359374,0.22357667982578278,0.12278391420841217,0.39217549562454224
1732873695670403600,9.939403564453125,0.24923302233219147,0.13255776464939117,0.37201693654060364
1732873695680435000,9.94943505859375,0.294437050819397,0.08002334833145142,0.41172316670417786
1732873695690423800,9.959423828125,0.3121521472930908,0.033597588539123535,0.494189977645874
1732873695700425000,9.969425048828125,0.31459560990333557,-0.012217304669320583,0.6017022728919983
1732873695710412800,9.979412841796876,0.313373863697052,-0.030543262138962746,0.720820963382721
1732873695720444400,9.9894443359375,0.30604347586631775,-0.006719517521560192,0.8436049222946167
1732873695730432500,9.9994326171875,0.294437050819397,0.04153883829712868,0.940732479095459
1732873695740433400,10.009433349609376,0.2779437005519867,0.10384709388017654,0.9938777685165405
1732873695750421500,10.01942138671875,0.2822197377681732,0.18020524084568024,0.979827880859375
1732873695760452900,10.029452880859376,0.31093040108680725,0.21868975460529327,0.9230173826217651
1732873695770410500,10.039410400390626,0.34513887763023376,0.2431243658065796,0.8515461683273315
1732873695780442000,10.049442138671875,0.38117989897727966,0.2480112910270691,0.7684684991836548
1732873695790430000,10.059429931640626,0.4031710624694824,0.22907446324825287,0.6774495840072632
1732873695800431400,10.069431396484376,0.40744712948799133,0.192422553896904,0.5870414972305298
1732873695810419000,10.0794189453125,0.4050036668777466,0.15760323405265808,0.504574716091156
1732873695820450600,10.089450439453126,0.4098905920982361,0.15027284622192383,0.4398229718208313
1732873695830408200,10.099408203125,0.4184426963329315,0.20097467303276062,0.403781920671463
1732873695840439800,10.109439697265625,0.4251621961593628,0.24862214922904968,0.39584067463874817
1732873695850427600,10.119427734375,0.4355469346046448,0.2938261926174164,0.3854559659957886
1732873695860428800,10.1294287109375,0.44593164324760437,0.313373863697052,0.36713001132011414
1732873695870416600,10.139416748046875,0.44654250144958496,0.28588494658470154,0.34513887763023376
1732873695880448300,10.1494482421875,0.45204028487205505,0.23090706765651703,0.33475416898727417
1732873695890405600,10.159405517578126,0.45631635189056396,0.16371189057826996,0.3433062732219696
1732873695900436000,10.16943603515625,0.4349360466003418,0.0757472887635231,0.33475416898727417
1732873695910425000,10.179425048828126,0.4147774875164032,0.05803219974040985,0.30970868468284607
1732873695920425000,10.189425048828125,0.3927863538265228,0.06414084881544113,0.2877175211906433
1732873695930414300,10.199414306640625,0.3634648323059082,0.09407325088977814,0.29138273000717163
1732873695940444700,10.209444580078125,0.3225368559360504,0.1270599663257599,0.31642818450927734
1732873695950403300,10.2194033203125,0.27122417092323303,0.15271630883216858,0.36102136969566345
1732873695960433400,10.229433349609375,0.21868975460529327,0.1618792861700058,0.4386012554168701
1732873695970422800,10.2394228515625,0.13866640627384186,0.1973094791173935,0.5406157374382019
1732873695980452900,10.249452880859375,0.09651670604944229,0.22907446324825287,0.5760459303855896
1732873695990411800,10.259411865234375,0.06169738993048668,0.2590068578720093,0.5729916095733643
1732873696000442000,10.269442138671875,0.036651913076639175,0.26572638750076294,0.4996877610683441
1732873696010431200,10.27943115234375,0.009162978269159794,0.2021963894367218,0.35246923565864563
1732873696020431000,10.28943115234375,-0.021380282938480377,0.09285151958465576,0.1514945775270462
1732873696030420200,10.299420166015626,-0.06719517707824707,-0.00427605677396059,-0.10751228034496307
1732873696040450600,10.309450439453125,-0.13988813757896423,-0.02871066704392433,-0.3995058834552765
1732873696050409500,10.319409423828125,-0.3536909818649292,0.013439035043120384,-0.7837401032447815
1732873696060440300,10.3294404296875,-0.5320636034011841,0.05803219974040985,-0.970054030418396
1732873696070428700,10.3394287109375,-0.6676757335662842,0.1111774742603302,-1.0629055500030518
1732873696080428500,10.349428466796875,-0.7336491346359253,0.1362229436635971,-1.047023057937622
1732873696090417700,10.359417724609376,-0.7312057018280029,0.05803219974040985,-0.9492846131324768
1732873696100448300,10.3694482421875,-0.6475171446800232,-0.12095131725072861,-0.8008443117141724
1732873696110407000,10.379406982421875,-0.5461135506629944,-0.2974913716316223,-0.607810914516449
1732873696120438000,10.38943798828125,-0.43676865100860596,-0.3744603991508484,-0.3634648323059082
1732873696130426400,10.39942626953125,-0.413555771112442,-0.32681289315223694,-0.26939156651496887
1732873696140427000,10.409427001953125,-0.41172316670417786,-0.2474004179239273,-0.2376265823841095
1732873696150415600,10.41941552734375,-0.4141666293144226,-0.1618792861700058,-0.26511552929878235
1732873696160445700,10.42944580078125,-0.42088615894317627,-0.06902777403593063,-0.34208452701568604
1732873696170404400,10.439404296875,-0.44776421785354614,-0.022602014243602753,-0.45204028487205505
1732873696180435000,10.44943505859375,-0.44165557622909546,-0.045204028487205505,-0.5320636034011841
1732873696190423800,10.459423828125,-0.3830125033855438,-0.06902777403593063,-0.49235737323760986
1732873696200424000,10.469423828125,-0.3274237811565399,-0.1270599663257599,-0.3194825351238251
1732873696210413000,10.4794130859375,-0.27061331272125244,-0.22357667982578278,-0.06658431142568588
1732873696220443600,10.489443603515625,-0.23335053026676178,-0.30482175946235657,0.2217440903186798
1732873696230432500,10.4994326171875,-0.21135938167572021,-0.33719760179519653,0.4954117238521576
1732873696240433200,10.50943310546875,-0.1875356286764145,-0.3176499307155609,0.7067710757255554
1732873696250421500,10.51942138671875,-0.14233160018920898,-0.22418753802776337,0.8411614298820496
1732873696260452400,10.529452392578126,-0.11301007121801376,-0.08246681094169617,0.8979719281196594
1732873696270410500,10.539410400390626,-0.11972958594560623,0.05619960278272629,0.8888089060783386
1732873696280440800,10.54944091796875,-0.16065755486488342,0.05925392732024193,0.7971791625022888
1732873696290430200,10.55943017578125,-0.21380282938480377,-0.03298672288656235,0.6542366743087769
1732873696300430600,10.5694306640625,-0.26633724570274353,-0.17837265133857727,0.4990769028663635
1732873696310419000,10.5794189453125,-0.3176499307155609,-0.32070425152778625,0.36713001132011414
1732873696320450000,10.589449951171876,-0.34758231043815613,-0.4190535545349121,0.2742784917354584
1732873696330408200,10.599408203125,-0.35552358627319336,-0.4954117238521576,0.20952677726745605
1732873696340439600,10.609439453125,-0.34025195240974426,-0.5491678714752197,0.1722639948129654
1732873696350427600,10.619427734375,-0.32986724376678467,-0.5161811113357544,0.15515977144241333
1732873696360428500,10.629428466796876,-0.34636059403419495,-0.46731191873550415,0.1618792861700058
1732873696370416600,10.639416748046875,-0.375071257352829,-0.43127086758613586,0.20402899384498596
1732873696380448500,10.649448486328126,-0.3982841372489929,-0.384845107793808,0.26511552929878235
1732873696390405600,10.659405517578126,-0.40256020426750183,-0.30970868468284607,0.33719760179519653
1732873696400437500,10.6694375,-0.41111230850219727,-0.2565633952617645,0.384845107793808
1732873696410425300,10.67942529296875,-0.45204028487205505,-0.24068090319633484,0.35552358627319336
1732873696420425500,10.689425537109376,-0.4715879559516907,-0.22602014243602753,0.24495697021484375
1732873696430414300,10.699414306640625,-0.49235737323760986,-0.21624629199504852,0.09285151958465576
1732873696440445000,10.70944482421875,-0.5167919993400574,-0.21807889640331268,-0.06841690838336945
1732873696450403300,10.7194033203125,-0.5436700582504272,-0.23029619455337524,-0.22357667982578278
1732873696460433700,10.72943359375,-0.5656611919403076,-0.28038713335990906,-0.34574973583221436
1732873696470423000,10.739423095703126,-0.5601634383201599,-0.3543018400669098,-0.3878994286060333
1732873696480454000,10.749453857421875,-0.5167919993400574,-0.41233405470848083,-0.32009339332580566
1732873696490411800,10.759411865234375,-0.3878994286060333,-0.45753806829452515,-0.17592918872833252
1732873696500442600,10.769442626953126,-0.28038713335990906,-0.45265114307403564,-0.11972958594560623
1732873696510431500,10.779431396484375,-0.18875735998153687,-0.46364670991897583,-0.10812314599752426
1732873696520432000,10.78943212890625,-0.12889257073402405,-0.4948008358478546,-0.15332718193531036
1732873696530420500,10.79942041015625,-0.10873401165008545,-0.5467243790626526,-0.23884831368923187
1732873696540450800,10.809450927734375,-0.11239920556545258,-0.5803219676017761,-0.3323107063770294
1732873696550409700,10.81940966796875,-0.12095131725072861,-0.5436700582504272,-0.394008070230484
1732873696560440600,10.829440673828126,-0.16798794269561768,-0.39584067463874817,-0.48869219422340393
1732873696570429200,10.83942919921875,-0.1973094791173935,-0.2583959996700287,-0.6139195561408997
1732873696580429600,10.8494296875,-0.21502456068992615,-0.09040805697441101,-0.8136724829673767
1732873696590416100,10.859416015625,-0.22846360504627228,0.05314527451992035,-1.0543533563613892
1732873696600447700,10.86944775390625,-0.23640485107898712,0.11545353382825851,-1.2608258724212646
1732873696610406100,10.87940625,-0.2223549485206604,0.10995574295520782,-1.359175205230713
1732873696620437500,10.8894375,-0.18997909128665924,0.00733038317412138,-1.3170254230499268
1732873696630425300,10.89942529296875,-0.13500121235847473,-0.18509216606616974,-0.9871582388877869
1732873696640426500,10.909426513671875,-0.09224065393209457,-0.2174680233001709,-0.6633996367454529
1732873696650414600,10.91941455078125,-0.05925392732024193,-0.1661553531885147,-0.32009339332580566
1732873696660445400,10.929445556640625,-0.031154127791523933,-0.04886921867728233,0.03176499158143997
1732873696670403600,10.939403564453125,-0.02626720629632473,0.09224065393209457,0.33047810196876526
1732873696680434700,10.9494345703125,-0.0354301854968071,0.2626720666885376,0.5180137157440186
1732873696690423800,10.959423828125,-0.022602014243602753,0.3683517575263977,0.627358615398407
1732873696700424200,10.969424072265625,0.030543262138962746,0.3836233615875244,0.7018841505050659
1732873696710412800,10.979412841796876,0.14416420459747314,0.2987131178379059,0.7629706859588623
1732873696720444000,10.98944384765625,0.2028072625398636,0.20036379992961884,0.7629706859588623
1732873696730432500,10.9994326171875,0.26572638750076294,0.11301007121801376,0.7446447610855103
1732873696740433000,11.009432861328126,0.32681289315223694,0.07635815441608429,0.7324274182319641
1732873696750421500,11.01942138671875,0.3744603991508484,0.09773843735456467,0.7263187766075134
1732873696760452400,11.029452392578126,0.3952298164367676,0.14905111491680145,0.7312057018280029
1732873696770410500,11.039410400390626,0.3836233615875244,0.21930062770843506,0.7428121566772461
1732873696780441300,11.04944140625,0.3579670190811157,0.3170390725135803,0.7067710757255554
1732873696790430200,11.05943017578125,0.35185837745666504,0.3335324227809906,0.6493497490882874
1732873696800430600,11.0694306640625,0.3549126982688904,0.3445279896259308,0.5601634383201599
1732873696810419200,11.079419189453125,0.3536909818649292,0.3384193480014801,0.4709770977497101
1732873696820450000,11.089449951171876,0.35185837745666504,0.33719760179519653,0.37079519033432007
1732873696830408200,11.099408203125,0.3543018400669098,0.35246923565864563,0.2632829248905182
1732873696840439300,11.109439208984375,0.3585779070854187,0.36590829491615295,0.17837265133857727
1732873696850428000,11.119427978515626,0.35552358627319336,0.3500257730484009,0.09896016865968704
1732873696860428000,11.129427978515626,0.3579670190811157,0.33169981837272644,0.10690141469240189
1732873696870416600,11.139416748046875,0.36713001132011414,0.30482175946235657,0.1667662113904953
1732873696880448300,11.1494482421875,0.394618958234787,0.2773328125476837,0.27061331272125244
1732873696890405600,11.159405517578126,0.4141666293144226,0.252287358045578,0.41172316670417786
1732873696900436200,11.169436279296875,0.41599923372268677,0.2742784917354584,0.5204572081565857
1732873696910425000,11.179425048828126,0.4050036668777466,0.33047810196876526,0.5503895878791809
1732873696920425000,11.189425048828125,0.35185837745666504,0.37140607833862305,0.53328537940979
1732873696930414000,11.1994140625,0.24007004499435425,0.3585779070854187,0.4349360466003418
1732873696940444700,11.209444580078125,0.16004669666290283,0.34513887763023376,0.3500257730484009
1732873696950403300,11.2194033203125,0.08185594528913498,0.3237585723400116,0.2638937830924988
1732873696960433700,11.22943359375,0.018325956538319588,0.3023782968521118,0.1722639948129654
1732873696970422800,11.2394228515625,-0.016493361443281174,0.32070425152778625,0.07880161702632904
1732873696980453000,11.249453125,-0.03176499158143997,0.3384193480014801,-0.02015855349600315
1732873696990411800,11.259411865234375,-0.03726277872920036,0.3029891550540924,-0.12095131725072861
1732873697000442000,11.269442138671875,-0.027488935738801956,0.17287486791610718,-0.23640485107898712
1732873697010431200,11.27943115234375,-0.031154127791523933,0.04764748737215996,-0.2840523421764374
1732873697020431400,11.289431396484375,-0.056810468435287476,-0.06291911751031876,-0.2987131178379059
1732873697030420200,11.299420166015626,-0.11423180252313614,-0.11911872029304504,-0.2565633952617645
1732873697040450300,11.3094501953125,-0.16554448008537292,-0.09651670604944229,-0.16493362188339233
1732873697050409500,11.319409423828125,-0.18631389737129211,-0.00855211354792118,-0.031154127791523933
1732873697060439800,11.329439697265625,-0.18387043476104736,0.1258382350206375,0.11301007121801376
1732873697070429000,11.339428955078125,-0.16920967400074005,0.25961771607398987,0.23518311977386475
1732873697080428500,11.349428466796875,-0.17837265133857727,0.21563543379306793,0.252287358045578
1732873697090446000,11.359446044921874,-0.18387043476104736,0.13805554807186127,0.1966986060142517
1732873697100449300,11.36944921875,-0.17592918872833252,0.06108652427792549,0.10995574295520782
1732873697110407000,11.379406982421875,-0.15027284622192383,-0.00427605677396059,0.05497787147760391
1732873697120438000,11.38943798828125,-0.08796459436416626,0.006719517521560192,-0.014049900695681572
1732873697130426400,11.39942626953125,-0.001832595793530345,0.05803219974040985,-0.09285151958465576
1732873697140427300,11.40942724609375,0.08674286305904388,0.10934487730264664,-0.1514945775270462
1732873697150415600,11.41941552734375,0.21013765037059784,0.19853121042251587,-0.14294247329235077
1732873697160447200,11.429447265625,0.24923302233219147,0.19486601650714874,-0.05253441259264946
1732873697170404400,11.439404296875,0.28099802136421204,0.12217304855585098,0.05742133408784866
1732873697180436200,11.449436279296876,0.3066543638706207,-0.04337143152952194,0.17104226350784302
1732873697190423800,11.459423828125,0.29138273000717163,-0.26145032048225403,0.2669481039047241
1732873697200424700,11.4694248046875,0.2376265823841095,-0.45814892649650574,0.30054569244384766
1732873697210413000,11.4794130859375,0.1667662113904953,-0.5845980644226074,0.2718350291252136
1732873697220444000,11.48944384765625,0.07696902006864548,-0.5907067060470581,0.08674286305904388
1732873697230432500,11.4994326171875,0.0403171069920063,-0.513126790523529,-0.11301007121801376
1732873697240433200,11.50943310546875,0.024434609338641167,-0.4508185386657715,-0.33292156457901
1732873697250421500,11.51942138671875,0.003054326167330146,-0.4050036668777466,-0.5699372887611389
1732873697260451600,11.52945166015625,-0.005497787147760391,-0.36163222789764404,-0.8063421249389648
1732873697270410500,11.539410400390626,-0.013439035043120384,-0.33108896017074585,-0.9999864101409912
1732873697280440800,11.54944091796875,-0.05192354694008827,-0.3274237811565399,-1.112385630607605
1732873697290430200,11.55943017578125,-0.15882496535778046,-0.3549126982688904,-1.1459832191467285
1732873697300429800,11.569429931640625,-0.23273965716362,-0.4129449129104614,-1.0629055500030518
1732873697310419000,11.5794189453125,-0.2926044464111328,-0.4856378734111786,-0.8912523984909058
1732873697320449300,11.58944921875,-0.3194825351238251,-0.5766568183898926,-0.6737843751907349
1732873697330408200,11.599408203125,-0.2938261926174164,-0.6243042945861816,-0.4398229718208313
1732873697340439000,11.60943896484375,-0.2223549485206604,-0.5876523852348328,-0.21074850857257843
1732873697350427600,11.619427734375,-0.18936823308467865,-0.47708576917648315,-0.06352998316287994
1732873697360428300,11.62942822265625,-0.20036379992961884,-0.22907446324825287,0.02321287989616394
1732873697370416600,11.639416748046875,-0.1875356286764145,0.18814650177955627,0.11728613078594208
1732873697380447500,11.649447509765626,-0.18448130786418915,0.3597996234893799,0.16982053220272064
1732873697390406000,11.659406005859376,-0.2119702398777008,0.40194934606552124,0.1918116807937622
1732873697400436000,11.66943603515625,-0.2840523421764374,0.34147366881370544,0.17898350954055786
1732873697410425000,11.679425048828126,-0.36224308609962463,0.2223549485206604,0.13439035415649414
1732873697420425500,11.689425537109376,-0.42088615894317627,0.05009094998240471,0.06658431142568588
1732873697430414300,11.699414306640625,-0.4288274049758911,-0.15454891324043274,0.004886921960860491
1732873697440444700,11.709444580078125,-0.36529740691185,-0.26939156651496887,-0.04948008432984352
1732873697450403300,11.7194033203125,-0.28527405858039856,-0.2742784917354584,-0.006108652334660292
1732873697460434400,11.729434326171875,-0.2125810980796814,-0.17592918872833252,0.07024950534105301
1732873697470423000,11.739423095703126,-0.15760323405265808,0.030543262138962746,0.13561208546161652
1732873697480454000,11.749453857421875,-0.13439035415649414,0.2015855312347412,0.14049901068210602
1732873697490411800,11.759411865234375,-0.16371189057826996,0.2577851414680481,0.08429940044879913
1732873697500442600,11.769442626953126,-0.20830504596233368,0.24923302233219147,0.027488935738801956
1732873697510431500,11.779431396484375,-0.2528982162475586,0.20586158335208893,-0.06780604273080826
1732873697520432000,11.78943212890625,-0.2773328125476837,0.16493362188339233,-0.17043140530586243
1732873697530420500,11.79942041015625,-0.31093040108680725,0.09773843735456467,-0.28466320037841797
1732873697540451600,11.80945166015625,-0.33719760179519653,0.015882495790719986,-0.38240164518356323
1732873697550409500,11.819409423828125,-0.35735616087913513,-0.056810468435287476,-0.4398229718208313
1732873697560441000,11.829441162109376,-0.3781255781650543,-0.09896016865968704,-0.45204028487205505
1732873697570429200,11.83942919921875,-0.40133845806121826,-0.09712757170200348,-0.4129449129104614
1732873697580430000,11.84943017578125,-0.4453207552433014,-0.06291911751031876,-0.3292563557624817
1732873697590416100,11.859416015625,-0.4709770977497101,0.005497787147760391,-0.1618792861700058
1732873697600448800,11.86944873046875,-0.4593706727027893,0.012217304669320583,-0.029932396486401558
1732873697610406000,11.879406005859375,-0.45142942667007446,0.0012217304902151227,0.09162978827953339
1732873697620437500,11.8894375,-0.5326744914054871,-0.04642575979232788,0.20525072515010834
1732873697630425300,11.89942529296875,-0.5571091175079346,-0.06352998316287994,0.2541199326515198
1732873697640426000,11.909426025390625,-0.5406157374382019,-0.045204028487205505,0.2376265823841095
1732873697650414600,11.91941455078125,-0.5308418869972229,-0.03420845419168472,0.17776179313659668
1732873697660445000,11.92944482421875,-0.5051855444908142,-0.036651913076639175,0.03481931984424591
1732873697670403600,11.939403564453125,-0.48808133602142334,-0.048258353024721146,-0.05619960278272629
1732873697680434200,11.94943408203125,-0.45875978469848633,-0.06108652427792549,-0.12767083942890167
1732873697690423800,11.959423828125,-0.4288274049758911,-0.09040805697441101,-0.1765400618314743
1732873697700424400,11.969424560546875,-0.41172316670417786,-0.1264491081237793,-0.20952677726745605
1732873697710412800,11.979412841796876,-0.3781255781650543,-0.14782938361167908,-0.23090706765651703
1732873697720444700,11.989444580078125,-0.34086281061172485,-0.17409659922122955,-0.22968533635139465
1732873697730432500,11.9994326171875,-0.30543261766433716,-0.2223549485206604,-0.18020524084568024
1732873697740433700,12.00943359375,-0.28649580478668213,-0.25595253705978394,-0.11484266817569733
1732873697750421500,12.01942138671875,-0.2816088795661926,-0.26511552929878235,-0.024434609338641167
1732873697760453000,12.029453125,-0.28099802136421204,-0.26083946228027344,0.05803219974040985
1732873697770410800,12.03941064453125,-0.28527405858039856,-0.23640485107898712,0.09712757170200348
1732873697780441300,12.04944140625,-0.27488934993743896,-0.1814269721508026,0.08429940044879913
1732873697790430000,12.059429931640626,-0.252287358045578,-0.12339477986097336,0.025045474991202354
1732873697800431400,12.069431396484376,-0.2376265823841095,-0.09834930300712585,-0.0507018156349659
1732873697810419000,12.0794189453125,-0.22418753802776337,-0.1459967941045761,-0.13011430203914642
1732873697820450800,12.089450927734376,-0.2278527319431305,-0.20891591906547546,-0.12522737681865692
1732873697830408200,12.099408203125,-0.23640485107898712,-0.24984388053417206,-0.05803219974040985
1732873697840439600,12.109439453125,-0.23640485107898712,-0.2571742534637451,0.07208210229873657
1732873697850427600,12.119427734375,-0.2321287989616394,-0.23090706765651703,0.23396138846874237
1732873697860428000,12.129427978515626,-0.22296582162380219,-0.17959438264369965,0.37201693654060364
1732873697870416600,12.139416748046875,-0.20830504596233368,-0.14294247329235077,0.4495968222618103
1732873697880447500,12.149447509765626,-0.19608774781227112,-0.09407325088977814,0.4508185386657715
1732873697890405600,12.159405517578126,-0.1814269721508026,-0.05742133408784866,0.3891211748123169
1732873697900436500,12.1694365234375,-0.17043140530586243,-0.0403171069920063,0.2919935882091522
1732873697910425000,12.179425048828126,-0.16004669666290283,-0.05742133408784866,0.1722639948129654
1732873697920425700,12.18942578125,-0.14416420459747314,-0.09834930300712585,0.06230825558304787
1732873697930414300,12.199414306640625,-0.12828169763088226,-0.1368338167667389,-0.006719517521560192
1732873697940445700,12.20944580078125,-0.11056660860776901,-0.14538592100143433,-0.025045474991202354
1732873697950403300,12.2194033203125,-0.08918632566928864,-0.13927727937698364,0.036651913076639175
1732873697960434700,12.2294345703125,-0.08124507963657379,-0.1258382350206375,0.1062905490398407
1732873697970423000,12.239423095703126,-0.07024950534105301,-0.11789698898792267,0.1667662113904953
1732873697980454400,12.249454345703125,-0.054367005825042725,-0.10690141469240189,0.20891591906547546
1732873697990411500,12.25941162109375,-0.04459316283464432,-0.1007927656173706,0.24617868661880493
1732873698000443100,12.269443115234376,-0.039706241339445114,-0.10384709388017654,0.2730567753314972
1732873698010431200,12.27943115234375,-0.04398229718208313,-0.11484266817569733,0.29626965522766113
1732873698020432100,12.28943212890625,-0.045204028487205505,-0.1270599663257599,0.3023782968521118
1732873698030420500,12.29942041015625,-0.08307767659425735,-0.18387043476104736,0.20097467303276062
1732873698040451000,12.309451171875,-0.1007927656173706,-0.2883284091949463,0.08124507963657379
1732873698050409500,12.319409423828125,-0.1111774742603302,-0.3543018400669098,-0.06230825558304787
1732873698060440800,12.32944091796875,-0.11056660860776901,-0.3683517575263977,-0.1514945775270462
1732873698070429000,12.339428955078125,-0.12400564551353455,-0.3078760802745819,-0.13561208546161652
1732873698080430000,12.34943017578125,-0.13805554807186127,-0.19425514340400696,-0.04214970022439957
1732873698090417700,12.359417724609376,-0.11850785464048386,-0.06963863968849182,0.059864792972803116
1732873698100448800,12.36944873046875,-0.08307767659425735,-0.009773843921720982,0.1368338167667389
1732873698110407000,12.379406982421875,-0.07513642311096191,-0.012217304669320583,0.13255776464939117
1732873698120438000,12.38943798828125,-0.0555887371301651,-0.001832595793530345,0.11667526513338089
1732873698130426400,12.39942626953125,-0.0354301854968071,0.009162978269159794,0.10812314599752426
1732873698140426800,12.4094267578125,-0.021991148591041565,0.01771509274840355,0.09407325088977814
1732873698150415600,12.41941552734375,-0.010995574295520782,0.05803219974040985,0.08185594528913498
1732873698160446200,12.4294462890625,0.015271631069481373,0.10751228034496307,0.07819075137376785
1732873698170404400,12.439404296875,0.05497787147760391,0.17531833052635193,0.07635815441608429
1732873698180436000,12.44943603515625,0.05314527451992035,0.1814269721508026,0.08552113175392151
1732873698190423800,12.459423828125,0.03298672288656235,0.14844025671482086,0.09773843735456467
