time,seconds_elapsed,z,y,x
1732873685920538600,0.18953857421875,-0.0507018156349659,-0.0403171069920063,0.00427605677396059
1732873685930862000,0.199862060546875,-0.04642575979232788,-0.039706241339445114,0.00427605677396059
1732873685940828700,0.20982861328125,-0.03848451003432274,-0.039095375686883926,0.010995574295520782
1732873685950786000,0.2197861328125,-0.0354301854968071,-0.042760565876960754,0.021380282938480377
1732873685960817400,0.2298173828125,-0.031154127791523933,-0.04337143152952194,0.027488935738801956
1732873685970805500,0.239805419921875,-0.028099801391363144,-0.039706241339445114,0.025045474991202354
1732873685980836900,0.2498369140625,-0.028099801391363144,-0.039095375686883926,0.018936822190880775
1732873685990794800,0.259794677734375,-0.03298672288656235,-0.048258353024721146,0.018325956538319588
1732873686000826000,0.269826171875,-0.036041051149368286,-0.054367005825042725,0.014049900695681572
1732873686010814000,0.27981396484375,-0.027488935738801956,-0.05742133408784866,0.00366519158706069
1732873686020815000,0.289815185546875,-0.01710422709584236,-0.056810468435287476,0.0012217304902151227
1732873686030803000,0.299802978515625,-0.00733038317412138,-0.045204028487205505,0.00366519158706069
1732873686040834600,0.30983447265625,-0.0006108652451075613,-0.031154127791523933,0.007941247895359993
1732873686050792200,0.319792236328125,-0.0024434609804302454,-0.02687807008624077,0.015882495790719986
1732873686060823800,0.32982373046875,-0.001832595793530345,-0.028099801391363144,0.02321287989616394
1732873686070811600,0.339811767578125,0.0012217304902151227,-0.03420845419168472,0.02626720629632473
1732873686080812500,0.3498125,0,-0.042760565876960754,0.02687807008624077
1732873686090801000,0.35980078125,-0.005497787147760391,-0.04581489413976669,0.02076941914856434
1732873686100832300,0.369832275390625,-0.009773843921720982,-0.048258353024721146,0.016493361443281174
1732873686110790000,0.379789794921875,-0.012828170321881771,-0.045204028487205505,0.010995574295520782
1732873686120821200,0.3898212890625,-0.009162978269159794,-0.0403171069920063,0.006108652334660292
1732873686130809300,0.399809326171875,-0.0024434609804302454,-0.03176499158143997,0.001832595793530345
1732873686140810200,0.409810302734375,0.0012217304902151227,-0.025656340643763542,-0.00366519158706069
1732873686150798300,0.41979833984375,-0.0012217304902151227,-0.018325956538319588,-0.00855211354792118
1732873686160829700,0.42982958984375,-0.006108652334660292,-0.024434609338641167,-0.006108652334660292
1732873686170787300,0.439787353515625,-0.010995574295520782,-0.036651913076639175,0.0024434609804302454
1732873686180819000,0.44981884765625,-0.015271631069481373,-0.042760565876960754,0.00733038317412138
1732873686190806800,0.459806884765625,-0.01466076634824276,-0.04214970022439957,0.005497787147760391
1732873686200808000,0.469807861328125,-0.012828170321881771,-0.02871066704392433,-0.0012217304902151227
1732873686210796000,0.479796142578125,-0.012828170321881771,-0.010995574295520782,-0.006108652334660292
1732873686220827600,0.48982763671875,-0.01466076634824276,-0.0024434609804302454,-0.004886921960860491
1732873686230815500,0.4998154296875,-0.02382374368607998,-0.019547687843441963,0.015271631069481373
1732873686240816600,0.509816650390625,-0.030543262138962746,-0.03481931984424591,0.029932396486401558
1732873686250804500,0.519804443359375,-0.03237585723400116,-0.04214970022439957,0.03481931984424591
1732873686260835800,0.5298359375,-0.030543262138962746,-0.04581489413976669,0.03298672288656235
1732873686270793500,0.53979345703125,-0.02687807008624077,-0.051312681287527084,0.025045474991202354
1732873686280824800,0.549824951171875,-0.019547687843441963,-0.059864792972803116,0.015271631069481373
1732873686290813000,0.55981298828125,-0.006108652334660292,-0.06902777403593063,0.005497787147760391
1732873686300814000,0.56981396484375,0.010995574295520782,-0.07024950534105301,-0.003054326167330146
1732873686310802000,0.579802001953125,0.012217304669320583,-0.060475658625364304,-0.00855211354792118
1732873686320833500,0.58983349609375,0.007941247895359993,-0.039095375686883926,-0.015882495790719986
1732873686330791000,0.599791015625,0.00733038317412138,-0.010995574295520782,-0.025045474991202354
1732873686340822500,0.609822509765625,0.007941247895359993,0.01160643994808197,-0.029932396486401558
1732873686350810400,0.619810302734375,0.00855211354792118,0.018325956538319588,-0.03298672288656235
1732873686360811800,0.629811767578125,0.010995574295520782,0.010995574295520782,-0.0354301854968071
1732873686370799600,0.639799560546875,0.015882495790719986,-0.01038470957428217,-0.03237585723400116
1732873686380831000,0.6498310546875,0.01466076634824276,-0.024434609338641167,-0.024434609338641167
1732873686390788600,0.65978857421875,0.00733038317412138,-0.03237585723400116,-0.013439035043120384
1732873686400820000,0.669820068359375,0.001832595793530345,-0.03237585723400116,-0.004886921960860491
1732873686410808000,0.67980810546875,-0.0012217304902151227,-0.02687807008624077,0
1732873686420809200,0.689809326171875,-0.0012217304902151227,-0.019547687843441963,0.001832595793530345
1732873686430797000,0.699797119140625,-0.006108652334660292,-0.012828170321881771,0
1732873686440829000,0.709828857421875,-0.015271631069481373,-0.010995574295520782,0.0024434609804302454
1732873686450786000,0.7197861328125,-0.02382374368607998,-0.01038470957428217,0.006719517521560192
1732873686460817700,0.729817626953125,-0.021991148591041565,-0.006719517521560192,0.00733038317412138
1732873686470805500,0.739805419921875,-0.015271631069481373,-0.001832595793530345,0.003054326167330146
1732873686480837400,0.74983740234375,-0.01160643994808197,-0.0024434609804302454,-0.007941247895359993
1732873686490794800,0.759794677734375,-0.012217304669320583,-0.01038470957428217,-0.01710422709584236
1732873686500826000,0.769826171875,-0.015882495790719986,-0.019547687843441963,-0.02076941914856434
1732873686510814200,0.779814208984375,-0.01771509274840355,-0.018325956538319588,-0.02626720629632473
1732873686520815400,0.7898154296875,-0.016493361443281174,-0.00427605677396059,-0.02382374368607998
1732873686530803200,0.79980322265625,-0.006719517521560192,0.009162978269159794,-0.021991148591041565
1732873686540835000,0.8098349609375,0.010995574295520782,0.02321287989616394,-0.025045474991202354
1732873686550792200,0.819792236328125,0.025656340643763542,0.027488935738801956,-0.036041051149368286
1732873686560824000,0.829823974609375,0.02932153269648552,0.02076941914856434,-0.048258353024721146
1732873686570812000,0.83981201171875,0.02871066704392433,0.01710422709584236,-0.06841690838336945
1732873686580812800,0.849812744140625,0.028099801391363144,0.005497787147760391,-0.0861319974064827
1732873686590800000,0.8597998046875,0.02932153269648552,-0.01160643994808197,-0.08307767659425735
1732873686600832000,0.86983203125,0.030543262138962746,-0.010995574295520782,-0.06841690838336945
1732873686610789000,0.8797890625,0.03237585723400116,-0.00366519158706069,-0.0507018156349659
1732873686620820700,0.88982080078125,0.03176499158143997,-0.0024434609804302454,-0.033597588539123535
1732873686630808800,0.899808837890625,0.030543262138962746,0.0012217304902151227,-0.02687807008624077
1732873686640809500,0.9098095703125,0.02626720629632473,0.006108652334660292,-0.03237585723400116
1732873686650797800,0.9197978515625,0.02015855349600315,0.013439035043120384,-0.04398229718208313
1732873686660829400,0.929829345703125,0.00855211354792118,0.015882495790719986,-0.0555887371301651
1732873686670786800,0.939786865234375,-0.009773843921720982,0.009773843921720982,-0.06658431142568588
1732873686680818700,0.949818603515625,-0.022602014243602753,-0.0006108652451075613,-0.06658431142568588
1732873686690806800,0.959806884765625,-0.03848451003432274,-0.012217304669320583,-0.0555887371301651
1732873686700808000,0.969807861328125,-0.05803219974040985,-0.021991148591041565,-0.03420845419168472
1732873686710796000,0.979796142578125,-0.07269296050071716,-0.029932396486401558,-0.009773843921720982
1732873686720827600,0.98982763671875,-0.07696902006864548,-0.02076941914856434,-0.0006108652451075613
1732873686730815500,0.9998154296875,-0.07330382615327835,-0.00366519158706069,-0.007941247895359993
1732873686740816600,1.009816650390625,-0.07269296050071716,0.0024434609804302454,-0.02871066704392433
1732873686750804500,1.019804443359375,-0.07880161702632904,-0.00366519158706069,-0.04703662544488907
1732873686760836000,1.029836181640625,-0.08918632566928864,-0.015882495790719986,-0.05803219974040985
1732873686770793500,1.03979345703125,-0.10018189996480942,-0.021380282938480377,-0.06719517707824707
1732873686780825000,1.0498251953125,-0.10445795953273773,-0.018936822190880775,-0.06658431142568588
1732873686790813000,1.05981298828125,-0.10751228034496307,-0.004886921960860491,-0.06230825558304787
1732873686800814000,1.06981396484375,-0.10812314599752426,0.01160643994808197,-0.051312681287527084
1732873686810802000,1.079802001953125,-0.11545353382825851,0.03298672288656235,-0.02321287989616394
1732873686820833300,1.089833251953125,-0.12400564551353455,0.03848451003432274,-0.0006108652451075613
1732873686830791000,1.099791015625,-0.13316862285137177,0.04459316283464432,0.01771509274840355
1732873686840822800,1.10982275390625,-0.13866640627384186,0.05375614017248154,0.025656340643763542
1732873686850810400,1.119810302734375,-0.13866640627384186,0.07024950534105301,0.02015855349600315
1732873686860811500,1.1298115234375,-0.13927727937698364,0.0806342139840126,0.012828170321881771
1732873686870799600,1.139799560546875,-0.14049901068210602,0.08246681094169617,0.007941247895359993
1732873686880831000,1.1498310546875,-0.14844025671482086,0.07208210229873657,0.01038470957428217
1732873686890788600,1.15978857421875,-0.17348572611808777,0.04092797264456749,0.02321287989616394
1732873686900820000,1.169820068359375,-0.19058994948863983,0.021991148591041565,0.03481931984424591
1732873686910808000,1.17980810546875,-0.20036379992961884,0.01038470957428217,0.04092797264456749
1732873686920809200,1.189809326171875,-0.2021963894367218,0.021991148591041565,0.04581489413976669
1732873686930797000,1.199797119140625,-0.2028072625398636,0.048258353024721146,0.05253441259264946
1732873686940828700,1.20982861328125,-0.21135938167572021,0.0806342139840126,0.06780604273080826
1732873686950786000,1.2197861328125,-0.22357667982578278,0.10690141469240189,0.08674286305904388
1732873686960817400,1.2298173828125,-0.24373523890972137,0.11911872029304504,0.11728613078594208
1732873686970805500,1.239805419921875,-0.25473082065582275,0.11056660860776901,0.12828169763088226
1732873686980837000,1.249837158203125,-0.2565633952617645,0.09529497474431992,0.12828169763088226
1732873686990794800,1.259794677734375,-0.2480112910270691,0.08491026610136032,0.12095131725072861
1732873687000826400,1.269826416015625,-0.23396138846874237,0.0806342139840126,0.11056660860776901
1732873687010814000,1.27981396484375,-0.2217440903186798,0.08735372871160507,0.10506882518529892
1732873687020815400,1.2898154296875,-0.2070833146572113,0.09773843735456467,0.1111774742603302
1732873687030803000,1.299802978515625,-0.18936823308467865,0.12767083942890167,0.1472185254096985
1732873687040834800,1.309834716796875,-0.1771509200334549,0.1563815027475357,0.17959438264369965
1732873687050792200,1.319792236328125,-0.1618792861700058,0.1814269721508026,0.20586158335208893
1732873687060823600,1.329823486328125,-0.13744467496871948,0.19914206862449646,0.22113321721553802
1732873687070811600,1.339811767578125,-0.10751228034496307,0.20891591906547546,0.21930062770843506
1732873687080812500,1.3498125,-0.07635815441608429,0.2064724564552307,0.19486601650714874
1732873687090828800,1.359828857421875,-0.05619960278272629,0.1869247704744339,0.16554448008537292
1732873687100832300,1.369832275390625,-0.05742133408784866,0.15393804013729095,0.14416420459747314
1732873687110790000,1.379789794921875,-0.08674286305904388,0.10323622822761536,0.1160643994808197
1732873687120821500,1.389821533203125,-0.10873401165008545,0.08857546001672745,0.08857546001672745
1732873687130809300,1.399809326171875,-0.11178833991289139,0.08368854224681854,0.06230825558304787
1732873687140810500,1.409810546875,-0.10506882518529892,0.07635815441608429,0.04153883829712868
1732873687150798000,1.419798095703125,-0.0910189226269722,0.059864792972803116,0.03481931984424591
1732873687160830000,1.429829833984375,-0.08307767659425735,0.03420845419168472,0.039095375686883926
1732873687170787300,1.439787353515625,-0.07635815441608429,0.012828170321881771,0.05314527451992035
1732873687180819000,1.44981884765625,-0.0555887371301651,-0.016493361443281174,0.08246681094169617
1732873687190807000,1.45980712890625,-0.03848451003432274,-0.03176499158143997,0.10262536257505417
1732873687200808000,1.469807861328125,-0.022602014243602753,-0.04092797264456749,0.12095131725072861
1732873687210795800,1.479795654296875,-0.004886921960860491,-0.04703662544488907,0.13500121235847473
1732873687220827400,1.489827392578125,0.006108652334660292,-0.039095375686883926,0.14477506279945374
1732873687230815500,1.4998154296875,0.016493361443281174,-0.02382374368607998,0.1466076523065567
1732873687240816400,1.50981640625,0.02076941914856434,-0.006719517521560192,0.14233160018920898
1732873687250804500,1.519804443359375,0.025656340643763542,0.021991148591041565,0.11728613078594208
1732873687260835800,1.5298359375,0.029932396486401558,0.025045474991202354,0.09957103431224823
1732873687270793200,1.539793212890625,0.02321287989616394,0,0.09468411654233932
1732873687280824800,1.549824951171875,0.015882495790719986,-0.04153883829712868,0.10018189996480942
1732873687290813000,1.55981298828125,0.02871066704392433,-0.08124507963657379,0.1014036312699318
1732873687300813300,1.569813232421875,0.0708603709936142,-0.10506882518529892,0.09896016865968704
1732873687310802000,1.579802001953125,0.13316862285137177,-0.11911872029304504,0.08491026610136032
1732873687320832500,1.58983251953125,0.1966986060142517,-0.11484266817569733,0.04764748737215996
1732873687330791000,1.599791015625,0.3066543638706207,0.00855211354792118,-0.1007927656173706
1732873687340822500,1.609822509765625,0.37079519033432007,0.14477506279945374,-0.25473082065582275
1732873687350810400,1.619810302734375,0.394008070230484,0.25106561183929443,-0.40744712948799133
1732873687360811500,1.6298115234375,0.35185837745666504,0.28588494658470154,-0.523511528968811
1732873687370799600,1.639799560546875,0.24434609711170197,0.2070833146572113,-0.5650503635406494
1732873687380831000,1.6498310546875,0.10506882518529892,0.010995574295520782,-0.4948008358478546
1732873687390788600,1.65978857421875,-0.018936822190880775,-0.26145032048225403,-0.3090978264808655
1732873687400820000,1.669820068359375,-0.08246681094169617,-0.6004805564880371,0.04764748737215996
1732873687410808000,1.67980810546875,-0.036041051149368286,-0.5900958180427551,0.23151792585849762
1732873687420809200,1.689809326171875,0.029932396486401558,-0.42088615894317627,0.35735616087913513
1732873687430796800,1.699796875,0.05497787147760391,-0.16920967400074005,0.4331034719944
1732873687440828000,1.709827880859375,0.025045474991202354,0.09712757170200348,0.4447098970413208
1732873687450786000,1.7197861328125,-0.04398229718208313,0.3066543638706207,0.35552358627319336
1732873687460817000,1.72981689453125,-0.13316862285137177,0.38240164518356323,0.17776179313659668
1732873687470805500,1.739805419921875,-0.2382374405860901,0.2632829248905182,-0.16737708449363708
1732873687480836400,1.74983642578125,-0.251676470041275,0.10323622822761536,-0.394008070230484
1732873687490794800,1.759794677734375,-0.21991148591041565,-0.07941248267889023,-0.5632177591323853
1732873687500824800,1.769824951171875,-0.1667662113904953,-0.26450464129447937,-0.6334672570228577
1732873687510814200,1.779814208984375,-0.1215621829032898,-0.4300491213798523,-0.5907067060470581
1732873687520814000,1.78981396484375,-0.10201449692249298,-0.5369505286216736,-0.46792277693748474
1732873687530803200,1.79980322265625,-0.10018189996480942,-0.5510004758834839,-0.31459560990333557
1732873687540834800,1.809834716796875,-0.12522737681865692,-0.485027015209198,-0.16004669666290283
1732873687550792200,1.819792236328125,-0.19853121042251587,-0.25473082065582275,0.03848451003432274
1732873687560823800,1.82982373046875,-0.24617868661880493,-0.03176499158143997,0.12278391420841217
1732873687570811600,1.839811767578125,-0.29016098380088806,0.1661553531885147,0.16371189057826996
1732873687580812300,1.849812255859375,-0.32009339332580566,0.28099802136421204,0.15943582355976105
1732873687590800000,1.8597998046875,-0.3280346393585205,0.2883284091949463,0.13072516024112701
1732873687600830700,1.869830810546875,-0.30543261766433716,0.20402899384498596,0.08857546001672745
1732873687610789000,1.8797890625,-0.25595253705978394,0.07208210229873657,0.030543262138962746
1732873687620819700,1.88981982421875,-0.1563815027475357,-0.1362229436635971,-0.06169738993048668
1732873687630808800,1.899808837890625,-0.0910189226269722,-0.2669481039047241,-0.1007927656173706
1732873687640809700,1.909809814453125,-0.054367005825042725,-0.37629300355911255,-0.1215621829032898
1732873687650797800,1.9197978515625,-0.045204028487205505,-0.43127086758613586,-0.1411098688840866
1732873687660829200,1.9298291015625,-0.051312681287527084,-0.41722095012664795,-0.17409659922122955
1732873687670787000,1.939787109375,-0.05864306539297104,-0.3390302062034607,-0.21319197118282318
1732873687680818400,1.949818359375,-0.07024950534105301,-0.22663100063800812,-0.2583959996700287
1732873687690806800,1.959806884765625,-0.10323622822761536,-0.051312681287527084,-0.32498031854629517
1732873687700807700,1.9698076171875,-0.12461651116609573,0.014049900695681572,-0.36529740691185
1732873687710796000,1.979796142578125,-0.13561208546161652,0.013439035043120384,-0.39645153284072876
1732873687720827400,1.989827392578125,-0.12461651116609573,-0.024434609338641167,-0.4056145250797272
1732873687730815500,1.9998154296875,-0.10690141469240189,-0.07452555745840073,-0.36651915311813354
1732873687740816100,2.009816162109375,-0.08796459436416626,-0.11545353382825851,-0.28038713335990906
1732873687750804200,2.01980419921875,-0.07635815441608429,-0.12889257073402405,-0.1618792861700058
1732873687760835000,2.0298349609375,-0.06719517707824707,-0.12522737681865692,-0.04092797264456749
1732873687770793500,2.03979345703125,-0.04092797264456749,-0.1062905490398407,0.09712757170200348
1732873687780824300,2.04982421875,-0.022602014243602753,-0.11056660860776901,0.1514945775270462
1732873687790813000,2.05981298828125,0.00427605677396059,-0.1007927656173706,0.17776179313659668
1732873687800813300,2.069813232421875,0.03176499158143997,-0.07635815441608429,0.18875735998153687
1732873687810802000,2.079802001953125,0.05253441259264946,-0.036041051149368286,0.2028072625398636
1732873687820832500,2.08983251953125,0.07452555745840073,0.02871066704392433,0.2217440903186798
1732873687830791000,2.099791015625,0.10690141469240189,0.10690141469240189,0.22663100063800812
1732873687840822300,2.109822265625,0.13744467496871948,0.1820378452539444,0.20586158335208893
1732873687850810400,2.119810302734375,0.11301007121801376,0.1820378452539444,0.15882496535778046
1732873687860811300,2.129811279296875,0.06536258012056351,0.15515977144241333,0.06963863968849182
1732873687870799400,2.13979931640625,0.021380282938480377,0.13316862285137177,-0.04153883829712868
1732873687880831000,2.1498310546875,-0.00366519158706069,0.11972958594560623,-0.15454891324043274
1732873687890788600,2.15978857421875,-0.02015855349600315,0.11789698898792267,-0.2376265823841095
1732873687900820000,2.169820068359375,-0.0403171069920063,0.11545353382825851,-0.26511552929878235
1732873687910808000,2.17980810546875,-0.07208210229873657,0.06841690838336945,-0.21074850857257843
1732873687920809000,2.18980908203125,-0.08185594528913498,0.024434609338641167,-0.13866640627384186
1732873687930797000,2.199797119140625,-0.08552113175392151,-0.012828170321881771,-0.07208210229873657
1732873687940829000,2.209828857421875,-0.0910189226269722,-0.025656340643763542,-0.02871066704392433
1732873687950786000,2.2197861328125,-0.09040805697441101,-0.010995574295520782,-0.015271631069481373
1732873687960817700,2.229817626953125,-0.09040805697441101,0.03176499158143997,-0.01466076634824276
1732873687970805800,2.2398056640625,-0.10506882518529892,0.07024950534105301,-0.02015855349600315
1732873687980837400,2.24983740234375,-0.13316862285137177,0.08918632566928864,-0.033597588539123535
1732873687990794500,2.25979443359375,-0.17531833052635193,0.07208210229873657,-0.04581489413976669
1732873688000826400,2.269826416015625,-0.19975294172763824,0.02321287989616394,-0.045204028487205505
1732873688010814000,2.27981396484375,-0.21807889640331268,-0.03237585723400116,-0.03787364438176155
1732873688020815000,2.289815185546875,-0.19975294172763824,-0.08246681094169617,-0.025656340643763542
1732873688030803200,2.29980322265625,-0.14782938361167908,-0.12217304855585098,-0.016493361443281174
1732873688040834000,2.309833984375,-0.07880161702632904,-0.16737708449363708,-0.013439035043120384
1732873688050792200,2.319792236328125,-0.025656340643763542,-0.19547687470912933,-0.03481931984424591
1732873688060823600,2.329823486328125,0.003054326167330146,-0.20402899384498596,-0.1417207419872284
1732873688070811600,2.339811767578125,0.003054326167330146,-0.21502456068992615,-0.24190263450145721
1732873688080812000,2.34981201171875,0.0012217304902151227,-0.2968805134296417,-0.36224308609962463
1732873688090800600,2.359800537109375,0.1014036312699318,-0.11972958594560623,-0.4434881806373596
1732873688100832300,2.369832275390625,0.2278527319431305,-0.04459316283464432,-0.47708576917648315
1732873688110790000,2.379789794921875,0.20586158335208893,-0.013439035043120384,-0.5326744914054871
1732873688120821200,2.3898212890625,0.09162978827953339,-0.09834930300712585,-0.53328537940979
1732873688130809300,2.399809326171875,-0.13805554807186127,-0.5589417219161987,-0.413555771112442
1732873688140810200,2.409810302734375,-0.32070425152778625,-0.8429940342903137,-0.28588494658470154
1732873688150798000,2.419798095703125,-0.4856378734111786,-1.0769554376602173,-0.08124507963657379
1732873688160829700,2.42982958984375,-0.5656611919403076,-1.1447614431381226,0.20525072515010834
1732873688170787300,2.439787353515625,-0.5607742667198181,-1.0329731702804565,0.5125159621238708
1732873688180818700,2.449818603515625,-0.5051855444908142,-0.749531626701355,0.7806857824325562
1732873688190806800,2.459806884765625,-0.43188172578811646,-0.35063666105270386,0.9584475755691528
1732873688200806400,2.469806396484375,-0.39156460762023926,0.09040805697441101,1.0213667154312134
1732873688210796000,2.479796142578125,-0.4031710624694824,0.6108652353286743,0.9108000993728638
1732873688220827400,2.489827392578125,-0.42088615894317627,0.788016140460968,0.7214318513870239
1732873688230815500,2.4998154296875,-0.4184426963329315,0.8491026759147644,0.4508185386657715
1732873688240815000,2.509815185546875,-0.3787364661693573,0.7623597979545593,0.13561208546161652
1732873688250804200,2.51980419921875,-0.3225368559360504,0.6096435189247131,-0.18509216606616974
1732873688260834300,2.529834228515625,-0.3090978264808655,0.413555771112442,-0.49357911944389343
1732873688270793500,2.53979345703125,-0.32009339332580566,0.1765400618314743,-0.7202101349830627
1732873688280824800,2.549824951171875,-0.30543261766433716,-0.16493362188339233,-0.8051204085350037
1732873688290813000,2.55981298828125,-0.29626965522766113,-0.31154128909111023,-0.7189884185791016
1732873688300813800,2.569813720703125,-0.33047810196876526,-0.3836233615875244,-0.5467243790626526
1732873688310802000,2.579802001953125,-0.40072759985923767,-0.3799581825733185,-0.3243694305419922
1732873688320833500,2.58983349609375,-0.45326200127601624,-0.33047810196876526,-0.07880161702632904
1732873688330791000,2.599791015625,-0.4642575979232788,-0.23457226157188416,0.15332718193531036
1732873688340822800,2.60982275390625,-0.44226643443107605,-0.1258382350206375,0.32681289315223694
1732873688350810400,2.619810302734375,-0.39767327904701233,0.005497787147760391,0.47342056035995483
1732873688360811300,2.629811279296875,-0.3677408695220947,0.06230825558304787,0.513737678527832
1732873688370799600,2.639799560546875,-0.3500257730484009,0.08307767659425735,0.5192354321479797
1732873688380829700,2.64982958984375,-0.3585779070854187,0.07819075137376785,0.4948008358478546
1732873688390788600,2.65978857421875,-0.3805690407752991,0.060475658625364304,0.43676865100860596
1732873688400818700,2.669818603515625,-0.40683624148368835,0.02687807008624077,0.34086281061172485
1732873688410808000,2.67980810546875,-0.42699480056762695,0.00366519158706069,0.2070833146572113
1732873688420809200,2.689809326171875,-0.4080579876899719,0.022602014243602753,0.04886921867728233
1732873688430796800,2.699796875,-0.3090978264808655,0.06169738993048668,-0.1007927656173706
1732873688440829000,2.709828857421875,-0.2217440903186798,0.07269296050071716,-0.11789698898792267
1732873688450786000,2.7197861328125,-0.11789698898792267,0.08491026610136032,-0.08552113175392151
1732873688460817700,2.729817626953125,-0.001832595793530345,0.10201449692249298,-0.01466076634824276
1732873688470805800,2.7398056640625,0.10201449692249298,0.11728613078594208,0.0708603709936142
1732873688480837000,2.749837158203125,0.16493362188339233,0.11423180252313614,0.15271630883216858
1732873688490794800,2.759794677734375,0.19120082259178162,0.10873401165008545,0.2119702398777008
1732873688500826000,2.769826171875,0.1771509200334549,0.10690141469240189,0.2480112910270691
1732873688510814500,2.779814453125,0.1459967941045761,0.1014036312699318,0.25106561183929443
1732873688520815400,2.7898154296875,0.12767083942890167,0.08674286305904388,0.24434609711170197
1732873688530803200,2.79980322265625,0.12950342893600464,0.05742133408784866,0.2278527319431305
1732873688540834800,2.809834716796875,0.14905111491680145,0.006108652334660292,0.2168571650981903
1732873688550792200,2.819792236328125,0.1875356286764145,-0.05253441259264946,0.21135938167572021
1732873688560823800,2.82982373046875,0.25106561183929443,-0.09162978827953339,0.2070833146572113
1732873688570811600,2.839811767578125,0.35246923565864563,-0.11789698898792267,0.16310101747512817
1732873688580812800,2.849812744140625,0.40256020426750183,-0.10323622822761536,0.09285151958465576
1732873688590800000,2.8597998046875,0.4447098970413208,-0.07391469180583954,-0.025656340643763542
1732873688600832000,2.86983203125,0.4715879559516907,-0.05009094998240471,-0.1814269721508026
1732873688610789400,2.879789306640625,0.4740314185619354,-0.0403171069920063,-0.3585779070854187
1732873688620820700,2.88982080078125,0.46792277693748474,-0.08307767659425735,-0.5363397002220154
1732873688630808800,2.899808837890625,0.46364670991897583,-0.14905111491680145,-0.7024950385093689
1732873688640809700,2.909809814453125,0.45753806829452515,-0.25045475363731384,-0.8472700715065002
1732873688650797800,2.9197978515625,0.4300491213798523,-0.4764748811721802,-0.9028588533401489
1732873688660829200,2.9298291015625,0.39156460762023926,-0.6090326309204102,-0.7739662528038025
1732873688670786800,2.939786865234375,0.3378084897994995,-0.646295428276062,-0.5424483418464661
1732873688680818400,2.949818359375,0.2590068578720093,-0.5778785347938538,-0.24678955972194672
1732873688690806800,2.959806884765625,0.15515977144241333,-0.4282165467739105,0.06169738993048668
1732873688700808000,2.969807861328125,0.051312681287527084,-0.24129177629947662,0.31520646810531616
1732873688710796000,2.979796142578125,-0.03298672288656235,-0.04337143152952194,0.47342056035995483
1732873688720827000,2.989826904296875,-0.12828169763088226,0.1966986060142517,0.5283984541893005
1732873688730815200,2.999815185546875,-0.17470745742321014,0.28527405858039856,0.4599815309047699
1732873688740815000,3.009815185546875,-0.17531833052635193,0.313373863697052,0.3286454975605011
1732873688750804500,3.019804443359375,-0.12400564551353455,0.2583959996700287,0.13866640627384186
1732873688760835300,3.02983544921875,-0.06230825558304787,0.1466076523065567,-0.09407325088977814
1732873688770793200,3.039793212890625,-0.018325956538319588,0.03420845419168472,-0.294437050819397
1732873688780824300,3.04982421875,-0.001832595793530345,-0.05009094998240471,-0.4050036668777466
1732873688790813000,3.05981298828125,-0.03298672288656235,-0.12889257073402405,-0.38667771220207214
1732873688800814000,3.06981396484375,-0.07391469180583954,-0.16432274878025055,-0.29565876722335815
1732873688810802000,3.079802001953125,-0.11423180252313614,-0.16554448008537292,-0.16310101747512817
1732873688820833500,3.08983349609375,-0.15271630883216858,-0.12767083942890167,0.004886921960860491
1732873688830791000,3.099791015625,-0.18997909128665924,-0.04948008432984352,0.19792033731937408
1732873688840822500,3.109822509765625,-0.22296582162380219,0.05742133408784866,0.394008070230484
1732873688850810400,3.119810302734375,-0.24129177629947662,0.1508837193250656,0.5534439086914062
1732873688860811300,3.129811279296875,-0.2474004179239273,0.19364428520202637,0.6340781450271606
1732873688870799400,3.13979931640625,-0.23457226157188416,0.19303341209888458,0.6285803318023682
1732873688880830500,3.14983056640625,-0.21135938167572021,0.16737708449363708,0.5742133259773254
1732873688890788400,3.159788330078125,-0.18936823308467865,0.1160643994808197,0.4856378734111786
1732873688900819500,3.1698193359375,-0.1814269721508026,0.05253441259264946,0.37568211555480957
1732873688910808000,3.17980810546875,-0.19058994948863983,-0.01466076634824276,0.2681698501110077
1732873688920808400,3.189808349609375,-0.19792033731937408,-0.07208210229873657,0.16982053220272064
1732873688930796800,3.199796875,-0.21013765037059784,-0.1062905490398407,0.09040805697441101
1732873688940828400,3.209828369140625,-0.22540926933288574,-0.10384709388017654,0.005497787147760391
1732873688950786000,3.2197861328125,-0.21441370248794556,-0.07208210229873657,-0.03481931984424591
1732873688960817200,3.229817138671875,-0.1820378452539444,-0.04642575979232788,-0.08124507963657379
1732873688970805500,3.239805419921875,-0.14355333149433136,-0.04764748737215996,-0.1264491081237793
1732873688980836900,3.2498369140625,-0.11239920556545258,-0.039706241339445114,-0.16004669666290283
1732873688990794800,3.259794677734375,-0.0806342139840126,0.005497787147760391,-0.16982053220272064
1732873689000825300,3.269825439453125,-0.048258353024721146,0.04764748737215996,-0.14782938361167908
1732873689010814200,3.279814208984375,0.0012217304902151227,0.08368854224681854,-0.04703662544488907
1732873689020815400,3.2898154296875,0.01160643994808197,0.056810468435287476,0.04948008432984352
1732873689030803200,3.29980322265625,0.01038470957428217,0.01038470957428217,0.14477506279945374
1732873689040834800,3.309834716796875,0.012828170321881771,-0.04886921867728233,0.2278527319431305
1732873689050792200,3.319792236328125,0.02626720629632473,-0.0861319974064827,0.2742784917354584
1732873689060823000,3.329822998046875,0.05314527451992035,-0.09224065393209457,0.27550023794174194
1732873689070811600,3.339811767578125,0.07330382615327835,-0.08857546001672745,0.242513507604599
1732873689080812000,3.34981201171875,0.09224065393209457,-0.06902777403593063,0.17470745742321014
1732873689090827300,3.3598271484375,0.1270599663257599,-0.010995574295520782,0.036041051149368286
1732873689100832300,3.369832275390625,0.13072516024112701,0.05619960278272629,-0.056810468435287476
1732873689110790000,3.379789794921875,0.1160643994808197,0.12522737681865692,-0.1258382350206375
1732873689120821200,3.3898212890625,0.08491026610136032,0.15882496535778046,-0.16859880089759827
1732873689130809300,3.399809326171875,0.05375614017248154,0.13744467496871948,-0.19364428520202637
1732873689140810200,3.409810302734375,0.03726277872920036,0.042760565876960754,-0.22296582162380219
1732873689150798000,3.419798095703125,0.05253441259264946,-0.10812314599752426,-0.2730567753314972
1732873689160829400,3.429829345703125,0.10567969083786011,-0.37201693654060364,-0.37201693654060364
1732873689170787300,3.439787353515625,0.11362093687057495,-0.5180137157440186,-0.4202753007411957
1732873689180818700,3.449818603515625,0.09346238523721695,-0.6346889734268188,-0.41661009192466736
1732873689190806800,3.459806884765625,0.05619960278272629,-0.7067710757255554,-0.3530801236629486
1732873689200807700,3.4698076171875,0.03848451003432274,-0.6896668672561646,-0.2480112910270691
1732873689210796000,3.479796142578125,0.0507018156349659,-0.5577199459075928,-0.12522737681865692
1732873689220827400,3.489827392578125,0.10201449692249298,-0.25106561183929443,0.007941247895359993
1732873689230815500,3.4998154296875,0.0959058403968811,0.23945917189121246,0.17470745742321014
1732873689240816000,3.509816162109375,0.025656340643763542,0.4239404797554016,0.17104226350784302
1732873689250804200,3.51980419921875,-0.015882495790719986,0.45326200127601624,0.056810468435287476
1732873689260834800,3.529834716796875,0.01038470957428217,0.40194934606552124,-0.09346238523721695
1732873689270793500,3.53979345703125,0.09834930300712585,0.3188716471195221,-0.22418753802776337
1732873689280823600,3.549823486328125,0.19792033731937408,0.20463985204696655,-0.29138273000717163
1732873689290813000,3.55981298828125,0.26022860407829285,0.10506882518529892,-0.3017674386501312
1732873689300813800,3.569813720703125,0.2590068578720093,0.007941247895359993,-0.27611109614372253
1732873689310802000,3.579802001953125,0.22052235901355743,-0.04214970022439957,-0.2626720666885376
1732873689320833500,3.58983349609375,0.1820378452539444,-0.09957103431224823,-0.2632829248905182
1732873689330791000,3.599791015625,0.15454891324043274,-0.13255776464939117,-0.23457226157188416
1732873689340822300,3.609822265625,0.152105450630188,-0.10751228034496307,-0.1612684279680252
1732873689350810400,3.619810302734375,0.16798794269561768,-0.03176499158143997,-0.05497787147760391
1732873689360811500,3.6298115234375,0.18936823308467865,0.05497787147760391,0.07880161702632904
1732873689370799600,3.639799560546875,0.23579397797584534,0.17043140530586243,0.22296582162380219
1732873689380831000,3.6498310546875,0.3194825351238251,0.26633724570274353,0.375071257352829
1732873689390788600,3.65978857421875,0.33475416898727417,0.2724458873271942,0.41233405470848083
1732873689400820000,3.669820068359375,0.3549126982688904,0.2968805134296417,0.42577308416366577
1732873689410808000,3.67980810546875,0.37079519033432007,0.313373863697052,0.4147774875164032
1732873689420807700,3.6898076171875,0.3530801236629486,0.2883284091949463,0.36224308609962463
1732873689430796800,3.699796875,0.31154128909111023,0.24556782841682434,0.28527405858039856
1732873689440828400,3.709828369140625,0.26083946228027344,0.15882496535778046,0.19853121042251587
1732873689450786000,3.7197861328125,0.19425514340400696,0.04764748737215996,0.10201449692249298
1732873689460817700,3.729817626953125,0.19120082259178162,0.04459316283464432,0.09407325088977814
1732873689470805800,3.7398056640625,0.2028072625398636,0.07024950534105301,0.1270599663257599
1732873689480837000,3.749837158203125,0.22113321721553802,0.09712757170200348,0.17776179313659668
1732873689490794800,3.759794677734375,0.24373523890972137,0.10995574295520782,0.21991148591041565
1732873689500826000,3.769826171875,0.2687807083129883,0.11178833991289139,0.24068090319633484
1732873689510814200,3.779814208984375,0.29504790902137756,0.10995574295520782,0.24373523890972137
1732873689520815000,3.789815185546875,0.35246923565864563,0.1160643994808197,0.21991148591041565
1732873689530803200,3.79980322265625,0.39095374941825867,0.1264491081237793,0.18570303916931152
1732873689540834800,3.809834716796875,0.43737950921058655,0.12339477986097336,0.1368338167667389
1732873689550792200,3.819792236328125,0.49296826124191284,0.11423180252313614,0.07452555745840073
1732873689560824000,3.829823974609375,0.5503895878791809,0.10690141469240189,0.01160643994808197
1732873689570811600,3.839811767578125,0.5962044596672058,0.10262536257505417,-0.031154127791523933
1732873689580812800,3.849812744140625,0.6200281977653503,0.12461651116609573,-0.05742133408784866
1732873689590800000,3.8597998046875,0.645684540271759,0.23945917189121246,-0.039095375686883926
1732873689600830700,3.869830810546875,0.6505714654922485,0.4905247986316681,0.05192354694008827
1732873689610789000,3.8797890625,0.5595525503158569,0.5864306092262268,0.1160643994808197
1732873689620820700,3.88982080078125,0.4288274049758911,0.4453207552433014,0.11728613078594208
1732873689630808800,3.899808837890625,0.4404338300228119,0.26083946228027344,0.08979719132184982
1732873689640809700,3.909809814453125,0.5106833577156067,0.14294247329235077,0.06841690838336945
1732873689650797800,3.9197978515625,0.5247332453727722,0.03237585723400116,0.06169738993048668
1732873689660829400,3.929829345703125,0.5491678714752197,-0.06291911751031876,0.0708603709936142
1732873689670787000,3.939787109375,0.6065891981124878,-0.08674286305904388,0.04642575979232788
1732873689680818400,3.949818359375,0.6139195561408997,-0.02015855349600315,0.0403171069920063
1732873689690806800,3.959806884765625,0.6029239892959595,0.1362229436635971,0.059864792972803116
1732873689700808000,3.969807861328125,0.5656611919403076,0.313373863697052,0.04703662544488907
1732873689710796000,3.979796142578125,0.4703662395477295,0.3188716471195221,-0.07819075137376785
1732873689720827400,3.989827392578125,0.3549126982688904,0.18081611394882202,-0.28099802136421204
1732873689730815200,3.999815185546875,0.2730567753314972,-0.02871066704392433,-0.4764748811721802
1732873689740816400,4.00981640625,0.21930062770843506,-0.23884831368923187,-0.5674937963485718
1732873689750804200,4.01980419921875,0.20586158335208893,-0.27122417092323303,-0.5027421116828918
1732873689760835600,4.029835693359375,0.1869247704744339,-0.22968533635139465,-0.39645153284072876
1732873689770793200,4.039793212890625,0.14844025671482086,-0.1508837193250656,-0.29077184200286865
1732873689780824800,4.049824951171875,0.08735372871160507,-0.07024950534105301,-0.23029619455337524
1732873689790813200,4.059813232421875,0.006108652334660292,-0.0024434609804302454,-0.2223549485206604
1732873689800813800,4.069813720703125,-0.09407325088977814,0.016493361443281174,-0.23335053026676178
1732873689810802000,4.079802001953125,-0.20952677726745605,-0.030543262138962746,-0.2382374405860901
1732873689820833800,4.089833740234375,-0.36102136969566345,-0.1661553531885147,-0.1966986060142517
1732873689830791000,4.099791015625,-0.4404338300228119,-0.2474004179239273,-0.1319468915462494
1732873689840821800,4.10982177734375,-0.49357911944389343,-0.2968805134296417,-0.054367005825042725
1732873689850810400,4.119810302734375,-0.5082398653030396,-0.32009339332580566,0.01771509274840355
1732873689860810500,4.129810546875,-0.485027015209198,-0.31031954288482666,0.06352998316287994
1732873689870799400,4.13979931640625,-0.44165557622909546,-0.2877175211906433,0.07269296050071716
1732873689880830000,4.149829833984375,-0.38667771220207214,-0.26572638750076294,0.04764748737215996
1732873689890788600,4.15978857421875,-0.304210901260376,-0.2535090744495392,-0.00733038317412138
1732873689900819000,4.16981884765625,-0.25473082065582275,-0.2590068578720093,-0.018936822190880775
1732873689910808000,4.17980810546875,-0.2064724564552307,-0.2535090744495392,0.003054326167330146
1732873689920808400,4.189808349609375,-0.1508837193250656,-0.23579397797584534,0.05253441259264946
1732873689930796800,4.199796875,-0.11239920556545258,-0.2070833146572113,0.12034045159816742
1732873689940828000,4.209827880859375,-0.08429940044879913,-0.16371189057826996,0.18509216606616974
1732873689950786000,4.2197861328125,-0.059864792972803116,-0.12095131725072861,0.23396138846874237
1732873689960817400,4.2298173828125,-0.04153883829712868,-0.06780604273080826,0.26939156651496887
1732873689970805500,4.239805419921875,-0.036651913076639175,-0.03481931984424591,0.2632829248905182
1732873689980837000,4.249837158203125,-0.03237585723400116,-0.006719517521560192,0.23945917189121246
1732873689990794500,4.25979443359375,-0.029932396486401558,0.00427605677396059,0.20036379992961884
1732873690000826000,4.269826171875,-0.028099801391363144,-0.0006108652451075613,0.1514945775270462
1732873690010814200,4.279814208984375,-0.02687807008624077,-0.015882495790719986,0.0910189226269722
1732873690020815000,4.289815185546875,-0.02932153269648552,-0.03420845419168472,0.02015855349600315
1732873690030803200,4.29980322265625,-0.02626720629632473,-0.03726277872920036,-0.036651913076639175
1732873690040834600,4.30983447265625,-0.03726277872920036,-0.031154127791523933,-0.07208210229873657
1732873690050792200,4.319792236328125,-0.04337143152952194,-0.015271631069481373,-0.06291911751031876
1732873690060824000,4.329823974609375,-0.04703662544488907,0.010995574295520782,-0.03848451003432274
1732873690070811600,4.339811767578125,-0.039095375686883926,0.0403171069920063,-0.005497787147760391
1732873690080811300,4.349811279296875,-0.015882495790719986,0.0757472887635231,0.033597588539123535
1732873690090800600,4.359800537109375,0.02687807008624077,0.10384709388017654,0.0708603709936142
1732873690100831000,4.3698310546875,0.08368854224681854,0.11362093687057495,0.11239920556545258
1732873690110790000,4.379789794921875,0.17776179313659668,0.09834930300712585,0.1661553531885147
1732873690120820700,4.38982080078125,0.23029619455337524,0.06108652427792549,0.1869247704744339
1732873690130809300,4.399809326171875,0.26939156651496887,0.00733038317412138,0.19486601650714874
1732873690140809700,4.409809814453125,0.2981022298336029,-0.01771509274840355,0.182648703455925
1732873690150798000,4.419798095703125,0.3243694305419922,-0.012828170321881771,0.15577064454555511
1732873690160829200,4.4298291015625,0.3439171314239502,0.018936822190880775,0.12034045159816742
1732873690170787300,4.439787353515625,0.35063666105270386,0.05375614017248154,0.0757472887635231
1732873690180818400,4.449818359375,0.33475416898727417,0.07208210229873657,0.006108652334660292
1732873690190806800,4.459806884765625,0.32009339332580566,0.04581489413976669,-0.04153883829712868
1732873690200807400,4.469807373046875,0.2877175211906433,-0.005497787147760391,-0.10995574295520782
1732873690210796000,4.479796142578125,0.25595253705978394,-0.07513642311096191,-0.1869247704744339
1732873690220827600,4.48982763671875,0.22052235901355743,-0.13988813757896423,-0.2620611786842346
1732873690230815500,4.4998154296875,0.17898350954055786,-0.2064724564552307,-0.32009339332580566
1732873690240816000,4.509816162109375,0.13072516024112701,-0.2889392673969269,-0.3488040566444397
1732873690250804200,4.51980419921875,0.08307767659425735,-0.38606682419776917,-0.3445279896259308
1732873690260834800,4.529834716796875,0.05009094998240471,-0.5400048494338989,-0.2883284091949463
1732873690270793200,4.539793212890625,0.08429940044879913,-0.5613851547241211,-0.2822197377681732
1732873690280823300,4.5498232421875,0.13439035415649414,-0.48319441080093384,-0.29993483424186707
1732873690290813000,4.55981298828125,0.15760323405265808,-0.3286454975605011,-0.3078760802745819
1732873690300812500,4.5698125,0.12034045159816742,-0.10384709388017654,-0.3121521472930908
1732873690310348000,4.57934814453125,0.018325956538319588,0.0959058403968811,-0.34513887763023376
1732873690320378400,4.58937841796875,-0.1563815027475357,0.1771509200334549,-0.41661009192466736
1732873690330337000,4.5993369140625,-0.47219884395599365,0.16982053220272064,-0.3982841372489929
1732873690340368100,4.6093681640625,-0.6591235995292664,0.10934487730264664,-0.313373863697052
1732873690350356500,4.6193564453125,-0.8063421249389648,0.07330382615327835,-0.21563543379306793
1732873690360357600,4.629357666015625,-0.8833111524581909,0.07452555745840073,-0.1368338167667389
1732873690370345700,4.639345703125,-0.8625417351722717,0.10445795953273773,-0.11178833991289139
1732873690380376000,4.6493759765625,-0.778853178024292,0.12767083942890167,-0.16310101747512817
1732873690390334700,4.659334716796875,-0.6860016584396362,0.11789698898792267,-0.27488934993743896
1732873690400366300,4.669366455078125,-0.6261368989944458,0.09224065393209457,-0.4404338300228119
1732873690410354200,4.679354248046875,-0.656069278717041,0.07513642311096191,-0.4990769028663635
1732873690420355300,4.689355224609375,-0.7012733221054077,0.07513642311096191,-0.4966334402561188
1732873690430343000,4.699343017578125,-0.7507534027099609,0.10995574295520782,-0.42210787534713745
1732873690440375000,4.709375,-0.7916813492774963,0.18875735998153687,-0.2987131178379059
1732873690450332200,4.719332275390625,-0.8118399381637573,0.28099802136421204,-0.16432274878025055
1732873690460364000,4.729364013671875,-0.807563841342926,0.37140607833862305,-0.03726277872920036
1732873690470352000,4.739351806640625,-0.7837401032447815,0.4386012554168701,0.06719517707824707
1732873690480382000,4.7493818359375,-0.6951646208763123,0.4642575979232788,0.1472185254096985
1732873690490340900,4.7593408203125,-0.5962044596672058,0.4202753007411957,0.17348572611808777
1732873690500371200,4.76937109375,-0.46853363513946533,0.31154128909111023,0.19120082259178162
1732873690510360300,4.7793603515625,-0.32559117674827576,0.2028072625398636,0.22052235901355743
1732873690520361500,4.789361572265625,-0.19364428520202637,0.13805554807186127,0.2626720666885376
1732873690530349000,4.79934912109375,-0.11850785464048386,0.0757472887635231,0.30482175946235657
1732873690540381000,4.809380859375,-0.09407325088977814,0.02932153269648552,0.36529740691185
1732873690550338300,4.81933837890625,-0.10873401165008545,0.02382374368607998,0.4715879559516907
1732873690560369700,4.82936962890625,-0.13988813757896423,0.051312681287527084,0.5210680365562439
1732873690570358000,4.83935791015625,-0.11178833991289139,-0.013439035043120384,0.5027421116828918
1732873690580359000,4.84935888671875,-0.0861319974064827,-0.12522737681865692,0.44165557622909546
1732873690590346000,4.859345947265625,-0.05253441259264946,-0.17776179313659668,0.3488040566444397
1732873690600378000,4.869378173828125,0.009162978269159794,-0.14294247329235077,0.22907446324825287
1732873690610335200,4.879335205078125,0.09040805697441101,-0.06291911751031876,0.12034045159816742
1732873690620365600,4.889365478515625,0.22968533635139465,0.14844025671482086,0.06108652427792549
1732873690630355000,4.89935498046875,0.32559117674827576,0.23396138846874237,0.08552113175392151
1732873690640355800,4.90935595703125,0.3952298164367676,0.2926044464111328,0.1215621829032898
1732873690650344000,4.919343994140625,0.4434881806373596,0.2993239760398865,0.16004669666290283
1732873690660375600,4.92937548828125,0.4807509481906891,0.27061331272125244,0.16798794269561768
1732873690670333200,4.939333251953125,0.5357288122177124,0.14233160018920898,0.14782938361167908
1732873690680364800,4.94936474609375,0.588874101638794,0.04398229718208313,0.0910189226269722
1732873690690353000,4.959352783203125,0.608421802520752,-0.0006108652451075613,0.015271631069481373
1732873690700354000,4.96935400390625,0.6017022728919983,-0.0354301854968071,-0.06414084881544113
1732873690710342000,4.979341796875,0.5876523852348328,0.013439035043120384,-0.08491026610136032
1732873690720373500,4.98937353515625,0.5821545720100403,0.10690141469240189,-0.07452555745840073
1732873690730361300,4.999361328125,0.5919284224510193,0.21563543379306793,-0.03176499158143997
1732873690740362500,5.009362548828125,0.5949827432632446,0.32498031854629517,0.04092797264456749
1732873690750350300,5.019350341796875,0.588263213634491,0.4349360466003418,0.1258382350206375
1732873690760382000,5.0293818359375,0.5711590051651001,0.5381723046302795,0.2076941877603531
1732873690770339300,5.03933935546875,0.5467243790626526,0.626747727394104,0.2919935882091522
1732873690780371000,5.049370849609375,0.5387831330299377,0.6426302194595337,0.3280346393585205
1732873690790359000,5.059359130859375,0.5406157374382019,0.6481280326843262,0.3445279896259308
1732873690800358700,5.069358642578125,0.5302310585975647,0.6444628238677979,0.3378084897994995
1732873690810348000,5.07934814453125,0.503963828086853,0.6713408827781677,0.31459560990333557
1732873690820379600,5.089379638671875,0.455705463886261,0.7837401032447815,0.26511552929878235
1732873690830337000,5.0993369140625,0.3628539443016052,0.9370672702789307,0.17287486791610718
1732873690840368000,5.1093681640625,0.15882496535778046,1.1129964590072632,-0.03726277872920036
1732873690850356500,5.1193564453125,0.02382374368607998,1.1661417484283447,-0.1264491081237793
1732873690860356000,5.129356201171875,-0.04764748737215996,1.1178834438323975,-0.13255776464939117
1732873690870345500,5.139345458984375,-0.04948008432984352,0.8888089060783386,-0.0861319974064827
1732873690880375800,5.149375732421875,-0.005497787147760391,0.6255260109901428,-0.019547687843441963
1732873690890334700,5.159334716796875,0.031154127791523933,0.4184426963329315,0.02871066704392433
1732873690900364800,5.16936474609375,0.05864306539297104,0.2217440903186798,0.03237585723400116
1732873690910354200,5.179354248046875,0.09712757170200348,0.05375614017248154,-0.025656340643763542
1732873690920354300,5.189354248046875,0.10873401165008545,-0.19120082259178162,-0.17409659922122955
1732873690930343000,5.199343017578125,0.05925392732024193,-0.07635815441608429,-0.2577851414680481
1732873690940373500,5.20937353515625,-0.04886921867728233,0.1459967941045761,-0.2785545587539673
1732873690950332200,5.219332275390625,-0.1270599663257599,0.24678955972194672,-0.24984388053417206
1732873690960362500,5.229362548828125,-0.14355333149433136,0.35613444447517395,-0.15393804013729095
1732873690970351600,5.2393515625,-0.11056660860776901,0.4893030524253845,-0.013439035043120384
1732873690980381700,5.249381591796875,-0.05009094998240471,0.5778785347938538,0.10873401165008545
1732873690990340900,5.2593408203125,0.09896016865968704,0.5791002511978149,0.14844025671482086
1732873691000373200,5.269373291015625,0.22846360504627228,0.4990769028663635,0.08918632566928864
1732873691010360000,5.279360107421875,0.35185837745666504,0.37201693654060364,-0.02015855349600315
1732873691020360000,5.28935986328125,0.40622538328170776,0.19425514340400696,-0.13500121235847473
1732873691030349000,5.29934912109375,0.40133845806121826,-0.013439035043120384,-0.20830504596233368
1732873691040379600,5.309379638671875,0.3799581825733185,-0.19914206862449646,-0.24190263450145721
1732873691050338300,5.31933837890625,0.36651915311813354,-0.31459560990333557,-0.23029619455337524
1732873691060368600,5.32936865234375,0.37140607833862305,-0.30970868468284607,-0.14782938361167908
1732873691070357800,5.339357666015625,0.3830125033855438,-0.21930062770843506,-0.056810468435287476
1732873691080357400,5.349357421875,0.4086688458919525,-0.09040805697441101,0.05192354694008827
1732873691090375200,5.359375244140625,0.42149701714515686,0.0507018156349659,0.16432274878025055
1732873691100378600,5.369378662109375,0.42271876335144043,0.15271630883216858,0.25961771607398987
1732873691110335700,5.379335693359375,0.4239404797554016,0.2070833146572113,0.3017674386501312
1732873691120367600,5.38936767578125,0.4196644127368927,0.21807889640331268,0.2828305959701538
1732873691130355200,5.399355224609375,0.3927863538265228,0.17959438264369965,0.2223549485206604
1732873691140356400,5.4093564453125,0.3029891550540924,0.06536258012056351,0.08796459436416626
1732873691150344200,5.41934423828125,0.23396138846874237,-0.01160643994808197,0.004886921960860491
1732873691160374500,5.42937451171875,0.16982053220272064,-0.07757988572120667,-0.03298672288656235
1732873691170333400,5.43933349609375,0.13011430203914642,-0.12461651116609573,-0.01466076634824276
1732873691180363800,5.44936376953125,0.12095131725072861,-0.1514945775270462,0.05864306539297104
1732873691190353000,5.459352783203125,0.11911872029304504,-0.15882496535778046,0.17104226350784302
1732873691200352800,5.469352783203125,0.11301007121801376,-0.1612684279680252,0.2791654169559479
1732873691210342000,5.479341796875,0.09896016865968704,-0.16554448008537292,0.3530801236629486
1732873691220372200,5.489372314453125,0.08491026610136032,-0.15821409225463867,0.3396410644054413
1732873691230361300,5.499361328125,0.07452555745840073,-0.15027284622192383,0.2883284091949463
1732873691240361200,5.509361328125,0.06475171446800232,-0.14538592100143433,0.20952677726745605
1732873691250350300,5.519350341796875,0.04703662544488907,-0.15454891324043274,0.13011430203914642
1732873691260380400,5.52938037109375,0.027488935738801956,-0.17348572611808777,0.06169738993048668
1732873691270339600,5.539339599609375,0.00733038317412138,-0.1973094791173935,0.014049900695681572
1732873691280371000,5.549370849609375,-0.02076941914856434,-0.2382374405860901,-0.01160643994808197
1732873691290359000,5.559359130859375,-0.027488935738801956,-0.24068090319633484,-0.003054326167330146
1732873691300360000,5.56935986328125,-0.021380282938480377,-0.2767219543457031,0.018936822190880775
1732873691310348000,5.57934814453125,-0.015271631069481373,-0.30970868468284607,0.029932396486401558
1732873691320379600,5.589379638671875,-0.03848451003432274,-0.31093040108680725,0.039095375686883926
1732873691330337000,5.5993369140625,-0.07269296050071716,-0.2718350291252136,0.048258353024721146
1732873691340368600,5.60936865234375,-0.10873401165008545,-0.17287486791610718,0.05192354694008827
1732873691350356500,5.6193564453125,-0.1368338167667389,-0.02382374368607998,0.04459316283464432
1732873691360357600,5.629357666015625,-0.14355333149433136,0.22540926933288574,0.02626720629632473
1732873691370345500,5.639345458984375,-0.1319468915462494,0.32620203495025635,0.02015855349600315
1732873691380377000,5.649377197265625,-0.11178833991289139,0.31031954288482666,-0.009162978269159794
1732873691390334700,5.659334716796875,-0.11178833991289139,0.23090706765651703,-0.02382374368607998
1732873691400366300,5.669366455078125,-0.13316862285137177,0.13866640627384186,-0.019547687843441963
1732873691410354200,5.679354248046875,-0.16798794269561768,0.054367005825042725,-0.0006108652451075613
1732873691420355300,5.689355224609375,-0.22052235901355743,-0.04398229718208313,0.031154127791523933
1732873691430343200,5.69934326171875,-0.2742784917354584,-0.07757988572120667,0.07696902006864548
1732873691440375000,5.709375,-0.28527405858039856,-0.014049900695681572,0.11667526513338089
1732873691450332200,5.719332275390625,-0.2938261926174164,0.06536258012056351,0.1716531366109848
1732873691460364000,5.729364013671875,-0.251676470041275,0.1362229436635971,0.251676470041275
1732873691470351600,5.7393515625,-0.13500121235847473,0.26083946228027344,0.3433062732219696
1732873691480382000,5.7493818359375,-0.1319468915462494,0.33597588539123535,0.313373863697052
1732873691490340900,5.7593408203125,-0.3885102868080139,0.35246923565864563,0.10323622822761536
1732873691500371200,5.76937109375,-0.2272418737411499,0.2669481039047241,-0.23151792585849762
1732873691510360300,5.7793603515625,-0.03481931984424591,0.059864792972803116,-0.384845107793808
1732873691520360000,5.78935986328125,0.08307767659425735,-0.09773843735456467,-0.5070181488990784
1732873691530349000,5.79934912109375,0.15943582355976105,-0.19120082259178162,-0.6322455406188965
1732873691540379600,5.809379638671875,0.24190263450145721,-0.24556782841682434,-0.7342600226402283
1732873691550338300,5.81933837890625,0.3292563557624817,-0.29016098380088806,-0.7745771408081055
1732873691560368600,5.82936865234375,0.40194934606552124,-0.34758231043815613,-0.7745771408081055
1732873691570357800,5.839357666015625,0.4392121136188507,-0.3683517575263977,-0.7623597979545593
1732873691580359000,5.84935888671875,0.48747047781944275,-0.34147366881370544,-0.6475171446800232
1732873691590346000,5.859345947265625,0.5149593949317932,-0.3219259977340698,-0.5070181488990784
1732873691600377900,5.8693779296875,0.5381723046302795,-0.2767219543457031,-0.36651915311813354
1732873691610335200,5.879335205078125,0.5546656250953674,-0.2021963894367218,-0.22479841113090515
1732873691620367000,5.8893671875,0.5027421116828918,-0.11545353382825851,-0.08918632566928864
1732873691630355000,5.89935498046875,0.42699480056762695,-0.02687807008624077,0.039095375686883926
1732873691640355800,5.90935595703125,0.3878994286060333,0.025656340643763542,0.16920967400074005
1732873691650344000,5.919343994140625,0.3842342495918274,0.03787364438176155,0.3640756905078888
1732873691660375300,5.929375244140625,0.37751471996307373,0.06658431142568588,0.4489859640598297
1732873691670333200,5.939333251953125,0.3634648323059082,0.11423180252313614,0.48869219422340393
1732873691680364500,5.949364501953125,0.37201693654060364,0.21319197118282318,0.47708576917648315
1732873691690353000,5.959352783203125,0.4080579876899719,0.3445279896259308,0.4386012554168701
1732873691700354000,5.96935400390625,0.4300491213798523,0.48685958981513977,0.4001167416572571
1732873691710342000,5.979341796875,0.4392121136188507,0.6139195561408997,0.38240164518356323
1732873691720373500,5.98937353515625,0.45204028487205505,0.6524040699005127,0.39584067463874817
1732873691730361300,5.999361328125,0.4697553813457489,0.5949827432632446,0.4147774875164032
1732873691740362500,6.009362548828125,0.5064072608947754,0.4746423065662384,0.4300491213798523
1732873691750350300,6.019350341796875,0.5271766781806946,0.31642818450927734,0.4386012554168701
1732873691760382000,6.0293818359375,0.5057964324951172,0.1716531366109848,0.45265114307403564
1732873691770339300,6.03933935546875,0.4660901725292206,0.07880161702632904,0.45753806829452515
1732873691780371000,6.049370849609375,0.4502076804637909,0.045204028487205505,0.45631635189056396
1732873691790359000,6.059359130859375,0.45875978469848633,0.022602014243602753,0.44654250144958496
1732873691800360200,6.069360107421875,0.4709770977497101,0.06291911751031876,0.394008070230484
1732873691810348000,6.07934814453125,0.47769662737846375,0.20097467303276062,0.31581732630729675
1732873691820379600,6.089379638671875,0.47219884395599365,0.33475416898727417,0.21930062770843506
1732873691830337000,6.0993369140625,0.42699480056762695,0.3903428912162781,0.12461651116609573
1732873691840368600,6.10936865234375,0.3628539443016052,0.38667771220207214,0.031154127791523933
1732873691850356500,6.1193564453125,0.3170390725135803,0.3335324227809906,-0.04764748737215996
1732873691860356000,6.129356201171875,0.27977627515792847,0.21991148591041565,-0.12034045159816742
1732873691870345500,6.139345458984375,0.18081611394882202,-0.02076941914856434,-0.21013765037059784
1732873691880375800,6.149375732421875,0.04886921867728233,-0.2125810980796814,-0.22113321721553802
1732873691890334700,6.159334716796875,-0.10201449692249298,-0.4190535545349121,-0.14966198801994324
1732873691900364800,6.16936474609375,-0.2376265823841095,-0.607810914516449,0.005497787147760391
1732873691910354200,6.179354248046875,-0.34574973583221436,-0.7489207983016968,0.192422553896904
1732873691920354000,6.18935400390625,-0.40622538328170776,-0.7910705208778381,0.33597588539123535
1732873691930343000,6.199343017578125,-0.3952298164367676,-0.6548475623130798,0.35674530267715454
1732873691940375600,6.20937548828125,-0.27061331272125244,-0.1319468915462494,-0.03481931984424591
1732873691950332200,6.219332275390625,-0.22602014243602753,0.1667662113904953,-0.5424483418464661
1732873691960362500,6.229362548828125,-0.2370157092809677,0.23273965716362,-1.0512990951538086
1732873691970351600,6.2393515625,-0.27488934993743896,0.04764748737215996,-1.3848315477371216
1732873691980381700,6.249381591796875,-0.31642818450927734,-0.23273965716362,-1.4398094415664673
1732873691990340900,6.2593408203125,-0.41599923372268677,-0.484416127204895,-1.2040153741836548
1732873692000370700,6.26937060546875,-0.5314527750015259,-0.6059783101081848,-0.7715228199958801
1732873692010360000,6.279360107421875,-0.6023131608963013,-0.5516113042831421,-0.25106561183929443
1732873692020360200,6.289360107421875,-0.6090326309204102,-0.2981022298336029,0.47769662737846375
1732873692030349000,6.29934912109375,-0.5852088928222656,-0.1618792861700058,0.7715228199958801
1732873692040379600,6.309379638671875,-0.5583308339118958,-0.07147123664617538,0.8698720932006836
1732873692050338300,6.31933837890625,-0.5186246037483215,-0.02076941914856434,0.8454375267028809
1732873692060368600,6.32936865234375,-0.42271876335144043,0.018936822190880775,0.7770205736160278
1732873692070357800,6.339357666015625,-0.3341432809829712,-0.01771509274840355,0.6969972252845764
1732873692080357400,6.349357421875,-0.26450464129447937,-0.08796459436416626,0.5772676467895508
1732873692090346800,6.3593466796875,-0.20463985204696655,-0.12217304855585098,0.36224308609962463
1732873692100377900,6.3693779296875,-0.18387043476104736,-0.06536258012056351,0.2382374405860901
1732873692110335700,6.379335693359375,-0.1722639948129654,0.016493361443281174,0.1411098688840866
1732873692120367600,6.38936767578125,-0.16859880089759827,0.06841690838336945,0.05803219974040985
1732873692130355200,6.399355224609375,-0.1716531366109848,0.06414084881544113,-0.01710422709584236
1732873692140356400,6.4093564453125,-0.18020524084568024,0.015882495790719986,-0.10384709388017654
1732873692150344200,6.41934423828125,-0.18570303916931152,-0.05253441259264946,-0.19914206862449646
1732873692160374800,6.429374755859375,-0.1514945775270462,-0.13561208546161652,-0.30970868468284607
1732873692170333400,6.43933349609375,-0.12095131725072861,-0.16737708449363708,-0.32681289315223694
1732873692180363500,6.449363525390625,-0.10018189996480942,-0.18081611394882202,-0.30115658044815063
1732873692190353000,6.459352783203125,-0.08307767659425735,-0.16432274878025055,-0.2632829248905182
1732873692200352800,6.469352783203125,-0.07147123664617538,-0.12889257073402405,-0.22907446324825287
1732873692210342000,6.479341796875,-0.06963863968849182,-0.08674286305904388,-0.2015855312347412
1732873692220373500,6.48937353515625,-0.06719517707824707,-0.04337143152952194,-0.16310101747512817
1732873692230361300,6.499361328125,-0.06108652427792549,-0.012217304669320583,-0.09773843735456467
1732873692240362500,6.509362548828125,-0.06169738993048668,0.04642575979232788,0.07147123664617538
1732873692250350300,6.519350341796875,-0.056810468435287476,0.08857546001672745,0.20341812074184418
1732873692260382000,6.5293818359375,-0.04703662544488907,0.14049901068210602,0.3182607889175415
1732873692270339300,6.53933935546875,-0.03481931984424591,0.1814269721508026,0.38728857040405273
1732873692280370700,6.54937060546875,-0.015271631069481373,0.21074850857257843,0.40072759985923767
1732873692290359000,6.559359130859375,0.0006108652451075613,0.2174680233001709,0.3628539443016052
1732873692300358700,6.569358642578125,0.018936822190880775,0.20036379992961884,0.2834414839744568
1732873692310348000,6.57934814453125,0.0708603709936142,0.1472185254096985,0.12095131725072861
1732873692320378400,6.58937841796875,0.11972958594560623,0.06780604273080826,0.00733038317412138
1732873692330337000,6.5993369140625,0.14905111491680145,-0.06352998316287994,-0.07880161702632904
1732873692340368600,6.60936865234375,0.17348572611808777,-0.20341812074184418,-0.11545353382825851
1732873692350356500,6.6193564453125,0.1875356286764145,-0.34636059403419495,-0.0757472887635231
1732873692360357400,6.629357421875,0.1618792861700058,-0.48380526900291443,0.024434609338641167
1732873692370345500,6.639345458984375,0.10445795953273773,-0.5644394755363464,0.12522737681865692
1732873692380377000,6.649377197265625,0.024434609338641167,-0.5216789245605469,0.19975294172763824
1732873692390334700,6.659334716796875,0.00427605677396059,-0.39706242084503174,0.13011430203914642
1732873692400365600,6.669365478515625,0.00733038317412138,-0.27977627515792847,-0.05497787147760391
1732873692410354200,6.679354248046875,0.025045474991202354,-0.18448130786418915,-0.34147366881370544
1732873692420354300,6.689354248046875,0.07696902006864548,-0.09651670604944229,-0.6682865619659424
1732873692430343000,6.699343017578125,0.1417207419872284,-0.07880161702632904,-0.9633345007896423
1732873692440374500,6.70937451171875,0.1472185254096985,-0.1716531366109848,-1.1887437105178833
1732873692450332200,6.719332275390625,0.10445795953273773,-0.29504790902137756,-1.3335188627243042
1732873692460363500,6.729363525390625,-0.02015855349600315,-0.3597996234893799,-1.3848315477371216
1732873692470352000,6.739351806640625,-0.09224065393209457,-0.27977627515792847,-1.3396275043487549
1732873692480383200,6.74938330078125,-0.11056660860776901,-0.09285151958465576,-1.254717230796814
1732873692490340900,6.7593408203125,-0.08857546001672745,0.12339477986097336,-1.1343767642974854
1732873692500372200,6.769372314453125,-0.05925392732024193,0.29138273000717163,-0.9828822016716003
1732873692510360300,6.7793603515625,-0.033597588539123535,0.37140607833862305,-0.8124507665634155
1732873692520361500,6.789361572265625,-0.012828170321881771,0.3640756905078888,-0.6285803318023682
1732873692530349300,6.799349365234375,-0.0006108652451075613,0.19975294172763824,-0.31459560990333557
1732873692540379600,6.809379638671875,0.01710422709584236,0.02687807008624077,-0.08429940044879913
1732873692550338300,6.81933837890625,0.05253441259264946,-0.09957103431224823,0.12950342893600464
1732873692560369700,6.82936962890625,0.12889257073402405,-0.12278391420841217,0.2974913716316223
1732873692570358000,6.83935791015625,0.21319197118282318,-0.0354301854968071,0.42149701714515686
1732873692580358700,6.849358642578125,0.2871066629886627,0.14355333149433136,0.5064072608947754
1732873692590346000,6.859345947265625,0.3500257730484009,0.3689626157283783,0.5656611919403076
1732873692600377900,6.8693779296875,0.3695734739303589,0.607200026512146,0.6939429044723511
1732873692610335200,6.879335205078125,0.35613444447517395,0.6627888083457947,0.769079327583313
1732873692620366600,6.88936669921875,0.34025195240974426,0.6261368989944458,0.8234463334083557
1732873692630355000,6.89935498046875,0.3121521472930908,0.49235737323760986,0.8338310718536377
1732873692640355600,6.90935546875,0.28099802136421204,0.3274237811565399,0.7812966704368591
1732873692650344000,6.919343994140625,0.28649580478668213,0.17409659922122955,0.6908885836601257
1732873692660374000,6.9293740234375,0.3384193480014801,0.08918632566928864,0.6120869517326355
1732873692670333200,6.939333251953125,0.42149701714515686,0.08918632566928864,0.5772676467895508
1732873692680364500,6.949364501953125,0.5271766781806946,0.1313360333442688,0.6139195561408997
1732873692690353000,6.959352783203125,0.5754350423812866,0.19486601650714874,0.6609562039375305
1732873692700353800,6.969353759765625,0.6102544069290161,0.27000242471694946,0.7153232097625732
1732873692710342000,6.979341796875,0.6548475623130798,0.3836233615875244,0.7397578358650208
1732873692720373500,6.98937353515625,0.7018841505050659,0.5064072608947754,0.7324274182319641
1732873692730361300,6.999361328125,0.7195992469787598,0.5393940210342407,0.685390830039978
1732873692740361700,7.00936181640625,0.7110471725463867,0.47219884395599365,0.5723807215690613
1732873692750350300,7.019350341796875,0.6811147332191467,0.23579397797584534,0.3023782968521118
1732873692760381700,7.029381591796875,0.6688974499702454,0.042760565876960754,0.06169738993048668
1732873692770339300,7.03933935546875,0.6841690540313721,-0.08857546001672745,-0.19853121042251587
1732873692780371200,7.04937109375,0.6933320760726929,-0.17409659922122955,-0.413555771112442
1732873692790359000,7.059359130859375,0.6719517707824707,-0.19303341209888458,-0.5619960427284241
1732873692800359000,7.06935888671875,0.6017022728919983,-0.07941248267889023,-0.6334672570228577
1732873692810348000,7.07934814453125,0.47708576917648315,0.11789698898792267,-0.6090326309204102
1732873692820379600,7.089379638671875,0.32498031854629517,0.45692721009254456,-0.3433062732219696
1732873692830337000,7.0993369140625,0.27977627515792847,0.5754350423812866,-0.03298672288656235
1732873692840368600,7.10936865234375,0.2278527319431305,0.6133087277412415,0.2675589919090271
1732873692850356500,7.1193564453125,0.17470745742321014,0.5803219676017761,0.4954117238521576
1732873692860357600,7.129357666015625,0.15577064454555511,0.45326200127601624,0.6157521605491638
1732873692870345500,7.139345458984375,0.17592918872833252,0.19608774781227112,0.6236934065818787
1732873692880377000,7.149377197265625,0.22540926933288574,-0.12950342893600464,0.5534439086914062
1732873692890334700,7.159334716796875,0.3139847218990326,-0.4050036668777466,0.44715335965156555
1732873692900366000,7.169365966796875,0.4050036668777466,-0.6957755088806152,0.3072652220726013
1732873692910354200,7.179354248046875,0.4282165467739105,-0.759916365146637,0.21624629199504852
1732873692920355300,7.189355224609375,0.4337143301963806,-0.7318165898323059,0.11545353382825851
1732873692930343000,7.199343017578125,0.3885102868080139,-0.5931501388549805,0.0354301854968071
1732873692940374800,7.209374755859375,0.28466320037841797,-0.42149701714515686,-0.056810468435287476
1732873692950332200,7.219332275390625,0.1319468915462494,-0.27611109614372253,-0.17348572611808777
1732873692960363500,7.229363525390625,-0.039095375686883926,-0.18997909128665924,-0.30604347586631775
1732873692970351600,7.2393515625,-0.18387043476104736,-0.20830504596233368,-0.42577308416366577
1732873692980382000,7.2493818359375,-0.20952677726745605,-0.3830125033855438,-0.39156460762023926
1732873692990340900,7.2593408203125,-0.2119702398777008,-0.5656611919403076,-0.3176499307155609
1732873693000371000,7.269370849609375,-0.23335053026676178,-0.7079927921295166,-0.23396138846874237
1732873693010360000,7.279360107421875,-0.3182607889175415,-0.8643743395805359,-0.18570303916931152
1732873693020360700,7.289360595703125,-0.3836233615875244,-0.9633345007896423,-0.15821409225463867
1732873693030349000,7.29934912109375,-0.3738495409488678,-0.9279043078422546,-0.14416420459747314
1732873693040380200,7.309380126953125,-0.3439171314239502,-0.7092145681381226,-0.16371189057826996
1732873693050338300,7.31933837890625,-0.35246923565864563,-0.5265658497810364,-0.13744467496871948
1732873693060369200,7.329369140625,-0.3738495409488678,-0.31581732630729675,-0.06658431142568588
1732873693070357800,7.339357666015625,-0.394008070230484,-0.07330382615327835,-0.006719517521560192
1732873693080357600,7.349357666015625,-0.4147774875164032,0.11239920556545258,0.015271631069481373
1732873693090377200,7.359377197265625,-0.46792277693748474,0.15271630883216858,-0.016493361443281174
1732873693100377300,7.36937744140625,-0.5351179838180542,0.14538592100143433,-0.11484266817569733
1732873693110335700,7.379335693359375,-0.5925393104553223,0.10262536257505417,-0.1661553531885147
1732873693120366300,7.389366455078125,-0.578489363193512,-0.027488935738801956,-0.10262536257505417
1732873693130355200,7.399355224609375,-0.4648684561252594,-0.08918632566928864,0
1732873693140355300,7.409355224609375,-0.3738495409488678,-0.18081611394882202,0.15454891324043274
1732873693150344200,7.41934423828125,-0.34086281061172485,-0.24923302233219147,0.3182607889175415
1732873693160375800,7.429375732421875,-0.3396410644054413,-0.21807889640331268,0.4789183437824249
1732873693170333400,7.43933349609375,-0.35246923565864563,-0.12950342893600464,0.6151412725448608
1732873693180364300,7.4493642578125,-0.3640756905078888,-0.03726277872920036,0.6982190012931824
1732873693190353000,7.459352783203125,-0.3927863538265228,0.039706241339445114,0.6939429044723511
1732873693200353500,7.469353515625,-0.41111230850219727,0.06719517707824707,0.6206390857696533
1732873693210342000,7.479341796875,-0.42638394236564636,0.08124507963657379,0.5216789245605469
1732873693220372200,7.489372314453125,-0.4404338300228119,0.06352998316287994,0.39767327904701233
1732873693230361300,7.499361328125,-0.43676865100860596,0.02932153269648552,0.25106561183929443
1732873693240361500,7.509361572265625,-0.4043927788734436,-0.00427605677396059,0.12339477986097336
1732873693250350300,7.519350341796875,-0.3579670190811157,-0.06841690838336945,0.039095375686883926
1732873693260381000,7.529380859375,-0.28649580478668213,-0.16554448008537292,-0.059864792972803116
1732873693270339600,7.539339599609375,-0.27000242471694946,-0.21868975460529327,-0.06169738993048668
1732873693280371000,7.549370849609375,-0.27977627515792847,-0.2376265823841095,-0.036041051149368286
1732873693290359000,7.559359130859375,-0.3078760802745819,-0.22357667982578278,0.01038470957428217
1732873693300360200,7.569360107421875,-0.32620203495025635,-0.17043140530586243,0.05925392732024193
1732873693310348000,7.57934814453125,-0.3378084897994995,-0.1111774742603302,0.11239920556545258
1732873693320379100,7.589379150390625,-0.3439171314239502,-0.06230825558304787,0.1612684279680252
1732873693330337000,7.5993369140625,-0.33597588539123535,-0.02076941914856434,0.18509216606616974
1732873693340368100,7.6093681640625,-0.3182607889175415,-0.02626720629632473,0.18448130786418915
1732873693350356700,7.619356689453125,-0.31642818450927734,-0.08124507963657379,0.182648703455925
1732873693360357000,7.629357177734375,-0.31581732630729675,-0.16859880089759827,0.17409659922122955
1732873693370345700,7.639345703125,-0.31581732630729675,-0.2583959996700287,0.1612684279680252
1732873693380376600,7.64937646484375,-0.32070425152778625,-0.36163222789764404,0.15760323405265808
1732873693390334700,7.659334716796875,-0.33108896017074585,-0.44165557622909546,0.15821409225463867
1732873693400366000,7.669365966796875,-0.32681289315223694,-0.45692721009254456,0.15821409225463867
1732873693410354200,7.679354248046875,-0.31459560990333557,-0.38179078698158264,0.14477506279945374
1732873693420355300,7.689355224609375,-0.3023782968521118,-0.3090978264808655,0.08124507963657379
1732873693430343200,7.69934326171875,-0.30054569244384766,-0.23029619455337524,-0.0354301854968071
1732873693440375000,7.709375,-0.3072652220726013,-0.15760323405265808,-0.17409659922122955
1732873693450332200,7.719332275390625,-0.30604347586631775,-0.09773843735456467,-0.31093040108680725
1732873693460363800,7.72936376953125,-0.3072652220726013,-0.05497787147760391,-0.4043927788734436
1732873693470352000,7.739351806640625,-0.2974913716316223,-0.0354301854968071,-0.43127086758613586
1732873693480382200,7.74938232421875,-0.29077184200286865,-0.06902777403593063,-0.3805690407752991
1732873693490340900,7.7593408203125,-0.2968805134296417,-0.10262536257505417,-0.3787364661693573
1732873693500371700,7.769371826171875,-0.29077184200286865,-0.12767083942890167,-0.4392121136188507
1732873693510360300,7.7793603515625,-0.2718350291252136,-0.09040805697441101,-0.5687155723571777
1732873693520360400,7.7893603515625,-0.25045475363731384,0.006719517521560192,-0.7538077235221863
1732873693530349300,7.799349365234375,-0.2321287989616394,0.0806342139840126,-0.912021815776825
1732873693540381000,7.809380859375,-0.2223549485206604,0.09957103431224823,-0.9999864101409912
1732873693550338300,7.81933837890625,-0.182648703455925,0.1215621829032898,-0.9859365224838257
1732873693560370000,7.829369873046875,-0.1014036312699318,0.031154127791523933,-0.6389650702476501
1732873693570357800,7.839357666015625,-0.05375614017248154,-0.03298672288656235,-0.27122417092323303
1732873693580359000,7.84935888671875,0.0012217304902151227,-0.028099801391363144,0.09896016865968704
1732873693590346000,7.859345947265625,0.05742133408784866,-0.012828170321881771,0.3952298164367676
1732873693600377300,7.86937744140625,0.1062905490398407,0.001832595793530345,0.5827654600143433
1732873693610335500,7.87933544921875,0.16859880089759827,0.02626720629632473,0.675616979598999
1732873693620366300,7.889366455078125,0.23884831368923187,0.02932153269648552,0.7195992469787598
1732873693630355000,7.89935498046875,0.2932153046131134,-0.009162978269159794,0.7012733221054077
1732873693640355300,7.909355224609375,0.32620203495025635,-0.016493361443281174,0.6230825781822205
1732873693650344000,7.919343994140625,0.35674530267715454,-0.030543262138962746,0.5180137157440186
1732873693660374800,7.929374755859375,0.36713001132011414,-0.05375614017248154,0.3995058834552765
1732873693670333000,7.9393330078125,0.35246923565864563,-0.06841690838336945,0.29626965522766113
1732873693680363800,7.94936376953125,0.32498031854629517,-0.07391469180583954,0.24373523890972137
1732873693690353000,7.959352783203125,0.29993483424186707,-0.07941248267889023,0.23335053026676178
1732873693700353000,7.96935302734375,0.30604347586631775,-0.06963863968849182,0.20463985204696655
1732873693710342000,7.979341796875,0.3378084897994995,-0.09346238523721695,0.19058994948863983
1732873693720372700,7.989372802734375,0.38117989897727966,-0.14049901068210602,0.15027284622192383
1732873693730361300,7.999361328125,0.4331034719944,-0.17531833052635193,0.051312681287527084
1732873693740361700,8.00936181640625,0.4856378734111786,-0.2431243658065796,-0.05192354694008827
1732873693750350600,8.0193505859375,0.5259549617767334,-0.32620203495025635,-0.11545353382825851
1732873693760382000,8.0293818359375,0.5387831330299377,-0.3677408695220947,-0.11972958594560623
1732873693770339600,8.039339599609375,0.523511528968811,-0.36224308609962463,-0.05742133408784866
1732873693780369700,8.04936962890625,0.455705463886261,-0.3323107063770294,0.08857546001672745
1732873693790359000,8.059359130859375,0.4153883755207062,-0.29016098380088806,0.19120082259178162
1732873693800359000,8.06935888671875,0.3885102868080139,-0.23396138846874237,0.2675589919090271
1732873693810348000,8.07934814453125,0.37262779474258423,-0.19120082259178162,0.3066543638706207
1732873693820379000,8.08937890625,0.37140607833862305,-0.16371189057826996,0.3017674386501312
1732873693830337000,8.0993369140625,0.3799581825733185,-0.12400564551353455,0.28588494658470154
1732873693840368600,8.10936865234375,0.40072759985923767,-0.0861319974064827,0.2736676335334778
1732873693850356500,8.1193564453125,0.46792277693748474,-0.039706241339445114,0.24007004499435425
1732873693860357600,8.129357666015625,0.5149593949317932,-0.01466076634824276,0.2272418737411499
1732873693870345700,8.139345703125,0.5473352670669556,0.006108652334660292,0.2174680233001709
1732873693880377000,8.149377197265625,0.5534439086914062,-0.0012217304902151227,0.19120082259178162
1732873693890334700,8.159334716796875,0.5400048494338989,-0.04398229718208313,0.15027284622192383
1732873693900365600,8.169365478515624,0.5241223573684692,-0.11911872029304504,0.09529497474431992
1732873693910354200,8.179354248046875,0.5180137157440186,-0.22113321721553802,0.02871066704392433
1732873693920354600,8.1893544921875,0.5064072608947754,-0.3732386529445648,-0.08307767659425735
1732873693930343200,8.19934326171875,0.4746423065662384,-0.44104471802711487,-0.1814269721508026
1732873693940374800,8.209374755859375,0.43188172578811646,-0.46792277693748474,-0.2877175211906433
1732873693950332200,8.219332275390625,0.37568211555480957,-0.4495968222618103,-0.37690386176109314
1732873693960363500,8.229363525390625,0.3078760802745819,-0.4105014503002167,-0.43737950921058655
1732873693970351600,8.2393515625,0.23457226157188416,-0.36529740691185,-0.46792277693748474
1732873693980382500,8.249382568359374,0.152105450630188,-0.3176499307155609,-0.48197266459465027
1732873693990340900,8.2593408203125,0.07391469180583954,-0.24556782841682434,-0.48319441080093384
1732873694000371700,8.269371826171875,-0.0024434609804302454,-0.09040805697441101,-0.503963828086853
1732873694010360300,8.2793603515625,-0.03298672288656235,0.0024434609804302454,-0.5522221922874451
1732873694020360700,8.289360595703124,-0.05619960278272629,0.08002334833145142,-0.6200281977653503
1732873694030349000,8.29934912109375,-0.09407325088977814,0.11850785464048386,-0.6792821288108826
1732873694040380700,8.309380615234375,-0.1569923609495163,0.1007927656173706,-0.7153232097625732
1732873694050338300,8.31933837890625,-0.22602014243602753,0.05192354694008827,-0.694553792476654
1732873694060369700,8.32936962890625,-0.2767219543457031,-0.006108652334660292,-0.5900958180427551
1732873694070357800,8.339357666015625,-0.31459560990333557,-0.01771509274840355,-0.28099802136421204
1732873694080359000,8.34935888671875,-0.33047810196876526,0.0354301854968071,-0.01710422709584236
1732873694090346800,8.3593466796875,-0.34147366881370544,0.10323622822761536,0.252287358045578
1732873694100377900,8.3693779296875,-0.35063666105270386,0.15332718193531036,0.46792277693748474
1732873694110335700,8.379335693359375,-0.34208452701568604,0.19364428520202637,0.627358615398407
1732873694120366800,8.389366943359375,-0.30970868468284607,0.23945917189121246,0.7122688889503479
1732873694130355200,8.399355224609375,-0.26572638750076294,0.2638937830924988,0.7257078886032104
1732873694140355800,8.40935595703125,-0.2223549485206604,0.22663100063800812,0.6279694437980652
1732873694150344400,8.419344482421875,-0.2223549485206604,0.1411098688840866,0.5076290369033813
1732873694160375300,8.429375244140624,-0.24007004499435425,0.015271631069481373,0.3842342495918274
1732873694170333400,8.43933349609375,-0.26633724570274353,-0.09162978827953339,0.2932153046131134
1732873694180365000,8.449364990234375,-0.29077184200286865,-0.1258382350206375,0.2565633952617645
1732873694190353000,8.459352783203125,-0.3084869384765625,-0.10384709388017654,0.2681698501110077
1732873694200354000,8.46935400390625,-0.3219259977340698,-0.04948008432984352,0.3072652220726013
1732873694210342000,8.479341796875,-0.32009339332580566,0.006108652334660292,0.3481931984424591
1732873694220372700,8.489372802734374,-0.3127630054950714,0.05864306539297104,0.36529740691185
1732873694230361300,8.499361328125,-0.30970868468284607,0.048258353024721146,0.3439171314239502
1732873694240361700,8.50936181640625,-0.3084869384765625,0.010995574295520782,0.29504790902137756
1732873694250350300,8.519350341796875,-0.31581732630729675,-0.0403171069920063,0.2272418737411499
1732873694260381400,8.52938134765625,-0.33108896017074585,-0.08246681094169617,0.16249015927314758
1732873694270339600,8.539339599609375,-0.3390302062034607,-0.1160643994808197,0.1014036312699318
1732873694280370400,8.549370361328124,-0.34574973583221436,-0.14477506279945374,0.06108652427792549
1732873694290359000,8.559359130859375,-0.3494149148464203,-0.17409659922122955,0.05619960278272629
1732873694300360200,8.569360107421875,-0.35063666105270386,-0.15943582355976105,0.0806342139840126
1732873694310348000,8.57934814453125,-0.36102136969566345,-0.13072516024112701,0.10262536257505417
1732873694320379000,8.58937890625,-0.375071257352829,-0.10506882518529892,0.11911872029304504
1732873694330337000,8.5993369140625,-0.384845107793808,-0.07941248267889023,0.12828169763088226
1732873694340369000,8.609368896484375,-0.39095374941825867,-0.06963863968849182,0.12461651116609573
1732873694350356500,8.6193564453125,-0.3952298164367676,-0.09896016865968704,0.1062905490398407
1732873694360357600,8.629357666015625,-0.3885102868080139,-0.20830504596233368,0.04948008432984352
1732873694370345700,8.639345703125,-0.38728857040405273,-0.3017674386501312,0.012217304669320583
1732873694380376800,8.649376953125,-0.37140607833862305,-0.38667771220207214,-0.04092797264456749
1732873694390334700,8.659334716796875,-0.33719760179519653,-0.4153883755207062,-0.13072516024112701
1732873694400365600,8.669365478515624,-0.2974913716316223,-0.3891211748123169,-0.2590068578720093
1732873694410354200,8.679354248046875,-0.2480112910270691,-0.3176499307155609,-0.4355469346046448
1732873694420354600,8.6893544921875,-0.20402899384498596,-0.21319197118282318,-0.6572909951210022
1732873694430343200,8.69934326171875,-0.17287486791610718,-0.11850785464048386,-0.8814785480499268
1732873694440374500,8.70937451171875,-0.16065755486488342,-0.06780604273080826,-1.076344609260559
1732873694450332200,8.719332275390625,-0.17409659922122955,-0.06963863968849182,-1.0793988704681396
1732873694460363500,8.729363525390625,-0.17043140530586243,-0.10018189996480942,-0.9859365224838257
1732873694470352000,8.739351806640625,-0.15760323405265808,-0.15271630883216858,-0.8484918475151062
1732873694480382700,8.7493828125,-0.14966198801994324,-0.21135938167572021,-0.7159340381622314
1732873694490340900,8.7593408203125,-0.1368338167667389,-0.22113321721553802,-0.6334672570228577
1732873694500371700,8.769371826171875,-0.11545353382825851,-0.1814269721508026,-0.6298020482063293
1732873694510360300,8.7793603515625,-0.07819075137376785,-0.12278391420841217,-0.7367035150527954
1732873694520361000,8.78936083984375,-0.045204028487205505,-0.08491026610136032,-0.8570439219474792
1732873694530349300,8.799349365234375,-0.012217304669320583,-0.039706241339445114,-0.988379955291748
1732873694540381000,8.809380859375,0.006108652334660292,0.006108652334660292,-1.0922271013259888
1732873694550338300,8.81933837890625,0.024434609338641167,0.01771509274840355,-1.141707181930542
1732873694560369700,8.82936962890625,0.04642575979232788,-0.01466076634824276,-1.1087204217910767
1732873694570357800,8.839357666015625,0.09285151958465576,-0.08552113175392151,-0.9847147464752197
1732873694580359000,8.84935888671875,0.14538592100143433,-0.19486601650714874,-0.6334672570228577
1732873694590346000,8.859345947265625,0.16554448008537292,-0.2064724564552307,-0.33719760179519653
1732873694600377900,8.8693779296875,0.18448130786418915,-0.1612684279680252,-0.07024950534105301
1732873694610335200,8.879335205078124,0.19975294172763824,-0.08857546001672745,0.13439035415649414
1732873694620366300,8.889366455078125,0.21807889640331268,-0.021380282938480377,0.2632829248905182
1732873694630355000,8.89935498046875,0.2382374405860901,0.048258353024721146,0.3225368559360504
1732873694640355300,8.909355224609374,0.2565633952617645,0.10873401165008545,0.34147366881370544
1732873694650344000,8.919343994140625,0.2669481039047241,0.11972958594560623,0.3396410644054413
1732873694660375300,8.929375244140624,0.28466320037841797,0.07696902006864548,0.35185837745666504
1732873694670333000,8.9393330078125,0.3017674386501312,0.004886921960860491,0.3842342495918274
1732873694680364500,8.949364501953125,0.32009339332580566,-0.056810468435287476,0.4251621961593628
1732873694690353000,8.959352783203125,0.34086281061172485,-0.09773843735456467,0.4660901725292206
1732873694700353800,8.969353759765625,0.3634648323059082,-0.1264491081237793,0.494189977645874
1732873694710342000,8.979341796875,0.38606682419776917,-0.1362229436635971,0.4954117238521576
1732873694720373500,8.98937353515625,0.4153883755207062,-0.10812314599752426,0.4660901725292206
1732873694730361300,8.999361328125,0.4544837474822998,-0.003054326167330146,0.39767327904701233
1732873694740362500,9.009362548828125,0.47342056035995483,0.07819075137376785,0.33108896017074585
1732873694750350300,9.019350341796875,0.4948008358478546,0.1417207419872284,0.2681698501110077
1732873694760382000,9.0293818359375,0.5180137157440186,0.17776179313659668,0.2321287989616394
1732873694770339600,9.039339599609375,0.5290092825889587,0.17409659922122955,0.2217440903186798
1732873694780371000,9.049370849609375,0.5259549617767334,0.1368338167667389,0.24068090319633484
1732873694790359000,9.059359130859375,0.5161811113357544,0.07635815441608429,0.2834414839744568
1732873694800360200,9.069360107421875,0.5161811113357544,0.006719517521560192,0.3952298164367676
1732873694810348000,9.07934814453125,0.5308418869972229,0.01771509274840355,0.4746423065662384
1732873694820379400,9.08937939453125,0.5528330206871033,0.08124507963657379,0.5351179838180542
1732873694830337000,9.0993369140625,0.5864306092262268,0.1869247704744339,0.5729916095733643
1732873694840368400,9.109368408203125,0.6224716901779175,0.294437050819397,0.5803219676017761
1732873694850356500,9.1193564453125,0.6511823534965515,0.3732386529445648,0.5687155723571777
1732873694860357600,9.129357666015625,0.6737843751907349,0.43127086758613586,0.5497786998748779
1732873694870345700,9.139345703125,0.6902777552604675,0.4960225820541382,0.543059229850769
1732873694880377000,9.149377197265625,0.6878342628479004,0.5070181488990784,0.5375614166259766
1732873694890334700,9.159334716796875,0.6786713004112244,0.5119050741195679,0.5271766781806946
1732873694900366000,9.169365966796875,0.6860016584396362,0.5064072608947754,0.5222898125648499
1732873694910354200,9.179354248046875,0.6921103000640869,0.4795292317867279,0.5271766781806946
1732873694920355300,9.189355224609375,0.6976081132888794,0.40256020426750183,0.5528330206871033
1732873694930343200,9.19934326171875,0.7012733221054077,0.2883284091949463,0.6096435189247131
1732873694940373500,9.20937353515625,0.6933320760726929,0.17348572611808777,0.6615670323371887
1732873694950332200,9.219332275390625,0.6676757335662842,0.04581489413976669,0.6994407176971436
1732873694960362500,9.229362548828124,0.6432411074638367,0.021380282938480377,0.6811147332191467
1732873694970351600,9.2393515625,0.6145304441452026,0.04642575979232788,0.6145304441452026
1732873694980384300,9.24938427734375,0.5760459303855896,0.1160643994808197,0.4960225820541382
1732873694990340600,9.259340576171875,0.5088507533073425,0.19547687470912933,0.3384193480014801
1732873695000371200,9.26937109375,0.43615779280662537,0.24556782841682434,0.1508837193250656
1732873695010360000,9.279360107421875,0.3628539443016052,0.2376265823841095,-0.05864306539297104
1732873695020360200,9.289360107421874,0.23579397797584534,0.1411098688840866,-0.3683517575263977
1732873695030349000,9.29934912109375,0.13011430203914642,0.05803219974040985,-0.5601634383201599
1732873695040379400,9.30937939453125,-0.0006108652451075613,0.0012217304902151227,-0.7073819637298584
1732873695050338300,9.31933837890625,-0.12828169763088226,-0.003054326167330146,-0.8026769161224365
1732873695060369400,9.329369384765625,-0.2382374405860901,0.042760565876960754,-0.8539896011352539
1732873695070357800,9.339357666015625,-0.323147714138031,0.11545353382825851,-0.8802568316459656
1732873695080358400,9.3493583984375,-0.384845107793808,0.16554448008537292,-0.8833111524581909
1732873695090375200,9.359375244140624,-0.4398229718208313,0.1472185254096985,-0.816726803779602
1732873695100377300,9.36937744140625,-0.46303585171699524,0.1014036312699318,-0.7305948138237
1732873695110335700,9.379335693359375,-0.4789183437824249,0.0708603709936142,-0.5943718552589417
1732873695120366600,9.38936669921875,-0.5076290369033813,0.10751228034496307,-0.4105014503002167
1732873695130355200,9.399355224609375,-0.5546656250953674,0.16432274878025055,-0.21991148591041565
1732873695140355800,9.40935595703125,-0.598647952079773,0.2064724564552307,-0.06475171446800232
1732873695150344400,9.419344482421875,-0.6120869517326355,0.22540926933288574,0.036041051149368286
1732873695160374800,9.429374755859374,-0.5870414972305298,0.23090706765651703,0.07513642311096191
1732873695170333400,9.43933349609375,-0.5064072608947754,0.23884831368923187,0.1007927656173706
1732873695180364000,9.449364013671875,-0.4612032473087311,0.2565633952617645,0.18631389737129211
1732873695190353000,9.459352783203125,-0.4105014503002167,0.2718350291252136,0.30970868468284607
1732873695200352800,9.469352783203124,-0.3439171314239502,0.2541199326515198,0.43127086758613586
1732873695210342000,9.479341796875,-0.2828305959701538,0.20952677726745605,0.5308418869972229
1732873695220372200,9.489372314453124,-0.23884831368923187,0.14966198801994324,0.5919284224510193
1732873695230361300,9.499361328125,-0.22113321721553802,0.09407325088977814,0.5913175344467163
1732873695240361700,9.50936181640625,-0.21563543379306793,0.03237585723400116,0.5308418869972229
1732873695250350300,9.519350341796875,-0.23884831368923187,0.012828170321881771,0.44287729263305664
1732873695260381400,9.52938134765625,-0.27488934993743896,0.003054326167330146,0.34147366881370544
1732873695270339600,9.539339599609375,-0.31459560990333557,-0.012217304669320583,0.24373523890972137
1732873695280370400,9.549370361328124,-0.35674530267715454,-0.039706241339445114,0.15393804013729095
1732873695290359000,9.559359130859375,-0.38667771220207214,-0.07513642311096191,0.08674286305904388
1732873695300360200,9.569360107421875,-0.40622538328170776,-0.10201449692249298,0.04703662544488907
1732873695310348000,9.57934814453125,-0.40744712948799133,-0.12217304855585098,0.01710422709584236
1732873695320379600,9.589379638671875,-0.39706242084503174,-0.11911872029304504,-0.009773843921720982
1732873695330337000,9.5993369140625,-0.39584067463874817,-0.10201449692249298,-0.05803219974040985
1732873695340369000,9.609368896484375,-0.4098905920982361,-0.09712757170200348,-0.1264491081237793
1732873695350356500,9.6193564453125,-0.43676865100860596,-0.11362093687057495,-0.1875356286764145
1732873695360356900,9.62935693359375,-0.46547931432724,-0.12950342893600464,-0.22357667982578278
1732873695370345700,9.639345703125,-0.4917465150356293,-0.13439035415649414,-0.23151792585849762
1732873695380376600,9.64937646484375,-0.5198463201522827,-0.13927727937698364,-0.21807889640331268
1732873695390334700,9.659334716796875,-0.5546656250953674,-0.1875356286764145,-0.1875356286764145
1732873695400365600,9.669365478515624,-0.5748242139816284,-0.2541199326515198,-0.17104226350784302
1732873695410354200,9.679354248046875,-0.5968153476715088,-0.3500257730484009,-0.15393804013729095
1732873695420354600,9.6893544921875,-0.6010913848876953,-0.4489859640598297,-0.13561208546161652
1732873695430343200,9.69934326171875,-0.5925393104553223,-0.5375614166259766,-0.12950342893600464
1732873695440375000,9.709375,-0.5766568183898926,-0.6304129362106323,-0.1472185254096985
1732873695450332200,9.719332275390625,-0.5552765130996704,-0.6860016584396362,-0.18448130786418915
1732873695460363500,9.729363525390625,-0.5070181488990784,-0.6438519954681396,-0.27977627515792847
1732873695470352000,9.739351806640625,-0.48319441080093384,-0.5314527750015259,-0.3579670190811157
1732873695480383200,9.74938330078125,-0.45204028487205505,-0.35552358627319336,-0.44165557622909546
1732873695490340900,9.7593408203125,-0.4239404797554016,-0.18509216606616974,-0.523511528968811
1732873695500372200,9.769372314453125,-0.39706242084503174,-0.10506882518529892,-0.5815436840057373
1732873695510360300,9.7793603515625,-0.3591887652873993,-0.10690141469240189,-0.5919284224510193
1732873695520361500,9.789361572265625,-0.3072652220726013,-0.1771509200334549,-0.5644394755363464
1732873695530349300,9.799349365234375,-0.19975294172763824,-0.3188716471195221,-0.4948008358478546
1732873695540379600,9.809379638671874,-0.08796459436416626,-0.3591887652873993,-0.5064072608947754
1732873695550338300,9.81933837890625,0.030543262138962746,-0.3640756905078888,-0.617584764957428
1732873695560369700,9.82936962890625,0.11545353382825851,-0.35124751925468445,-0.8057312369346619
1732873695570357800,9.839357666015625,0.17898350954055786,-0.3029891550540924,-1.0134254693984985
1732873695580359000,9.84935888671875,0.23151792585849762,-0.24434609711170197,-1.1716395616531372
1732873695590346000,9.859345947265625,0.26939156651496887,-0.21013765037059784,-1.205847978591919
1732873695600377900,9.8693779296875,0.2590068578720093,-0.21868975460529327,-1.0659598112106323
1732873695610335200,9.879335205078124,0.24068090319633484,-0.2174680233001709,-0.5448917746543884
1732873695620366600,9.88936669921875,0.2565633952617645,-0.16859880089759827,-0.16493362188339233
1732873695630355000,9.89935498046875,0.27000242471694946,-0.08674286305904388,0.1264491081237793
1732873695640355300,9.909355224609374,0.2681698501110077,0.007941247895359993,0.3029891550540924
1732873695650344000,9.919343994140625,0.2669481039047241,0.10018189996480942,0.37690386176109314
1732873695660374500,9.92937451171875,0.2736676335334778,0.16554448008537292,0.3738495409488678
1732873695670333000,9.9393330078125,0.2993239760398865,0.17531833052635193,0.3536909818649292
1732873695680364500,9.949364501953125,0.3445279896259308,0.12278391420841217,0.3933972120285034
1732873695690353000,9.959352783203125,0.36224308609962463,0.07635815441608429,0.4758640229701996
1732873695700354000,9.96935400390625,0.3646865487098694,0.030543262138962746,0.5833762884140015
1732873695710342000,9.979341796875,0.3634648323059082,0.012217304669320583,0.7024950385093689
1732873695720373500,9.98937353515625,0.35613444447517395,0.036041051149368286,0.8252789378166199
1732873695730361300,9.999361328125,0.3445279896259308,0.08429940044879913,0.9224064946174622
1732873695740362500,10.009362548828125,0.3280346393585205,0.1466076523065567,0.9755517840385437
1732873695750350300,10.019350341796875,0.3323107063770294,0.22296582162380219,0.9615018963813782
1732873695760381700,10.029381591796875,0.36102136969566345,0.26145032048225403,0.9046914577484131
1732873695770339600,10.039339599609375,0.3952298164367676,0.28588494658470154,0.8332201838493347
1732873695780371000,10.049370849609375,0.43127086758613586,0.29077184200286865,0.750142514705658
1732873695790359000,10.059359130859375,0.45326200127601624,0.2718350291252136,0.6591235995292664
1732873695800360200,10.069360107421875,0.45753806829452515,0.23518311977386475,0.5687155723571777
1732873695810348000,10.07934814453125,0.4550946056842804,0.20036379992961884,0.4862487316131592
1732873695820379600,10.089379638671875,0.4599815309047699,0.19303341209888458,0.42149701714515686
1732873695830337000,10.0993369140625,0.46853363513946533,0.24373523890972137,0.3854559659957886
1732873695840369000,10.109368896484375,0.475253164768219,0.29138273000717163,0.37751471996307373
1732873695850356500,10.1193564453125,0.4856378734111786,0.33658674359321594,0.36713001132011414
1732873695860357600,10.129357666015625,0.4960225820541382,0.35613444447517395,0.3488040566444397
1732873695870345700,10.139345703125,0.4966334402561188,0.3286454975605011,0.32681289315223694
1732873695880377000,10.149377197265625,0.5021312236785889,0.2736676335334778,0.31642818450927734
1732873695890334700,10.159334716796875,0.5064072608947754,0.2064724564552307,0.32498031854629517
1732873695900364800,10.16936474609375,0.485027015209198,0.11850785464048386,0.31642818450927734
1732873695910354200,10.179354248046875,0.4648684561252594,0.1007927656173706,0.29138273000717163
1732873695920354000,10.18935400390625,0.44287729263305664,0.10690141469240189,0.26939156651496887
1732873695930343200,10.19934326171875,0.413555771112442,0.1368338167667389,0.2730567753314972
1732873695940373500,10.20937353515625,0.37262779474258423,0.16982053220272064,0.2981022298336029
1732873695950332200,10.219332275390625,0.32131510972976685,0.19547687470912933,0.342695415019989
1732873695960362500,10.229362548828124,0.2687807083129883,0.20463985204696655,0.4202753007411957
1732873695970351600,10.2393515625,0.18875735998153687,0.24007004499435425,0.5222898125648499
1732873695980382000,10.2493818359375,0.1466076523065567,0.2718350291252136,0.5577199459075928
1732873695990340900,10.2593408203125,0.11178833991289139,0.3017674386501312,0.5546656250953674
1732873696000371000,10.269370849609375,0.08674286305904388,0.3084869384765625,0.4813618063926697
1732873696010360300,10.2793603515625,0.05925392732024193,0.24495697021484375,0.3341432809829712
1732873696020360000,10.28935986328125,0.02871066704392433,0.13561208546161652,0.13316862285137177
1732873696030349000,10.29934912109375,-0.01710422709584236,0.03848451003432274,-0.1258382350206375
1732873696040379600,10.309379638671874,-0.08979719132184982,0.014049900695681572,-0.4178318381309509
1732873696050338300,10.31933837890625,-0.303600013256073,0.05619960278272629,-0.8020660877227783
1732873696060369200,10.329369140625,-0.48197266459465027,0.1007927656173706,-0.988379955291748
1732873696070357800,10.339357666015625,-0.617584764957428,0.15393804013729095,-1.0812314748764038
1732873696080357400,10.349357421875,-0.6835582256317139,0.17898350954055786,-1.0653489828109741
1732873696090346800,10.3593466796875,-0.6811147332191467,0.1007927656173706,-0.9676105380058289
1732873696100377000,10.369377197265624,-0.5974262356758118,-0.07819075137376785,-0.8191702961921692
1732873696110335700,10.379335693359375,-0.4960225820541382,-0.25473082065582275,-0.6261368989944458
1732873696120366600,10.38936669921875,-0.38667771220207214,-0.33169981837272644,-0.38179078698158264
1732873696130355200,10.399355224609375,-0.3634648323059082,-0.2840523421764374,-0.2877175211906433
1732873696140355800,10.40935595703125,-0.36163222789764404,-0.20463985204696655,-0.25595253705978394
1732873696150344400,10.419344482421875,-0.3640756905078888,-0.11911872029304504,-0.2834414839744568
1732873696160374800,10.429374755859374,-0.37079519033432007,-0.02626720629632473,-0.3604104816913605
1732873696170333400,10.43933349609375,-0.39767327904701233,0.02015855349600315,-0.4703662395477295
1732873696180363800,10.44936376953125,-0.39156460762023926,-0.0024434609804302454,-0.5503895878791809
1732873696190353000,10.459352783203125,-0.33292156457901,-0.02626720629632473,-0.5106833577156067
1732873696200352800,10.469352783203124,-0.2773328125476837,-0.08429940044879913,-0.3378084897994995
1732873696210342000,10.479341796875,-0.22052235901355743,-0.18081611394882202,-0.08491026610136032
1732873696220372500,10.48937255859375,-0.18325957655906677,-0.2620611786842346,0.20341812074184418
1732873696230361300,10.499361328125,-0.1612684279680252,-0.294437050819397,0.47708576917648315
1732873696240362000,10.509362060546875,-0.13744467496871948,-0.27488934993743896,0.6884451508522034
1732873696250350600,10.5193505859375,-0.09224065393209457,-0.1814269721508026,0.8228355050086975
1732873696260381400,10.52938134765625,-0.06291911751031876,-0.039706241339445114,0.8796459436416626
1732873696270339600,10.539339599609375,-0.06963863968849182,0.09896016865968704,0.8704829812049866
1732873696280369700,10.54936962890625,-0.11056660860776901,0.10201449692249298,0.778853178024292
1732873696290359000,10.559359130859375,-0.16371189057826996,0.009773843921720982,0.6359107494354248
1732873696300359400,10.569359375,-0.21624629199504852,-0.13561208546161652,0.4807509481906891
1732873696310348000,10.57934814453125,-0.2675589919090271,-0.2779437005519867,0.3488040566444397
1732873696320379000,10.58937890625,-0.2974913716316223,-0.37629300355911255,0.25595253705978394
1732873696330337000,10.5993369140625,-0.30543261766433716,-0.45265114307403564,0.19120082259178162
1732873696340368600,10.60936865234375,-0.29016098380088806,-0.5064072608947754,0.15393804013729095
1732873696350356500,10.6193564453125,-0.27977627515792847,-0.47342056035995483,0.1368338167667389
1732873696360357400,10.629357421875,-0.29626965522766113,-0.4245513379573822,0.14355333149433136
1732873696370345700,10.639345703125,-0.32498031854629517,-0.3885102868080139,0.18570303916931152
1732873696380377000,10.649377197265625,-0.3481931984424591,-0.34208452701568604,0.24678955972194672
1732873696390334700,10.659334716796875,-0.35246923565864563,-0.2669481039047241,0.3188716471195221
1732873696400366300,10.669366455078125,-0.36102136969566345,-0.21380282938480377,0.36651915311813354
1732873696410354200,10.679354248046875,-0.40194934606552124,-0.19792033731937408,0.33719760179519653
1732873696420354000,10.68935400390625,-0.42149701714515686,-0.18325957655906677,0.22663100063800812
1732873696430343200,10.69934326171875,-0.44226643443107605,-0.17348572611808777,0.07452555745840073
1732873696440373800,10.709373779296875,-0.46670106053352356,-0.17531833052635193,-0.08674286305904388
1732873696450332200,10.719332275390625,-0.49357911944389343,-0.1875356286764145,-0.24190263450145721
1732873696460362500,10.729362548828124,-0.5155702829360962,-0.2376265823841095,-0.3640756905078888
1732873696470352000,10.739351806640625,-0.5100724697113037,-0.31154128909111023,-0.40622538328170776
1732873696480383000,10.749383056640625,-0.46670106053352356,-0.3695734739303589,-0.3384193480014801
1732873696490340900,10.7593408203125,-0.3378084897994995,-0.4147774875164032,-0.19425514340400696
1732873696500371700,10.769371826171875,-0.23029619455337524,-0.4098905920982361,-0.13805554807186127
1732873696510360300,10.7793603515625,-0.13866640627384186,-0.42088615894317627,-0.1264491081237793
1732873696520361000,10.78936083984375,-0.07880161702632904,-0.45204028487205505,-0.1716531366109848
1732873696530349300,10.799349365234375,-0.05864306539297104,-0.503963828086853,-0.2571742534637451
1732873696540379600,10.809379638671874,-0.06230825558304787,-0.5375614166259766,-0.35063666105270386
1732873696550338300,10.81933837890625,-0.0708603709936142,-0.5009095072746277,-0.41233405470848083
1732873696560369200,10.829369140625,-0.11789698898792267,-0.3530801236629486,-0.5070181488990784
1732873696570357800,10.839357666015625,-0.1472185254096985,-0.21563543379306793,-0.6322455406188965
1732873696580358400,10.8493583984375,-0.16493362188339233,-0.04764748737215996,-0.8319984674453735
1732873696590346000,10.859345947265625,-0.17837265133857727,0.0959058403968811,-1.0726794004440308
1732873696600377000,10.869377197265624,-0.18631389737129211,0.15821409225463867,-1.2791517972946167
1732873696610335200,10.879335205078124,-0.1722639948129654,0.15271630883216858,-1.377501130104065
1732873696620366600,10.88936669921875,-0.13988813757896423,0.05009094998240471,-1.3353514671325684
1732873696630355000,10.89935498046875,-0.08491026610136032,-0.14233160018920898,-1.0054842233657837
1732873696640355800,10.90935595703125,-0.04214970022439957,-0.17470745742321014,-0.6817256212234497
1732873696650344000,10.919343994140625,-0.009162978269159794,-0.12339477986097336,-0.3384193480014801
1732873696660375000,10.929375,0.018936822190880775,-0.006108652334660292,0.013439035043120384
1732873696670333000,10.9393330078125,0.02382374368607998,0.13500121235847473,0.3121521472930908
1732873696680364000,10.949364013671875,0.01466076634824276,0.30543261766433716,0.4996877610683441
1732873696690353000,10.959352783203125,0.027488935738801956,0.41111230850219727,0.6090326309204102
1732873696700353300,10.969353271484374,0.0806342139840126,0.42638394236564636,0.6835582256317139
1732873696710342000,10.979341796875,0.19425514340400696,0.34147366881370544,0.7446447610855103
1732873696720372700,10.989372802734374,0.2528982162475586,0.2431243658065796,0.7446447610855103
1732873696730361300,10.999361328125,0.31581732630729675,0.15577064454555511,0.7263187766075134
1732873696740361700,11.00936181640625,0.37690386176109314,0.11911872029304504,0.7141014933586121
1732873696750350600,11.0193505859375,0.4245513379573822,0.14049901068210602,0.7079927921295166
1732873696760381200,11.029381103515625,0.4453207552433014,0.1918116807937622,0.7128797173500061
1732873696770339600,11.039339599609375,0.4337143301963806,0.2620611786842346,0.7244861721992493
1732873696780370400,11.049370361328124,0.4080579876899719,0.3597996234893799,0.6884451508522034
1732873696790359000,11.059359130859375,0.40194934606552124,0.37629300355911255,0.6310238242149353
1732873696800359400,11.069359375,0.4050036668777466,0.38728857040405273,0.5418374538421631
1732873696810348000,11.07934814453125,0.403781920671463,0.38117989897727966,0.45265114307403564
1732873696820379000,11.08937890625,0.40194934606552124,0.3799581825733185,0.35246923565864563
1732873696830337000,11.0993369140625,0.4043927788734436,0.3952298164367676,0.24495697021484375
1732873696840368000,11.1093681640625,0.4086688458919525,0.4086688458919525,0.16004669666290283
1732873696850356500,11.1193564453125,0.4056145250797272,0.3927863538265228,0.0806342139840126
1732873696860356900,11.12935693359375,0.4080579876899719,0.3744603991508484,0.08857546001672745
1732873696870345700,11.139345703125,0.41722095012664795,0.34758231043815613,0.14844025671482086
1732873696880377000,11.149377197265625,0.4447098970413208,0.32009339332580566,0.252287358045578
1732873696890334700,11.159334716796875,0.4642575979232788,0.29504790902137756,0.3933972120285034
1732873696900364800,11.16936474609375,0.4660901725292206,0.3170390725135803,0.5021312236785889
1732873696910354200,11.179354248046875,0.4550946056842804,0.3732386529445648,0.5320636034011841
1732873696920353800,11.189353759765625,0.40194934606552124,0.4141666293144226,0.5149593949317932
1732873696930343000,11.199343017578125,0.29016098380088806,0.40133845806121826,0.41661009192466736
1732873696940373500,11.20937353515625,0.21013765037059784,0.3878994286060333,0.33169981837272644
1732873696950332200,11.219332275390625,0.1319468915462494,0.36651915311813354,0.24556782841682434
1732873696960362500,11.229362548828124,0.06841690838336945,0.34513887763023376,0.15393804013729095
1732873696970351900,11.239351806640625,0.033597588539123535,0.3634648323059082,0.060475658625364304
1732873696980382000,11.2493818359375,0.018325956538319588,0.38117989897727966,-0.03848451003432274
1732873696990340900,11.2593408203125,0.012828170321881771,0.34574973583221436,-0.13927727937698364
1732873697000371000,11.269370849609375,0.022602014243602753,0.21563543379306793,-0.25473082065582275
1732873697010360000,11.279360107421875,0.018936822190880775,0.09040805697441101,-0.3023782968521118
1732873697020360200,11.289360107421874,-0.006719517521560192,-0.02015855349600315,-0.3170390725135803
1732873697030349000,11.29934912109375,-0.06414084881544113,-0.07635815441608429,-0.27488934993743896
1732873697040379400,11.30937939453125,-0.11545353382825851,-0.05375614017248154,-0.18325957655906677
1732873697050338300,11.31933837890625,-0.1362229436635971,0.03420845419168472,-0.04948008432984352
1732873697060369000,11.329368896484375,-0.13377949595451355,0.16859880089759827,0.09468411654233932
1732873697070357800,11.339357666015625,-0.11911872029304504,0.3023782968521118,0.2168571650981903
1732873697080357400,11.349357421875,-0.12828169763088226,0.2583959996700287,0.23396138846874237
1732873697090375000,11.359375,-0.13377949595451355,0.18081611394882202,0.17837265133857727
1732873697100378400,11.36937841796875,-0.1258382350206375,0.10384709388017654,0.09162978827953339
1732873697110335700,11.379335693359375,-0.10018189996480942,0.03848451003432274,0.036651913076639175
1732873697120366800,11.389366943359375,-0.03787364438176155,0.04948008432984352,-0.03237585723400116
1732873697130355200,11.399355224609375,0.048258353024721146,0.1007927656173706,-0.1111774742603302
1732873697140356400,11.4093564453125,0.1368338167667389,0.152105450630188,-0.16982053220272064
1732873697150344400,11.419344482421875,0.26022860407829285,0.24129177629947662,-0.1612684279680252
1732873697160375800,11.429375732421875,0.2993239760398865,0.2376265823841095,-0.0708603709936142
1732873697170333400,11.43933349609375,0.33108896017074585,0.16493362188339233,0.039095375686883926
1732873697180365000,11.449364990234375,0.35674530267715454,-0.0006108652451075613,0.15271630883216858
1732873697190353000,11.459352783203125,0.34147366881370544,-0.21868975460529327,0.24862214922904968
1732873697200353800,11.469353759765625,0.2877175211906433,-0.4153883755207062,0.2822197377681732
1732873697210342000,11.479341796875,0.2168571650981903,-0.5418374538421631,0.2535090744495392
1732873697220372700,11.489372802734374,0.1270599663257599,-0.5479460954666138,0.06841690838336945
1732873697230361300,11.499361328125,0.09040805697441101,-0.4703662395477295,-0.1313360333442688
1732873697240362000,11.509362060546875,0.07452555745840073,-0.4080579876899719,-0.35124751925468445
1732873697250350600,11.5193505859375,0.05314527451992035,-0.36224308609962463,-0.588263213634491
1732873697260380700,11.529380615234375,0.04459316283464432,-0.3188716471195221,-0.8246681094169617
1732873697270339600,11.539339599609375,0.036651913076639175,-0.2883284091949463,-1.0183123350143433
1732873697280369700,11.54936962890625,-0.001832595793530345,-0.28466320037841797,-1.130711555480957
1732873697290359000,11.559359130859375,-0.10873401165008545,-0.3121521472930908,-1.1643091440200806
1732873697300358700,11.569358642578125,-0.182648703455925,-0.3701843321323395,-1.0812314748764038
1732873697310348000,11.57934814453125,-0.242513507604599,-0.44287729263305664,-0.9095783233642578
1732873697320378400,11.58937841796875,-0.26939156651496887,-0.5338962078094482,-0.6921103000640869
1732873697330337000,11.5993369140625,-0.24373523890972137,-0.5815436840057373,-0.45814892649650574
1732873697340368000,11.609367919921874,-0.1722639948129654,-0.5448917746543884,-0.22907446324825287
1732873697350356500,11.6193564453125,-0.13927727937698364,-0.4343251883983612,-0.08185594528913498
1732873697360357000,11.629357177734375,-0.15027284622192383,-0.18631389737129211,0.004886921960860491
1732873697370345700,11.639345703125,-0.13744467496871948,0.23090706765651703,0.09896016865968704
1732873697380376600,11.64937646484375,-0.13439035415649414,0.40256020426750183,0.1514945775270462
1732873697390334700,11.659334716796875,-0.1618792861700058,0.4447098970413208,0.17348572611808777
1732873697400364800,11.66936474609375,-0.23396138846874237,0.3842342495918274,0.16065755486488342
1732873697410354200,11.679354248046875,-0.3121521472930908,0.26511552929878235,0.1160643994808197
1732873697420354000,11.68935400390625,-0.37079519033432007,0.09285151958465576,0.048258353024721146
1732873697430343200,11.69934326171875,-0.3787364661693573,-0.11178833991289139,-0.013439035043120384
1732873697440373800,11.709373779296875,-0.31520646810531616,-0.22663100063800812,-0.06780604273080826
1732873697450332200,11.719332275390625,-0.23518311977386475,-0.23151792585849762,-0.024434609338641167
1732873697460363300,11.72936328125,-0.16249015927314758,-0.13316862285137177,0.05192354694008827
1732873697470352000,11.739351806640625,-0.10751228034496307,0.07330382615327835,0.11728613078594208
1732873697480383000,11.749383056640625,-0.08429940044879913,0.24434609711170197,0.12217304855585098
1732873697490340900,11.7593408203125,-0.11362093687057495,0.30054569244384766,0.0659734457731247
1732873697500371700,11.769371826171875,-0.15821409225463867,0.2919935882091522,0.009162978269159794
1732873697510360600,11.779360595703125,-0.2028072625398636,0.24862214922904968,-0.0861319974064827
1732873697520361000,11.78936083984375,-0.2272418737411499,0.2076941877603531,-0.18875735998153687
1732873697530349300,11.799349365234375,-0.26083946228027344,0.14049901068210602,-0.3029891550540924
1732873697540380400,11.80938037109375,-0.2871066629886627,0.05864306539297104,-0.40072759985923767
1732873697550338300,11.81933837890625,-0.3072652220726013,-0.014049900695681572,-0.45814892649650574
1732873697560369700,11.82936962890625,-0.3280346393585205,-0.05619960278272629,-0.4703662395477295
1732873697570357800,11.839357666015625,-0.35124751925468445,-0.054367005825042725,-0.43127086758613586
1732873697580358700,11.849358642578125,-0.3952298164367676,-0.02015855349600315,-0.34758231043815613
1732873697590346000,11.859345947265625,-0.42088615894317627,0.048258353024721146,-0.18020524084568024
1732873697600378000,11.869378173828125,-0.4092797040939331,0.05497787147760391,-0.048258353024721146
1732873697610335200,11.879335205078124,-0.40133845806121826,0.04398229718208313,0.07330382615327835
1732873697620366800,11.889366943359375,-0.48258355259895325,-0.00366519158706069,0.1869247704744339
1732873697630355000,11.89935498046875,-0.5070181488990784,-0.02076941914856434,0.23579397797584534
1732873697640355600,11.90935546875,-0.4905247986316681,-0.0024434609804302454,0.21930062770843506
1732873697650344000,11.919343994140625,-0.4807509481906891,0.00855211354792118,0.15943582355976105
1732873697660374300,11.929374267578124,-0.4550946056842804,0.006108652334660292,0.016493361443281174
1732873697670333000,11.9393330078125,-0.43799036741256714,-0.005497787147760391,-0.07452555745840073
1732873697680363300,11.94936328125,-0.4086688458919525,-0.018325956538319588,-0.1459967941045761
1732873697690353000,11.959352783203125,-0.3787364661693573,-0.04764748737215996,-0.19486601650714874
1732873697700353500,11.969353515625,-0.36163222789764404,-0.08368854224681854,-0.2278527319431305
1732873697710342000,11.979341796875,-0.3280346393585205,-0.10506882518529892,-0.24923302233219147
1732873697720373500,11.98937353515625,-0.29077184200286865,-0.1313360333442688,-0.2480112910270691
1732873697730361300,11.999361328125,-0.25534167885780334,-0.17959438264369965,-0.19853121042251587
1732873697740362500,12.009362548828125,-0.23640485107898712,-0.21319197118282318,-0.13316862285137177
1732873697750350300,12.019350341796875,-0.23151792585849762,-0.2223549485206604,-0.042760565876960754
1732873697760382200,12.02938232421875,-0.23090706765651703,-0.21807889640331268,0.039706241339445114
1732873697770339600,12.039339599609375,-0.23518311977386475,-0.19364428520202637,0.07880161702632904
1732873697780370400,12.049370361328124,-0.22479841113090515,-0.13866640627384186,0.0659734457731247
1732873697790359000,12.059359130859375,-0.2021963894367218,-0.0806342139840126,0.006719517521560192
1732873697800360200,12.069360107421875,-0.1875356286764145,-0.0555887371301651,-0.06902777403593063
1732873697810348000,12.07934814453125,-0.17409659922122955,-0.10323622822761536,-0.14844025671482086
1732873697820380000,12.0893798828125,-0.17776179313659668,-0.1661553531885147,-0.14355333149433136
1732873697830337000,12.0993369140625,-0.18631389737129211,-0.2070833146572113,-0.07635815441608429
1732873697840368600,12.10936865234375,-0.18631389737129211,-0.21441370248794556,0.05375614017248154
1732873697850356500,12.1193564453125,-0.1820378452539444,-0.18814650177955627,0.21563543379306793
1732873697860356900,12.12935693359375,-0.17287486791610718,-0.1368338167667389,0.3536909818649292
1732873697870345700,12.139345703125,-0.15821409225463867,-0.10018189996480942,0.43127086758613586
1732873697880376600,12.14937646484375,-0.1459967941045761,-0.051312681287527084,0.43249258399009705
1732873697890334700,12.159334716796875,-0.1313360333442688,-0.01466076634824276,0.37079519033432007
1732873697900365600,12.169365478515624,-0.12034045159816742,0.0024434609804302454,0.2736676335334778
1732873697910354200,12.179354248046875,-0.10995574295520782,-0.01466076634824276,0.15393804013729095
1732873697920354600,12.1893544921875,-0.09407325088977814,-0.0555887371301651,0.04398229718208313
1732873697930343200,12.19934326171875,-0.07819075137376785,-0.09407325088977814,-0.025045474991202354
1732873697940374500,12.20937451171875,-0.060475658625364304,-0.10262536257505417,-0.04337143152952194
1732873697950332200,12.219332275390625,-0.039095375686883926,-0.09651670604944229,0.018325956538319588
1732873697960363500,12.229363525390625,-0.031154127791523933,-0.08307767659425735,0.08796459436416626
1732873697970351900,12.239351806640625,-0.02015855349600315,-0.07513642311096191,0.14844025671482086
1732873697980383200,12.24938330078125,-0.00427605677396059,-0.06414084881544113,0.19058994948863983
1732873697990340900,12.2593408203125,0.005497787147760391,-0.05803219974040985,0.2278527319431305
1732873698000372200,12.269372314453125,0.01038470957428217,-0.06108652427792549,0.25473082065582275
1732873698010360000,12.279360107421875,0.006108652334660292,-0.07208210229873657,0.2779437005519867
1732873698020361200,12.289361328125,0.004886921960860491,-0.08429940044879913,0.2840523421764374
1732873698030349300,12.299349365234375,-0.03298672288656235,-0.1411098688840866,0.182648703455925
1732873698040380000,12.3093798828125,-0.0507018156349659,-0.24556782841682434,0.06291911751031876
1732873698050338300,12.31933837890625,-0.06108652427792549,-0.31154128909111023,-0.0806342139840126
1732873698060369700,12.32936962890625,-0.060475658625364304,-0.32559117674827576,-0.16982053220272064
1732873698070357800,12.339357666015625,-0.07391469180583954,-0.26511552929878235,-0.15393804013729095
1732873698080359000,12.34935888671875,-0.08796459436416626,-0.1514945775270462,-0.060475658625364304
1732873698090346800,12.3593466796875,-0.06841690838336945,-0.02687807008624077,0.04153883829712868
1732873698100377600,12.369377685546874,-0.03298672288656235,0.03298672288656235,0.11850785464048386
1732873698110335700,12.379335693359375,-0.025045474991202354,0.030543262138962746,0.11423180252313614
1732873698120366800,12.389366943359375,-0.005497787147760391,0.04092797264456749,0.09834930300712585
1732873698130355200,12.399355224609375,0.01466076634824276,0.05192354694008827,0.08979719132184982
1732873698140355600,12.40935546875,0.028099801391363144,0.060475658625364304,0.0757472887635231
1732873698150344400,12.419344482421875,0.039095375686883926,0.1007927656173706,0.06352998316287994
1732873698160375000,12.429375,0.06536258012056351,0.15027284622192383,0.059864792972803116
