time,seconds_elapsed,z,y,x
1732873685930797800,0.1997978515625,9.897629737854004,1.173158884048462,-0.6536170840263367
1732873685940734200,0.209734130859375,9.947908401489258,1.1827356815338135,-0.6607996821403503
1732873685950713600,0.219713623046875,9.897629737854004,1.1779472827911377,-0.6368576288223267
1732873685960723200,0.22972314453125,9.801861763000488,1.1659762859344482,-0.6224924325942993
1732873685970732800,0.23973291015625,9.775525093078613,1.1851298809051514,-0.545877993106842
1732873685980742700,0.24974267578125,9.816226959228516,1.170764684677124,-0.5123591423034668
1732873685990722000,0.25972216796875,9.768342971801758,1.1994950771331787,-0.5793967843055725
1732873686000732000,0.26973193359375,9.734824180603027,1.2641384601593018,-0.6392518281936646
1732873686010741500,0.279741455078125,9.718064308166504,1.2689268589019775,-0.6536170840263367
1732873686020721000,0.289720947265625,9.763554573059082,1.278503656387329,-0.6440402865409851
1732873686030730800,0.299730712890625,9.821015357971191,1.2449848651885986,-0.569819986820221
1732873686040740400,0.309740234375,9.873687744140625,1.216254472732544,-0.5267243981361389
1732873686050719500,0.319719482421875,9.916783332824707,1.213860273361206,-0.5434837937355042
1732873686060729300,0.329729248046875,9.9000244140625,1.2521674633026123,-0.5267243981361389
1732873686070739000,0.339739013671875,9.821015357971191,1.2210428714752197,-0.4644751250743866
1732873686080718300,0.34971826171875,9.737217903137207,1.1875240802764893,-0.395043283700943
1732873686090728200,0.359728271484375,9.679757118225098,1.2186486721038818,-0.395043283700943
1732873686100737800,0.36973779296875,9.660603523254395,1.2042834758758545,-0.40222588181495667
1732873686110717200,0.37971728515625,9.639056205749512,1.2042834758758545,-0.5219359993934631
1732873686120727000,0.38972705078125,9.648633003234863,1.216254472732544,-0.524330198764801
1732873686130737000,0.39973681640625,9.667786598205566,1.1899182796478271,-0.49559974670410156
1732873686140716000,0.409716064453125,9.734824180603027,1.1851298809051514,-0.4165911078453064
1732873686150726000,0.419725830078125,9.801861763000488,1.173158884048462,-0.363918662071228
1732873686160735500,0.429735595703125,9.904812812805176,1.2090718746185303,-0.31603461503982544
1732873686170714600,0.439714599609375,9.84256362915039,1.2258312702178955,-0.2944868206977844
1732873686180724500,0.449724365234375,9.75637149810791,1.2449848651885986,-0.2944868206977844
1732873686190734300,0.459734375,9.651026725769043,1.2258312702178955,-0.3758896589279175
1732873686200713500,0.46971337890625,9.677363395690918,1.2090718746185303,-0.3519476354122162
1732873686210723300,0.479723388671875,9.852140426635742,1.1875240802764893,-0.38307225704193115
1732873686220733200,0.489733154296875,10.04846477508545,1.158793568611145,-0.4213795065879822
1732873686230742800,0.49974267578125,10.122684478759766,1.1899182796478271,-0.4429273009300232
1732873686240722200,0.50972216796875,9.998186111450195,1.1803414821624756,-0.4620809257030487
1732873686250732000,0.51973193359375,9.84256362915039,1.1994950771331787,-0.5051765441894531
1732873686260741600,0.52974169921875,9.746794700622559,1.2306196689605713,-0.5386953949928284
1732873686270720800,0.539720703125,9.670180320739746,1.256955862045288,-0.5746083855628967
1732873686280730400,0.54973046875,9.610325813293457,1.316810965538025,-0.5913678407669067
1732873686290740200,0.559740234375,9.5624418258667,1.3239935636520386,-0.5027823448181152
1732873686300719600,0.5697197265625,9.502586364746094,1.3335703611373901,-0.33518823981285095
1732873686310729500,0.5797294921875,9.437943458557129,1.2761094570159912,-0.2537853717803955
1732873686320739000,0.589739013671875,9.433155059814453,1.2641384601593018,-0.2537853717803955
1732873686330718500,0.599718505859375,9.502586364746094,1.2449848651885986,-0.29209262132644653
1732873686340728300,0.609728271484375,9.68694019317627,1.2234370708465576,-0.3256114423274994
1732873686350738000,0.619738037109375,9.806650161743164,1.2114660739898682,-0.4213795065879822
1732873686360717000,0.629717041015625,9.93593692779541,1.2210428714752197,-0.4141969084739685
1732873686370727000,0.639726806640625,10.036493301391602,1.216254472732544,-0.33279404044151306
1732873686380736500,0.649736572265625,10.055646896362305,1.173158884048462,-0.24181437492370605
1732873686390716000,0.6597158203125,9.976638793945312,1.1899182796478271,-0.2106897532939911
1732873686400725800,0.669725830078125,9.888052940368652,1.2114660739898682,-0.19153612852096558
1732873686410735400,0.6797353515625,9.806650161743164,1.216254472732544,-0.18914192914962769
1732873686420714800,0.68971484375,9.749189376831055,1.1899182796478271,-0.1843535304069519
1732873686430724600,0.699724609375,9.763554573059082,1.1180921792984009,-0.181959331035614
1732873686440734200,0.709734130859375,9.725247383117676,1.0989385843276978,-0.272938996553421
1732873686450713600,0.719713623046875,9.703699111938477,1.1468225717544556,-0.36152446269989014
1732873686460723200,0.72972314453125,9.658209800720215,1.1516109704971313,-0.4213795065879822
1732873686470732800,0.73973291015625,9.59596061706543,1.213860273361206,-0.4141969084739685
1732873686480742700,0.74974267578125,9.677363395690918,1.2425906658172607,-0.37828385829925537
1732873686490722000,0.75972216796875,9.655815124511719,1.213860273361206,-0.35434186458587646
1732873686500732000,0.76973193359375,9.624691009521484,1.192312479019165,-0.3519476354122162
1732873686510741500,0.779741455078125,9.617507934570312,1.1994950771331787,-0.3663128614425659
1732873686520721000,0.789720947265625,9.617507934570312,1.2521674633026123,-0.4357447028160095
1732873686530730800,0.799730712890625,9.557653427124023,1.2976573705673218,-0.5554547905921936
1732873686540740400,0.809740234375,9.557653427124023,1.3431471586227417,-0.5722141861915588
1732873686550719500,0.819719482421875,9.591172218322754,1.3192051649093628,-0.5003881454467773
1732873686560729300,0.829729248046875,9.593565940856934,1.2641384601593018,-0.47165772318840027
1732873686570739000,0.839739013671875,9.734824180603027,1.2761094570159912,-0.4429273009300232
1732873686580718300,0.84971826171875,9.945513725280762,1.2282254695892334,-0.4596867263317108
1732873686590728200,0.859728271484375,10.010157585144043,1.1899182796478271,-0.4405331015586853
1732873686600737800,0.86973779296875,10.019734382629395,1.137245774269104,-0.4141969084739685
1732873686610717200,0.87971728515625,10.014945983886719,1.1252747774124146,-0.3280056416988373
1732873686620727000,0.88972705078125,9.9000244140625,1.094150185585022,-0.29209262132644653
1732873686630737000,0.89973681640625,9.770736694335938,1.0845733880996704,-0.15322890877723694
1732873686640716000,0.909716064453125,9.691728591918945,1.0773907899856567,-0.10773907601833344
1732873686650726000,0.919725830078125,9.734824180603027,1.070208191871643,-0.031124621629714966
1732873686660735500,0.929735595703125,9.84495735168457,1.094150185585022,0.021547814831137657
1732873686670714600,0.939714599609375,9.96945571899414,1.0845733880996704,0.021547814831137657
1732873686680724500,0.949724365234375,10.067618370056152,1.0630255937576294,0.07182604819536209
1732873686690734300,0.959734375,10.14902114868164,1.0558429956436157,0.1173158809542656
1732873686700713500,0.96971337890625,10.08198356628418,1.0869675874710083,0.1173158809542656
1732873686710723300,0.979723388671875,9.830592155456543,1.1252747774124146,0.043095629662275314
1732873686720733200,0.989733154296875,9.627084732055664,1.1755530834197998,0.07182604819536209
1732873686730742800,0.99974267578125,9.59835433959961,1.213860273361206,0.10295066982507706
1732873686740722200,1.00972216796875,9.593565940856934,1.1803414821624756,0.19871874153614044
1732873686750732000,1.01973193359375,9.72285270690918,1.1803414821624756,0.3519476354122162
1732873686760741600,1.02974169921875,9.818621635437012,1.1659762859344482,0.48602294921875
1732873686770720800,1.039720703125,9.847352027893066,1.1803414821624756,0.5386953949928284
1732873686780730400,1.04973046875,9.871294021606445,1.1827356815338135,0.5985504388809204
1732873686790740200,1.059740234375,9.955090522766113,1.1540051698684692,0.7038952708244324
1732873686800719600,1.0697197265625,10.072406768798828,1.1300631761550903,0.8571242094039917
1732873686810729500,1.0797294921875,10.182539939880371,1.0749965906143188,0.9864110946655273
1732873686820739000,1.089739013671875,10.180145263671875,1.0342950820922852,1.05105459690094
1732873686830718500,1.099718505859375,10.098742485046387,0.950498104095459,1.0558429956436157
1732873686840728300,1.109728271484375,10.029311180114746,0.8810662031173706,0.9816226959228516
1732873686850738000,1.119738037109375,10.017339706420898,0.8475474119186401,0.9648633003234863
1732873686860717000,1.129717041015625,10.129867553710938,0.7805097699165344,0.9576807022094727
1732873686870727000,1.139726806640625,10.237606048583984,0.7110779285430908,0.9313444495201111
1732873686880736500,1.149736572265625,10.278307914733887,0.6368576288223267,0.933738648891449
1732873686890716000,1.1597158203125,10.285490036010742,0.6200982332229614,0.9241618514060974
1732873686900725800,1.169725830078125,10.165780067443848,0.6607996821403503,0.9241618514060974
1732873686910735400,1.1797353515625,10.000580787658691,0.6823474764823914,0.8786720037460327
1732873686920714800,1.18971484375,9.931148529052734,0.6440402865409851,0.8331822156906128
1732873686930724600,1.199724609375,9.95748519897461,0.6033388376235962,0.8403648138046265
1732873686940734200,1.209734130859375,10.055646896362305,0.6200982332229614,0.7948749661445618
1732873686950713600,1.219713623046875,10.141838073730469,0.6703764796257019,0.6775590777397156
1732873686960723200,1.22972314453125,10.134655952453613,0.7972691655158997,0.5506663918495178
1732873686970732800,1.23973291015625,10.072406768798828,0.9528923034667969,0.40222588181495667
1732873686980742700,1.24974267578125,9.921571731567383,1.158793568611145,0.22505496442317963
1732873686990722000,1.25972216796875,9.825803756713867,1.2880805730819702,0.14365209639072418
1732873687000732000,1.26973193359375,9.780313491821289,1.338358759880066,0.17717093229293823
1732873687010741500,1.279741455078125,9.821015357971191,1.400607943534851,0.20350714027881622
1732873687020721000,1.289720947265625,9.859322547912598,1.45806884765625,0.2585737705230713
1732873687030730800,1.299730712890625,9.864110946655273,1.434126853942871,0.31124621629714966
1732873687040740400,1.309740234375,9.773131370544434,1.4844050407409668,0.35913026332855225
1732873687050719500,1.319719482421875,9.636661529541016,1.4891934394836426,0.3256114423274994
1732873687060729300,1.329729248046875,9.481039047241211,1.460463047027588,0.2944868206977844
1732873687070739000,1.339739013671875,9.315838813781738,1.3335703611373901,0.3687070608139038
1732873687080718300,1.34971826171875,9.315838813781738,1.1779472827911377,0.6153098344802856
1732873687090728200,1.359728271484375,9.433155059814453,1.0247182846069336,0.9361328482627869
1732873687100737800,1.36973779296875,9.433155059814453,0.9672574996948242,1.2066776752471924
1732873687110717200,1.37971728515625,9.334992408752441,1.0103530883789062,1.3766659498214722
1732873687120727000,1.38972705078125,9.327810287475586,1.1468225717544556,1.3694833517074585
1732873687130737000,1.39973681640625,9.454702377319336,1.2545616626739502,1.3239935636520386
1732873687140716000,1.409716064453125,9.68933391571045,1.3311761617660522,1.2473790645599365
1732873687150726000,1.419725830078125,9.832986831665039,1.338358759880066,1.278503656387329
1732873687160735500,1.429735595703125,9.931148529052734,1.3646949529647827,1.3287819623947144
1732873687170714600,1.439714599609375,9.947908401489258,1.4508862495422363,1.3000515699386597
1732873687180724500,1.449724365234375,9.911994934082031,1.5298948287963867,1.3000515699386597
1732873687190734300,1.459734375,9.84256362915039,1.558625340461731,1.3072341680526733
1732873687200713500,1.46971337890625,9.751583099365234,1.5514427423477173,1.2713210582733154
1732873687210723300,1.479723388671875,9.579200744628906,1.4844050407409668,1.3096283674240112
1732873687220733200,1.489733154296875,9.435548782348633,1.4293384552001953,1.3503297567367554
1732873687230742800,1.49974267578125,9.373299598693848,1.3718775510787964,1.3335703611373901
1732873687240722200,1.50972216796875,9.32541561126709,1.3551181554794312,1.3048399686813354
1732873687250732000,1.51973193359375,9.41400146484375,1.3766659498214722,1.1683704853057861
1732873687260741600,1.52974169921875,9.646238327026367,1.3862427473068237,1.0869675874710083
1732873687270720800,1.539720703125,9.835380554199219,1.4317326545715332,0.9289502501487732
1732873687280730400,1.54973046875,9.785101890563965,1.5921441316604614,0.6847416758537292
1732873687290740200,1.559740234375,9.600749015808105,1.8124107122421265,0.38307225704193115
1732873687300719600,1.5697197265625,9.421183586120605,1.9345149993896484,0.1867477297782898
1732873687310729500,1.5797294921875,9.01895809173584,1.9943699836730957,0.33279404044151306
1732873687320739000,1.589739013671875,8.53293514251709,1.7980455160140991,0.20111294090747833
1732873687330718500,1.599718505859375,8.252813339233398,1.37906014919281,-0.06464344263076782
1732873687340728300,1.609728271484375,8.702922821044922,0.7469909191131592,-0.38307225704193115
1732873687350738000,1.619738037109375,9.916783332824707,0,-0.5722141861915588
1732873687360717000,1.629717041015625,11.523292541503906,-0.23942017555236816,-0.4812345504760742
1732873687370727000,1.639726806640625,13.046005249023438,-0.1628057211637497,-0.5817909836769104
1732873687380736500,1.649736572265625,14.113819122314453,0.2753331959247589,-1.05105459690094
1732873687390716000,1.6597158203125,13.958195686340332,0.7852981686592102,-1.623268723487854
1732873687400725800,1.669725830078125,12.282255172729492,1.316810965538025,-1.778891921043396
1732873687410735400,1.6797353515625,10.723628997802734,1.556231141090393,-1.534683346748352
1732873687420714800,1.68971484375,9.421183586120605,1.625662922859192,-0.7852981686592102
1732873687430724600,1.699724609375,8.576030731201172,1.8052281141281128,-0.016759412363171577
1732873687440734200,1.709734130859375,7.8529815673828125,2.0590133666992188,0.23702596127986908
1732873687450713600,1.719713623046875,7.740454196929932,2.2697031497955322,-0.12689268589019775
1732873687460723200,1.72972314453125,8.070854187011719,2.516305923461914,-1.1228805780410767
1732873687470732800,1.73973291015625,8.734047889709473,2.6886885166168213,-2.229001760482788
1732873687480742700,1.74974267578125,9.550470352172852,2.691082715988159,-3.1435868740081787
1732873687490722000,1.75972216796875,10.680533409118652,2.5234885215759277,-3.7469255924224854
1732873687500731600,1.769731689453125,11.578359603881836,2.2864625453948975,-3.643975019454956
1732873687510741500,1.779741455078125,11.856086730957031,1.9752163887023926,-2.9257144927978516
1732873687520721000,1.789720947265625,11.470620155334473,1.745373010635376,-2.2218191623687744
1732873687530730800,1.799730712890625,10.757147789001465,1.5705963373184204,-1.400607943534851
1732873687540740400,1.809740234375,9.981427192687988,1.4413094520568848,-0.7948749661445618
1732873687550719500,1.819719482421875,9.162610054016113,1.3694833517074585,-0.5171475410461426
1732873687560729300,1.829729248046875,8.69334602355957,1.3646949529647827,-0.5410895943641663
1732873687570739200,1.8397392578125,8.516175270080566,1.4484920501708984,-0.912190854549408
1732873687580718300,1.84971826171875,8.65982723236084,1.6400281190872192,-1.5203180313110352
1732873687590728200,1.859728271484375,8.856152534484863,1.7764976024627686,-2.1308395862579346
1732873687600737800,1.86973779296875,8.884882926940918,1.9129672050476074,-2.473210334777832
1732873687610717200,1.87971728515625,8.765172004699707,1.8698714971542358,-2.4660277366638184
1732873687620727000,1.88972705078125,8.7268648147583,1.7525556087493896,-2.1092917919158936
1732873687630737000,1.89973681640625,8.69334602355957,1.5514427423477173,-1.5298948287963867
1732873687640716000,1.909716064453125,8.508993148803711,1.2737152576446533,-0.6727706789970398
1732873687650726000,1.919725830078125,8.214506149291992,1.1468225717544556,0.004788403399288654
1732873687660735500,1.929735595703125,7.965508937835693,1.115697979927063,0.40701428055763245
1732873687670714600,1.939714599609375,8.030152320861816,1.1899182796478271,0.5506663918495178
1732873687680724500,1.949724365234375,8.343792915344238,1.292868971824646,0.48602294921875
1732873687690734300,1.959734375,8.860940933227539,1.3910311460494995,0.040701430290937424
1732873687700713500,1.96971337890625,9.493009567260742,1.522712230682373,-0.4141969084739685
1732873687710723300,1.979723388671875,10.139444351196289,1.7166426181793213,-0.9169792532920837
1732873687720733200,1.989733154296875,10.793061256408691,1.8531121015548706,-1.1683704853057861
1732873687730742800,1.99974267578125,11.30063247680664,1.9345149993896484,-1.2210428714752197
1732873687740722200,2.00972216796875,11.444284439086914,1.9369091987609863,-1.137245774269104
1732873687750732000,2.01973193359375,11.238382339477539,1.9560627937316895,-1.0462661981582642
1732873687760741600,2.02974169921875,10.824186325073242,1.9369091987609863,-1.0869675874710083
1732873687770720800,2.039720703125,10.362105369567871,1.9393033981323242,-0.993593692779541
1732873687780730400,2.04973046875,9.84256362915039,1.86508309841156,-1.0462661981582642
1732873687790740200,2.059740234375,9.368511199951172,1.7980455160140991,-0.8930372595787048
1732873687800719600,2.0697197265625,9.220070838928223,1.7501614093780518,-0.6272808313369751
1732873687810729500,2.0797294921875,9.014169692993164,1.7094600200653076,-0.4357447028160095
1732873687820739000,2.089739013671875,8.83699893951416,1.7166426181793213,-0.304063618183136
1732873687830718500,2.099718505859375,8.789113998413086,1.5849615335464478,-0.090979665517807
1732873687840728300,2.109728271484375,8.741230010986328,1.280897855758667,0.31364041566848755
1732873687850738000,2.119738037109375,8.619126319885254,0.9552865028381348,0.586579442024231
1732873687860717000,2.129717041015625,8.564059257507324,0.6847416758537292,0.4620809257030487
1732873687870727000,2.139726806640625,8.7484130859375,0.5913678407669067,0.22505496442317963
1732873687880736500,2.149736572265625,9.265560150146484,0.4692635238170624,0.038307227194309235
1732873687890716000,2.1597158203125,9.986215591430664,0.33518823981285095,-0.06703764945268631
1732873687900725800,2.169725830078125,10.745177268981934,0.26575639843940735,-0.26575639843940735
1732873687910735400,2.1797353515625,11.101913452148438,0.2992752194404602,-0.4644751250743866
1732873687920714800,2.18971484375,11.034875869750977,0.3256114423274994,-0.5937620401382446
1732873687930724600,2.199724609375,10.560823440551758,0.38307225704193115,-0.5530605912208557
1732873687940734200,2.209734130859375,9.950302124023438,0.4357447028160095,-0.5363011956214905
1732873687950713300,2.21971337890625,9.524134635925293,0.5506663918495178,-0.4836287498474121
1732873687960723200,2.22972314453125,9.361329078674316,0.6416460275650024,-0.30885201692581177
1732873687970732800,2.23973291015625,9.330204010009766,0.7852981686592102,-0.16998831927776337
1732873687980742700,2.24974267578125,9.524134635925293,1.05105459690094,-0.09576806426048279
1732873687990722000,2.25972216796875,9.787496566772461,1.2617442607879639,-0.06703764945268631
1732873688000732000,2.26973193359375,9.974244117736816,1.3646949529647827,-0.043095629662275314
1732873688010741500,2.279741455078125,10.038887977600098,1.5538369417190552,-0.21547815203666687
1732873688020721000,2.289720947265625,10.005369186401367,1.7286136150360107,-0.4165911078453064
1732873688030730800,2.299730712890625,9.981427192687988,1.8100165128707886,-0.3016694188117981
1732873688040740400,2.309740234375,9.749189376831055,1.7597382068634033,0.22505496442317963
1732873688050719500,2.319719482421875,9.50737476348877,1.678335428237915,0.8643068075180054
1732873688060729300,2.329729248046875,9.545681953430176,1.6304513216018677,1.436521053314209
1732873688070739200,2.3397392578125,9.828198432922363,1.479616641998291,1.4963760375976562
1732873688080718300,2.34971826171875,10.194510459899902,1.8076223134994507,-0.6105214357376099
1732873688090728200,2.359728271484375,11.185709953308105,1.8770540952682495,-0.4405331015586853
1732873688100737800,2.36973779296875,11.523292541503906,0.36152446269989014,0.3902548849582672
1732873688110717200,2.37971728515625,12.840104103088379,-0.6751648783683777,0.8307880163192749
1732873688120727000,2.38972705078125,14.329297065734863,-1.338358759880066,1.501164436340332
1732873688130737000,2.39973681640625,14.79616641998291,-1.6089035272598267,1.9369091987609863
1732873688140716000,2.409716064453125,14.822503089904785,-1.6855180263519287,2.2601263523101807
1732873688150726000,2.419725830078125,14.255077362060547,-1.237802267074585,1.7142484188079834
1732873688160735500,2.429735595703125,13.189657211303711,-0.7326257228851318,1.1085153818130493
1732873688170714600,2.439714599609375,11.45146656036377,-0.30885201692581177,0.8259995579719543
1732873688180724500,2.449724365234375,9.830592155456543,-0.05746084079146385,0.9217676520347595
1732873688190734300,2.459734375,8.233659744262695,0.12928688526153564,1.3455413579940796
1732873688200713500,2.46971337890625,7.053318023681641,0.24899697303771973,1.4628572463989258
1732873688210723300,2.479723388671875,6.234501361846924,0.4596867263317108,1.0247182846069336
1732873688220733200,2.489733154296875,5.655104637145996,0.6129156351089478,0.05506663769483566
1732873688230742800,2.49974267578125,5.686229228973389,0.8427590131759644,-0.8044517636299133
1732873688240722200,2.50972216796875,6.0836663246154785,0.9026140570640564,-1.6065093278884888
1732873688250732000,2.51973193359375,6.6846113204956055,0.5578489899635315,-1.625662922859192
1732873688260741600,2.52974169921875,8.075642585754395,0.2585737705230713,-1.4508862495422363
1732873688270720800,2.539720703125,9.763554573059082,0.17477671802043915,-1.3048399686813354
1732873688280730400,2.54973046875,11.384428977966309,0.08858546614646912,-0.706289529800415
1732873688290740200,2.559740234375,12.418724060058594,-0.05985504388809204,0.16759411990642548
1732873688300719600,2.5697197265625,12.835315704345703,-0.14844051003456116,0.9983820915222168
1732873688310729500,2.5797294921875,12.689269065856934,0.06224924325942993,1.3000515699386597
1732873688320739000,2.589739013671875,12.09550666809082,0.40222588181495667,1.1779472827911377
1732873688330718500,2.599718505859375,11.061211585998535,0.6320692300796509,0.9313444495201111
1732873688340728300,2.609728271484375,10.168174743652344,0.730231523513794,1.0462661981582642
1732873688350738000,2.619738037109375,9.308655738830566,0.768538773059845,1.1563993692398071
1732873688360717000,2.629717041015625,8.676587104797363,0.7398083209991455,1.403002142906189
1732873688370727000,2.639726806640625,8.183381080627441,0.6919242739677429,1.8842366933822632
1732873688380736800,2.64973681640625,7.714118003845215,0.6488286852836609,2.073378562927246
1732873688390716000,2.6597158203125,7.352593421936035,0.6488286852836609,2.1068975925445557
1732873688400725800,2.669725830078125,7.026981830596924,0.6009446382522583,1.843535304069519
1732873688410735400,2.6797353515625,7.005434036254883,0.6153098344802856,1.0845733880996704
1732873688420714800,2.68971484375,7.802703380584717,0.629675030708313,0.42616790533065796
1732873688430724600,2.699724609375,8.999804496765137,0.44532153010368347,-0.0454898327589035
1732873688440734200,2.709734130859375,9.971850395202637,0.2585737705230713,-0.44771572947502136
1732873688450713600,2.719713623046875,10.65898609161377,0.05267243832349777,-0.5722141861915588
1732873688460723200,2.72972314453125,11.1474027633667,-0.23942017555236816,-0.4141969084739685
1732873688470732800,2.73973291015625,11.374852180480957,-0.5722141861915588,-0.0071826050989329815
1732873688480742700,2.74974267578125,11.207258224487305,-0.8379706144332886,0.3734954595565796
1732873688490722000,2.75972216796875,10.87446403503418,-1.048660397529602,0.5339069962501526
1732873688500732000,2.76973193359375,10.512939453125,-1.0989385843276978,0.395043283700943
1732873688510741500,2.779741455078125,10.213664054870605,-0.8427590131759644,0.06703764945268631
1732873688520721000,2.789720947265625,9.983820915222168,-0.3519476354122162,-0.4165911078453064
1732873688530730500,2.79973046875,9.861717224121094,0.15801730751991272,-0.7350199222564697
1732873688540740400,2.809740234375,9.840168952941895,0.7182605266571045,-0.9241618514060974
1732873688550719500,2.819719482421875,9.670180320739746,1.235408067703247,-0.933738648891449
1732873688560729300,2.829729248046875,9.478644371032715,1.5466543436050415,-0.6536170840263367
1732873688570739200,2.8397392578125,9.208099365234375,1.5203180313110352,-0.12689268589019775
1732873688580718300,2.84971826171875,8.995016098022461,1.434126853942871,0.2322375625371933
1732873688590728200,2.859728271484375,8.975862503051758,1.2521674633026123,0.4429273009300232
1732873688600737800,2.86973779296875,9.184157371520996,0.9481038451194763,0.5123591423034668
1732873688610717200,2.87971728515625,9.696516990661621,0.5770025849342346,0.1364694982767105
1732873688620727000,2.88972705078125,10.20648193359375,0.07661445438861847,-0.4381389021873474
1732873688630736600,2.899736572265625,10.927136421203613,-0.4812345504760742,-0.811634361743927
1732873688640716000,2.909716064453125,12.11705493927002,-0.811634361743927,-0.8595184087753296
1732873688650726000,2.919725830078125,13.591882705688477,-1.015141487121582,-0.7972691655158997
1732873688660735500,2.929735595703125,14.2431058883667,-0.9433154463768005,-0.7589619159698486
1732873688670714600,2.939714599609375,14.07311725616455,-0.6775590777397156,-0.4213795065879822
1732873688680724500,2.949724365234375,13.318943977355957,-0.17238251864910126,-0.15322890877723694
1732873688690734000,2.959734130859375,12.047622680664062,0.5434837937355042,-0.2059013396501541
1732873688700713500,2.96971337890625,10.340557098388672,1.37906014919281,-0.47644615173339844
1732873688710723300,2.979723388671875,8.973467826843262,2.073378562927246,-0.6392518281936646
1732873688720733000,2.98973291015625,7.934384346008301,2.782062292098999,-0.7637503147125244
1732873688730742800,2.99974267578125,7.3023152351379395,3.4165258407592773,-1.0845733880996704
1732873688740722200,3.00972216796875,6.909666061401367,3.9025487899780273,-1.5705963373184204
1732873688750732000,3.01973193359375,6.842628479003906,3.8786067962646484,-1.599326729774475
1732873688760741600,3.02974169921875,7.529764175415039,3.3710360527038574,-1.1204863786697388
1732873688770720800,3.039720703125,8.801085472106934,2.7246015071868896,-0.42616790533065796
1732873688780730600,3.049730712890625,9.983820915222168,1.922544002532959,0.26815059781074524
1732873688790740200,3.059740234375,10.951078414916992,1.2617442607879639,0.8068459630012512
1732873688800719600,3.0697197265625,11.429919242858887,0.8690952062606812,0.9959878921508789
1732873688810729500,3.0797294921875,11.714828491210938,0.5937620401382446,1.192312479019165
1732873688820739000,3.089739013671875,11.73398208618164,0.49799394607543945,1.192312479019165
1732873688830718500,3.099718505859375,11.377246856689453,0.5674257874488831,0.933738648891449
1732873688840728300,3.109728271484375,10.711658477783203,0.7493851184844971,0.524330198764801
1732873688850738000,3.119738037109375,9.670180320739746,0.9481038451194763,0.047884032130241394
1732873688860717300,3.12971728515625,8.834604263305664,1.1683704853057861,-0.30885201692581177
1732873688870727000,3.139726806640625,8.070854187011719,1.4293384552001953,-0.6847416758537292
1732873688880736500,3.149736572265625,7.510610580444336,1.580173134803772,-0.9217676520347595
1732873688890716000,3.1597158203125,7.156269073486328,1.6280571222305298,-0.8523358106613159
1732873688900725800,3.169725830078125,6.98628044128418,1.5897499322891235,-0.7134721279144287
1732873688910735400,3.1797353515625,7.024587631225586,1.6352397203445435,-0.7374141216278076
1732873688920714800,3.18971484375,7.184999465942383,1.6352397203445435,-0.5817909836769104
1732873688930724600,3.199724609375,7.42681360244751,1.6759412288665771,-0.6200982332229614
1732873688940734500,3.209734375,7.709329605102539,1.8387469053268433,-0.6584054827690125
1732873688950713300,3.21971337890625,7.891288757324219,1.9776105880737305,-0.8451532125473022
1732873688960723200,3.22972314453125,8.29590892791748,2.0422539710998535,-0.8667010068893433
1732873688970733000,3.239733154296875,8.640673637390137,1.9919757843017578,-0.6607996821403503
1732873688980742700,3.24974267578125,8.920795440673828,1.8722656965255737,-0.4118026793003082
1732873688990722000,3.25972216796875,9.500192642211914,1.7334020137786865,-0.35434186458587646
1732873689000731600,3.269731689453125,9.945513725280762,1.764526605606079,-0.38067805767059326
1732873689010741500,3.279741455078125,10.639832496643066,1.5921441316604614,-0.1604115068912506
1732873689020721000,3.289720947265625,10.737994194030762,1.5490485429763794,0.12449848651885986
1732873689030730500,3.29973046875,10.721235275268555,1.534683346748352,0.15322890877723694
1732873689040740400,3.309740234375,10.199298858642578,1.599326729774475,-0.06224924325942993
1732873689050719500,3.319719482421875,9.454702377319336,1.7286136150360107,-0.10773907601833344
1732873689060729300,3.329729248046875,8.935160636901855,1.6615760326385498,-0.06464344263076782
1732873689070739200,3.3397392578125,8.463502883911133,1.6112977266311646,-0.026336219161748886
1732873689080718300,3.34971826171875,8.221688270568848,1.53707754611969,-0.14844051003456116
1732873689090728200,3.359728271484375,8.236053466796875,1.161187767982483,-0.16759411990642548
1732873689100737800,3.36973779296875,8.595184326171875,0.7374141216278076,-0.31364041566848755
1732873689110717200,3.37971728515625,9.205705642700195,0.4141969084739685,-0.42856210470199585
1732873689120727000,3.38972705078125,9.864110946655273,0.23942017555236816,-0.5722141861915588
1732873689130737000,3.39973681640625,10.251971244812012,0.2585737705230713,-0.8188169598579407
1732873689140716000,3.409716064453125,10.44350814819336,0.5123591423034668,-1.3120225667953491
1732873689150726000,3.419725830078125,10.548852920532227,0.7469909191131592,-1.4484920501708984
1732873689160735500,3.429735595703125,10.754754066467285,0.8643068075180054,-0.9600749015808105
1732873689170714600,3.439714599609375,11.286267280578613,0.8786720037460327,-0.2322375625371933
1732873689180724500,3.449724365234375,12.016498565673828,0.8571242094039917,0.6105214357376099
1732873689190734300,3.459734375,12.368446350097656,0.849941611289978,0.8738836050033569
1732873689200713500,3.46971337890625,12.464214324951172,0.7110779285430908,0.9241618514060974
1732873689210723300,3.479723388671875,11.827356338500977,0.5722141861915588,0.2777273952960968
1732873689220733200,3.489733154296875,11.78904914855957,-0.12689268589019775,0.07900865375995636
1732873689230742800,3.49974267578125,11.468226432800293,-0.9552865028381348,-0.14604631066322327
1732873689240722200,3.50972216796875,10.90558910369873,-1.0630255937576294,-1.05105459690094
1732873689250732000,3.51973193359375,10.472238540649414,-0.7230489253997803,-2.360682964324951
1732873689260741600,3.52974169921875,10.41956615447998,-0.2992752194404602,-3.5458126068115234
1732873689270720800,3.539720703125,10.826580047607422,0.031124621629714966,-3.97916316986084
1732873689280730400,3.54973046875,11.077971458435059,0.2825157940387726,-3.428496837615967
1732873689290740200,3.559740234375,11.077971458435059,0.6105214357376099,-2.212242364883423
1732873689300719600,3.5697197265625,11.05402946472168,0.9457096457481384,-1.2761094570159912
1732873689310729500,3.5797294921875,11.133037567138672,1.1851298809051514,-0.646434485912323
1732873689320739000,3.589739013671875,11.547234535217285,1.400607943534851,-0.2944868206977844
1732873689330718500,3.599718505859375,11.750741958618164,1.455674648284912,-0.08140286058187485
1732873689340728300,3.609728271484375,11.70046329498291,1.3718775510787964,0.14365209639072418
1732873689350738000,3.619738037109375,11.619060516357422,1.2737152576446533,0.4357447028160095
1732873689360717000,3.629717041015625,11.025299072265625,1.4628572463989258,0.12210428714752197
1732873689370727000,3.639726806640625,10.515334129333496,1.3527239561080933,0.3208230137825012
1732873689380736800,3.64973681640625,9.746794700622559,1.0558429956436157,0.7829039692878723
1732873689390716000,3.6597158203125,9.107542991638184,0.9720458984375,0.9265560507774353
1732873689400725800,3.669725830078125,8.681375503540039,0.9528923034667969,0.993593692779541
1732873689410735400,3.6797353515625,8.307879447937012,0.6631938815116882,1.2976573705673218
1732873689420714800,3.68971484375,8.109161376953125,0.4884171485900879,1.4772224426269531
1732873689430724600,3.699724609375,8.233659744262695,0.31364041566848755,1.5394717454910278
1732873689440734200,3.709734130859375,8.44195556640625,0.2513911724090576,1.3623007535934448
1732873689450713600,3.719713623046875,8.69095230102539,0.38546648621559143,0.8930372595787048
1732873689460723200,3.72972314453125,9.035717010498047,0.4908113479614258,0.5027823448181152
1732873689470732800,3.73973291015625,9.265560150146484,0.5482721924781799,0.1628057211637497
1732873689480742700,3.74974267578125,9.246406555175781,0.6224924325942993,-0.05267243832349777
1732873689490722000,3.75972216796875,9.057265281677246,0.667982280254364,-0.21787235140800476
1732873689500732000,3.76973193359375,8.793902397155762,0.7805097699165344,-0.2298433631658554
1732873689510741500,3.779741455078125,8.542511940002441,0.950498104095459,-0.18914192914962769
1732873689520721000,3.789720947265625,8.300697326660156,1.0630255937576294,0.014365210197865963
1732873689530730500,3.79973046875,8.202534675598145,1.1563993692398071,0.09816227108240128
1732873689540740400,3.809740234375,8.149862289428711,1.256955862045288,0.17717093229293823
1732873689550719700,3.8197197265625,8.252813339233398,1.237802267074585,0.3208230137825012
1732873689560729300,3.829729248046875,8.69095230102539,1.0893617868423462,0.6033388376235962
1732873689570739200,3.8397392578125,9.023746490478516,0.7996633648872375,1.0606313943862915
1732873689580718300,3.84971826171875,9.346963882446289,0.7829039692878723,0.9768342971801758
1732873689590728200,3.859728271484375,9.528923034667969,0.4668693244457245,1.45806884765625
1732873689600737800,3.86973779296875,9.787496566772461,-0.2106897532939911,2.33913516998291
1732873689610717200,3.87971728515625,10.342951774597168,-0.6991068720817566,2.231395959854126
1732873689620727000,3.88972705078125,10.393229484558105,-0.29209262132644653,1.2042834758758545
1732873689630736600,3.899736572265625,10.086771965026855,0.22744916379451752,0.6320692300796509
1732873689640716000,3.909716064453125,9.904812812805176,-0.002394201699644327,0.8307880163192749
1732873689650726000,3.919725830078125,9.911994934082031,0.49559974670410156,0.9409212470054626
1732873689660735500,3.929735595703125,9.610325813293457,0.9409212470054626,1.2066776752471924
1732873689670714600,3.939714599609375,9.579200744628906,0.912190854549408,1.5442601442337036
1732873689680724500,3.949724365234375,9.725247383117676,0.9169792532920837,1.6280571222305298
1732873689690734000,3.959734130859375,9.454702377319336,0.8164227604866028,1.6543933153152466
1732873689700713500,3.96971337890625,9.184157371520996,0.38307225704193115,1.4532804489135742
1732873689710723300,3.979723388671875,9.351752281188965,0.05985504388809204,0.6560112833976746
1732873689720733000,3.98973291015625,9.782708168029785,0.1604115068912506,-0.17717093229293823
1732873689730742800,3.99974267578125,10.675745010375977,0.3471592366695404,-0.7422025203704834
1732873689740722200,4.00972216796875,11.35809326171875,0.4429273009300232,-0.8786720037460327
1732873689750731800,4.019731689453125,11.623848915100098,0.45489832758903503,-0.6536170840263367
1732873689760741600,4.02974169921875,11.554417610168457,0.3998316824436188,-0.22266076505184174
1732873689770720800,4.039720703125,11.200075149536133,0.3208230137825012,0.12689268589019775
1732873689780730600,4.049730712890625,10.745177268981934,0.2585737705230713,0.45250412821769714
1732873689790740200,4.059740234375,10.730812072753906,0.17717093229293823,0.5937620401382446
1732873689800719600,4.0697197265625,10.991780281066895,0.22744916379451752,0.47644615173339844
1732873689810729200,4.079729248046875,11.305420875549316,0.5554547905921936,0.1843535304069519
1732873689820739000,4.089739013671875,11.465831756591797,1.0534487962722778,-0.181959331035614
1732873689830718500,4.099718505859375,11.262324333190918,1.5275006294250488,-0.5913678407669067
1732873689840728300,4.109728271484375,10.84094524383545,2.118868589401245,-1.1324573755264282
1732873689850738000,4.119738037109375,10.29746150970459,2.583343744277954,-1.7501614093780518
1732873689860717300,4.12971728515625,9.696516990661621,3.026270866394043,-2.0829553604125977
1732873689870727000,4.139726806640625,9.287108421325684,3.2968156337738037,-2.2649147510528564
1732873689880736500,4.149736572265625,9.165003776550293,3.4308910369873047,-2.252943754196167
1732873689890716000,4.1597158203125,9.296685218811035,3.3662476539611816,-2.051830768585205
1732873689900725800,4.169725830078125,9.560047149658203,3.1962592601776123,-1.845929503440857
1732873689910735400,4.1797353515625,9.718064308166504,2.956839084625244,-1.6543933153152466
1732873689920714800,4.18971484375,9.739612579345703,2.580949544906616,-1.357512354850769
1732873689930724600,4.199724609375,9.490615844726562,2.1092917919158936,-1.1516109704971313
1732873689940734200,4.209734130859375,9.210494041442871,1.8195933103561401,-1.0534487962722778
1732873689950713300,4.21971337890625,8.923190116882324,1.5083470344543457,-0.912190854549408
1732873689960723200,4.22972314453125,8.614337921142578,1.316810965538025,-0.811634361743927
1732873689970733000,4.239733154296875,8.341399192810059,1.2258312702178955,-0.8236053586006165
1732873689980742700,4.24974267578125,8.166622161865234,1.2066776752471924,-0.8379706144332886
1732873689990722000,4.25972216796875,8.094796180725098,1.2090718746185303,-0.912190854549408
1732873690000732000,4.26973193359375,8.097189903259277,1.1516109704971313,-1.0414776802062988
1732873690010741500,4.279741455078125,8.070854187011719,1.1324573755264282,-1.237802267074585
1732873690020721000,4.289720947265625,8.279149055480957,1.1348515748977661,-1.3862427473068237
1732873690030730800,4.299730712890625,8.619126319885254,1.113303780555725,-1.4532804489135742
1732873690040740400,4.309740234375,8.920795440673828,1.170764684677124,-1.525106430053711
1732873690050719700,4.3197197265625,9.117119789123535,1.3527239561080933,-1.522712230682373
1732873690060729300,4.329729248046875,9.265560150146484,1.5969325304031372,-1.534683346748352
1732873690070739200,4.3397392578125,9.32302188873291,1.8052281141281128,-1.6400281190872192
1732873690080718300,4.34971826171875,9.440337181091309,1.9728221893310547,-1.7812861204147339
1732873690090728200,4.359728271484375,9.658209800720215,2.078166961669922,-1.9033904075622559
1732873690100737800,4.36973779296875,9.78989028930664,2.1547815799713135,-1.821987509727478
1732873690110717200,4.37971728515625,9.799467086791992,2.2146365642547607,-1.5059528350830078
1732873690120727000,4.38972705078125,9.708487510681152,2.2649147510528564,-1.1037269830703735
1732873690130737000,4.39973681640625,9.313444137573242,2.274491548538208,-0.646434485912323
1732873690140716000,4.409716064453125,8.956708908081055,2.3582887649536133,-0.23702596127986908
1732873690150726000,4.419725830078125,8.619126319885254,2.33913516998291,0.14844051003456116
1732873690160735500,4.429735595703125,8.437167167663574,2.27209734916687,0.5195417404174805
1732873690170714600,4.439714599609375,8.480262756347656,2.2433669567108154,0.9840168952941895
1732873690180724500,4.449724365234375,8.60236644744873,2.3080103397369385,1.1683704853057861
1732873690190734300,4.459734375,8.583212852478027,2.094926595687866,1.3718775510787964
1732873690200713500,4.46971337890625,8.719682693481445,2.0015525817871094,1.4508862495422363
1732873690210723300,4.479723388671875,8.913613319396973,1.8579005002975464,1.5298948287963867
1732873690220733200,4.489733154296875,9.284713745117188,1.656787633895874,1.5682021379470825
1732873690230742800,4.49974267578125,9.72285270690918,1.4867992401123047,1.6352397203445435
1732873690240722200,4.50972216796875,10.278307914733887,1.3455413579940796,1.721431016921997
1732873690250732000,4.51973193359375,10.60391902923584,1.436521053314209,1.8531121015548706
1732873690260741600,4.52974169921875,10.20887565612793,1.6280571222305298,1.8986018896102905
1732873690270720800,4.539720703125,9.605537414550781,1.3048399686813354,1.8171991109848022
1732873690280730400,4.54973046875,9.555258750915527,0.49559974670410156,2.006340980529785
1732873690290740200,4.559740234375,9.761159896850586,-0.3711012601852417,2.4636335372924805
1732873690300719600,4.5697197265625,10.036493301391602,-1.4317326545715332,2.846705913543701
1732873690310275600,4.579275634765625,10.778696060180664,-2.4444799423217773,2.959233283996582
1732873690320285200,4.58928515625,11.99255657196045,-2.978386878967285,2.765302896499634
1732873690330264600,4.5992646484375,13.050793647766113,-3.0310592651367188,2.183511972427368
1732873690340274200,4.609274169921875,13.230358123779297,-2.7988216876983643,1.3623007535934448
1732873690350284000,4.619283935546875,12.871228218078613,-2.33913516998291,-0.016759412363171577
1732873690360263200,4.62926318359375,12.083536148071289,-1.7046716213226318,-1.5298948287963867
1732873690370273000,4.63927294921875,11.039664268493652,-1.015141487121582,-2.693476915359497
1732873690380282600,4.64928271484375,10.431536674499512,-0.5722141861915588,-3.047818660736084
1732873690390262000,4.659261962890625,10.187328338623047,-0.5267243981361389,-2.4229321479797363
1732873690400271600,4.669271728515625,10.319009780883789,-0.44771572947502136,-1.4867992401123047
1732873690410281500,4.679281494140625,10.599130630493164,-0.1412578970193863,-1.1180921792984009
1732873690420260900,4.6892607421875,11.003750801086426,0.2346317619085312,-0.7637503147125244
1732873690430270700,4.699270751953125,11.164162635803223,0.5722141861915588,-0.6584054827690125
1732873690440280300,4.7092802734375,11.080365180969238,0.9720458984375,-0.7469909191131592
1732873690450259700,4.719259765625,10.831368446350098,1.314416766166687,-0.8667010068893433
1732873690460269300,4.729269287109375,10.47702693939209,1.6711528301239014,-1.0558429956436157
1732873690470279000,4.73927880859375,10.127472877502441,1.8483237028121948,-1.4053963422775269
1732873690480288800,4.749288818359375,10.017339706420898,2.0661959648132324,-1.920149803161621
1732873690490268200,4.75926806640625,9.986215591430664,2.1092917919158936,-2.0925323963165283
1732873690500278000,4.769278076171875,10.189722061157227,2.255337953567505,-2.3942017555236816
1732873690510287600,4.77928759765625,10.141838073730469,1.98958158493042,-1.9560627937316895
1732873690520267000,4.78926708984375,9.883264541625977,1.3646949529647827,-0.9002198576927185
1732873690530276600,4.799276611328125,9.81143856048584,0.9289502501487732,-0.10773907601833344
1732873690540286500,4.809286376953125,9.720458984375,0.646434485912323,0.272938996553421
1732873690550265600,4.819265625,9.560047149658203,0.993593692779541,0.8834604024887085
1732873690560275500,4.829275390625,8.932766914367676,0.28969839215278625,0.23942017555236816
1732873690570285000,4.83928515625,8.51138687133789,0.24660277366638184,0.08619125932455063
1732873690580264400,4.849264404296875,8.123526573181152,0.4165911078453064,-0.33997663855552673
1732873690590274300,4.8592744140625,7.704541206359863,0.5985504388809204,-0.8020575642585754
1732873690600284000,4.869283935546875,7.675810813903809,0.6177040338516235,-1.2425906658172607
1732873690610263300,4.87926318359375,8.257601737976074,0.7398083209991455,-1.5107412338256836
1732873690620273200,4.889273193359375,9.071630477905273,0.6847416758537292,-1.6400281190872192
1732873690630282800,4.89928271484375,9.421183586120605,0.5506663918495178,-1.5753847360610962
1732873690640262100,4.90926220703125,9.66539192199707,0.48602294921875,-1.2210428714752197
1732873690650271500,4.919271484375,9.466673851013184,0.47884035110473633,-0.933738648891449
1732873690660281300,4.92928125,9.464279174804688,0.6847416758537292,-0.9648633003234863
1732873690670260700,4.9392607421875,9.229647636413574,0.8188169598579407,-1.0199298858642578
1732873690680270600,4.9492705078125,9.124302864074707,0.7422025203704834,-0.5147533416748047
1732873690690280200,4.9592802734375,9.32541561126709,0.5961562395095825,-0.10534487664699554
1732873690700259600,4.969259521484375,9.44752025604248,0.569819986820221,0.33518823981285095
1732873690710269400,4.97926953125,9.586383819580078,0.6320692300796509,0.5339069962501526
1732873690720279000,4.989279052734375,9.847352027893066,0.6727706789970398,0.5578489899635315
1732873690730289000,4.999288818359375,10.103530883789062,0.5889736413955688,0.7637503147125244
1732873690740268000,5.00926806640625,10.20887565612793,0.42856210470199585,1.0821791887283325
1732873690750278000,5.01927783203125,10.103530883789062,0.1843535304069519,1.290474772453308
1732873690760287500,5.02928759765625,9.974244117736816,0.031124621629714966,1.460463047027588
1732873690770267000,5.039266845703125,9.888052940368652,-0.08619125932455063,1.5394717454910278
1732873690780276700,5.04927685546875,9.825803756713867,-0.002394201699644327,1.5490485429763794
1732873690790286300,5.059286376953125,9.751583099365234,0.24420857429504395,1.745373010635376
1732873690800265700,5.069265625,9.586383819580078,0.4884171485900879,1.7310078144073486
1732873690810275600,5.079275634765625,9.284713745117188,0.47644615173339844,1.3982137441635132
1732873690820285200,5.08928515625,9.121908187866211,-0.05746084079146385,1.1779472827911377
1732873690830264600,5.0992646484375,9.10993766784668,-0.6631938815116882,0.828393816947937
1732873690840274200,5.109274169921875,9.919178009033203,-0.730231523513794,0.08619125932455063
1732873690850284000,5.119283935546875,11.094730377197266,-0.7110779285430908,-1.0654197931289673
1732873690860263200,5.12926318359375,11.959037780761719,-0.8451532125473022,-2.274491548538208
1732873690870273000,5.13927294921875,12.253523826599121,-0.6368576288223267,-3.3638534545898438
1732873690880282600,5.14928271484375,11.903970718383789,-0.40222588181495667,-3.928884983062744
1732873690890262000,5.159261962890625,11.257535934448242,-0.07422025501728058,-4.079719543457031
1732873690900271900,5.16927197265625,10.436325073242188,0.5793967843055725,-4.252102375030518
1732873690910281500,5.179281494140625,10.105925559997559,1.0654197931289673,-3.8067808151245117
1732873690920260900,5.1892607421875,9.727641105651855,1.5394717454910278,-3.713406801223755
1732873690930270700,5.199270751953125,9.287108421325684,1.4867992401123047,-2.8826189041137695
1732873690940280600,5.209280517578125,9.48343276977539,1.455674648284912,-2.80361008644104
1732873690950259500,5.219259521484375,10.070012092590332,1.7549498081207275,-3.8091750144958496
1732873690960269300,5.229269287109375,10.319009780883789,2.0207061767578125,-4.522646903991699
1732873690970279200,5.239279052734375,10.103530883789062,2.233790159225464,-5.154716491699219
1732873690980288800,5.249288818359375,9.481039047241211,2.3487119674682617,-5.585672378540039
1732873690990268200,5.25926806640625,8.884882926940918,2.5330653190612793,-5.906495571136475
1732873691000278000,5.269278076171875,8.640673637390137,2.6575639247894287,-5.942408561706543
1732873691010287600,5.27928759765625,8.887276649475098,2.3104045391082764,-5.078101634979248
1732873691020267000,5.28926708984375,9.406818389892578,1.800439715385437,-4.046200752258301
1732873691030276600,5.299276611328125,9.926360130310059,1.4293384552001953,-3.1316158771514893
1732873691040286500,5.309286376953125,10.079588890075684,1.3431471586227417,-2.6791117191314697
1732873691050265600,5.319265625,10.086771965026855,1.2976573705673218,-2.322375535964966
1732873691060275500,5.329275390625,10.077195167541504,1.0965443849563599,-2.097320795059204
1732873691070285000,5.33928515625,10.067618370056152,0.9217676520347595,-1.9967641830444336
1732873691080264400,5.349264404296875,10.000580787658691,0.8259995579719543,-1.7741034030914307
1732873691090274300,5.3592744140625,9.93593692779541,0.7182605266571045,-1.4844050407409668
1732873691100284000,5.369283935546875,9.5624418258667,0.5602431893348694,-1.3311761617660522
1732873691110263300,5.37926318359375,9.188945770263672,0.38067805767059326,-1.2545616626739502
1732873691120273200,5.389273193359375,9.023746490478516,0.05746084079146385,-1.1204863786697388
1732873691130283000,5.399282958984375,8.995016098022461,-0.2753331959247589,-1.0534487962722778
1732873691140262000,5.409261962890625,9.169792175292969,-0.49559974670410156,-1.1851298809051514
1732873691150271700,5.419271728515625,9.607931137084961,-0.5889736413955688,-1.4269442558288574
1732873691160281300,5.42928125,10.180145263671875,-0.5147533416748047,-1.8986018896102905
1732873691170260700,5.4392607421875,10.630255699157715,-0.2992752194404602,-2.513911724090576
1732873691180270600,5.4492705078125,10.778696060180664,-0.11013327538967133,-2.7222073078155518
1732873691190280200,5.4592802734375,10.426748275756836,0.14365209639072418,-2.7054479122161865
1732873691200259600,5.469259521484375,9.720458984375,0.2944868206977844,-2.609679937362671
1732873691210269400,5.47926953125,8.901641845703125,0.5003881454467773,-2.43011474609375
1732873691220279300,5.489279296875,8.370129585266113,0.6416460275650024,-2.3702597618103027
1732873691230289000,5.499288818359375,7.924807548522949,0.6584054827690125,-2.212242364883423
1732873691240268000,5.50926806640625,7.951143741607666,0.5889736413955688,-1.9321208000183105
1732873691250278000,5.51927783203125,8.159439086914062,0.5171475410461426,-1.6879122257232666
1732873691260287500,5.52928759765625,8.449137687683105,0.44532153010368347,-1.5107412338256836
1732873691270267000,5.539266845703125,8.80587387084961,0.35913026332855225,-1.237802267074585
1732873691280276500,5.5492763671875,9.141061782836914,0.3256114423274994,-1.158793568611145
1732873691290286300,5.559286376953125,9.473855972290039,0.3447650372982025,-1.0295066833496094
1732873691300265700,5.569265625,9.641449928283691,0.524330198764801,-0.9816226959228516
1732873691310275600,5.579275634765625,9.583989143371582,0.49799394607543945,-0.7158663272857666
1732873691320285200,5.58928515625,9.502586364746094,0.5171475410461426,-0.17477671802043915
1732873691330264600,5.5992646484375,9.423578262329102,0.5913678407669067,0.1628057211637497
1732873691340274200,5.609274169921875,9.378087997436523,0.6224924325942993,0.24660277366638184
1732873691350284000,5.619283935546875,9.72285270690918,0.5339069962501526,0.1388636976480484
1732873691360263200,5.62926318359375,10.505757331848145,0.4812345504760742,-0.011971008032560349
1732873691370273000,5.63927294921875,11.104307174682617,0.4189853072166443,-0.20350714027881622
1732873691380283000,5.649282958984375,11.66694450378418,0.0454898327589035,-0.10534487664699554
1732873691390262000,5.659261962890625,11.827356338500977,-0.3016694188117981,0.09816227108240128
1732873691400272000,5.66927197265625,11.793837547302246,-0.5889736413955688,0.19153612852096558
1732873691410281500,5.679281494140625,11.477803230285645,-0.7565677165985107,0.3663128614425659
1732873691420260900,5.6892607421875,10.723628997802734,-0.8044517636299133,0.27054479718208313
1732873691430270700,5.699270751953125,9.95748519897461,-0.6105214357376099,0.2322375625371933
1732873691440280300,5.7092802734375,9.737217903137207,-0.42856210470199585,0.2082955539226532
1732873691450259700,5.719259765625,9.409213066101074,-0.090979665517807,0.2106897532939911
1732873691460269300,5.729269287109375,9.605537414550781,0.7086837291717529,-0.5410895943641663
1732873691470279000,5.73927880859375,8.858546257019043,1.3862427473068237,-0.2298433631658554
1732873691480288800,5.749288818359375,6.768408298492432,2.3774423599243164,2.319981336593628
1732873691490268200,5.75926806640625,6.823474884033203,1.4508862495422363,-2.1045033931732178
1732873691500278000,5.769278076171875,7.331045627593994,1.9105730056762695,-3.045424461364746
1732873691510287600,5.77928759765625,7.671022415161133,2.5905263423919678,-2.7030537128448486
1732873691520267000,5.78926708984375,7.718906402587891,2.5522189140319824,-2.542642116546631
1732873691530276600,5.799276611328125,8.128314971923828,2.499546527862549,-2.760514497756958
1732873691540286500,5.809286376953125,9.425971984863281,2.5785553455352783,-2.75812029838562
1732873691550265600,5.819265625,10.24000072479248,2.470816135406494,-2.7222073078155518
1732873691560275200,5.829275146484375,10.855310440063477,1.4173674583435059,-2.123656988143921
1732873691570285000,5.83928515625,11.580753326416016,0.4884171485900879,-1.9847931861877441
1732873691580264400,5.849264404296875,12.24155330657959,0.12689268589019775,-1.680729627609253
1732873691590274300,5.8592744140625,12.351686477661133,-0.06464344263076782,-1.3215993642807007
1732873691600284000,5.869283935546875,12.310985565185547,-0.5051765441894531,-0.9983820915222168
1732873691610263300,5.87926318359375,12.076353073120117,-0.6129156351089478,0.2537853717803955
1732873691620273200,5.889273193359375,11.798625946044922,-1.0247182846069336,0.8762778043746948
1732873691630282800,5.89928271484375,11.621455192565918,-1.4628572463989258,0.9624691009521484
1732873691640262000,5.909261962890625,11.432312965393066,-1.4652514457702637,1.1300631761550903
1732873691650271700,5.919271728515625,10.718840599060059,-1.434126853942871,1.558625340461731
1732873691660281300,5.92928125,10.06043529510498,-1.2521674633026123,1.7477672100067139
1732873691670260700,5.9392607421875,9.069235801696777,-0.9265560507774353,1.5610195398330688
1732873691680270600,5.9492705078125,8.473079681396484,-0.6416460275650024,1.1061211824417114
1732873691690280200,5.9592802734375,8.070854187011719,-0.4836287498474121,1.0893617868423462
1732873691700259600,5.969259521484375,8.149862289428711,-0.2825157940387726,0.9624691009521484
1732873691710269400,5.97926953125,8.561665534973145,0.23702596127986908,0.706289529800415
1732873691720279000,5.989279052734375,8.913613319396973,0.5889736413955688,0.6368576288223267
1732873691730289000,5.999288818359375,9.160215377807617,0.5003881454467773,0.2777273952960968
1732873691740268000,6.00926806640625,9.0859956741333,0.4620809257030487,0.11971008777618408
1732873691750278000,6.01927783203125,9.081207275390625,0.4572925269603729,0.40940847992897034
1732873691760287500,6.02928759765625,8.719682693481445,0.40701428055763245,0.6943184733390808
1732873691770267000,6.039266845703125,8.374917984008789,0.363918662071228,0.5171475410461426
1732873691780276700,6.04927685546875,8.17141056060791,0.21547815203666687,0.26815059781074524
1732873691790286300,6.059286376953125,8.087613105773926,0.1388636976480484,0.33758243918418884
1732873691800265700,6.069265625,7.864952564239502,0.009576806798577309,0.3734954595565796
1732873691810275600,6.079275634765625,8.154650688171387,-0.12689268589019775,0.20111294090747833
1732873691820285200,6.08928515625,8.760383605957031,-0.20350714027881622,0.14365209639072418
1732873691830264600,6.0992646484375,9.279925346374512,-0.24660277366638184,-0.33758243918418884
1732873691840274200,6.109274169921875,9.751583099365234,-0.0071826050989329815,-1.0127472877502441
1732873691850284000,6.119283935546875,10.182539939880371,0.37828385829925537,-1.5658079385757446
1732873691860263400,6.129263427734375,10.57040023803711,0.7038952708244324,-1.8914192914962769
1732873691870273000,6.13927294921875,11.185709953308105,1.0845733880996704,-2.0207061767578125
1732873691880282600,6.14928271484375,11.963826179504395,1.7190368175506592,-2.2218191623687744
1732873691890262000,6.159261962890625,12.710816383361816,2.8371291160583496,-2.628833532333374
1732873691900271900,6.16927197265625,12.763489723205566,3.8115692138671875,-2.87064790725708
1732873691910281500,6.179281494140625,11.820174217224121,4.4939165115356445,-3.0597896575927734
1732873691920260900,6.1892607421875,10.144232749938965,4.879383087158203,-3.1531636714935303
1732873691930270700,6.199270751953125,7.620744228363037,4.750096321105957,-3.2369606494903564
1732873691940280600,6.209280517578125,5.87776517868042,4.1180267333984375,-2.7892448902130127
1732873691950259500,6.219259521484375,6.53377628326416,3.2106244564056396,-2.557007312774658
1732873691960269300,6.229269287109375,9.48343276977539,1.987187385559082,-2.762908697128296
1732873691970279200,6.239279052734375,12.619836807250977,1.4460978507995605,-3.222595453262329
1732873691980288800,6.249288818359375,15.557522773742676,0.9097966551780701,-2.980781078338623
1732873691990268200,6.25926806640625,16.70673942565918,0.768538773059845,-2.7437551021575928
1732873692000278000,6.269278076171875,16.263813018798828,1.1252747774124146,-2.8802247047424316
1732873692010287600,6.27928759765625,14.927847862243652,1.6328455209732056,-3.112462282180786
1732873692020267000,6.28926708984375,12.660538673400879,1.9369091987609863,-3.07415509223938
1732873692030276900,6.29927685546875,10.307038307189941,1.9584569931030273,-2.6886885166168213
1732873692040286500,6.309286376953125,8.372523307800293,1.9823989868164062,-2.3511061668395996
1732873692050265600,6.319265625,7.204153060913086,2.300827741622925,-2.6024973392486572
1732873692060275500,6.329275390625,6.919242858886719,2.209848165512085,-2.3319525718688965
1732873692070285000,6.33928515625,6.366182327270508,1.8579005002975464,-1.7501614093780518
1732873692080264400,6.349264404296875,5.925649166107178,1.625662922859192,-1.2330138683319092
1732873692090274300,6.3592744140625,5.688623428344727,1.400607943534851,-0.871489405632019
1732873692100284000,6.369283935546875,5.679046630859375,1.1540051698684692,-0.6991068720817566
1732873692110263300,6.37926318359375,5.913678169250488,0.8834604024887085,-0.7182605266571045
1732873692120273200,6.389273193359375,6.3063273429870605,0.7948749661445618,-0.7661445140838623
1732873692130283000,6.399282958984375,6.6391215324401855,0.8810662031173706,-0.9169792532920837
1732873692140262000,6.409261962890625,7.007828235626221,1.0271124839782715,-1.137245774269104
1732873692150271700,6.419271728515625,7.599195957183838,1.3431471586227417,-1.742978811264038
1732873692160281300,6.42928125,8.595184326171875,1.5753847360610962,-2.22660756111145
1732873692170260700,6.4392607421875,9.433155059814453,1.577778935432434,-2.451662540435791
1732873692180270600,6.4492705078125,9.904812812805176,1.5322890281677246,-2.5282769203186035
1732873692190280400,6.459280517578125,10.103530883789062,1.4724340438842773,-2.4205379486083984
1732873692200259600,6.469259521484375,10.290278434753418,1.2832920551300049,-2.1811177730560303
1732873692210269400,6.47926953125,10.539276123046875,1.1061211824417114,-2.013523578643799
1732873692220279300,6.489279296875,10.812214851379395,0.9433154463768005,-1.7884687185287476
1732873692230289000,6.499288818359375,11.037269592285156,0.8020575642585754,-1.5466543436050415
1732873692240268000,6.50926806640625,10.977415084838867,0.7038952708244324,-1.3910311460494995
1732873692250278000,6.51927783203125,10.522516250610352,0.6751648783683777,-1.2976573705673218
1732873692260287500,6.52928759765625,9.830592155456543,0.751779317855835,-1.235408067703247
1732873692270267000,6.539266845703125,9.066842079162598,0.790086567401886,-1.3120225667953491
1732873692280276500,6.5492763671875,8.508993148803711,0.8044517636299133,-1.4772224426269531
1732873692290286300,6.559286376953125,8.145073890686035,0.8044517636299133,-1.742978811264038
1732873692300265700,6.569265625,8.006210327148438,0.7637503147125244,-2.1308395862579346
1732873692310275600,6.579275634765625,8.221688270568848,0.6488286852836609,-2.4372973442077637
1732873692320285200,6.58928515625,8.822632789611816,0.3711012601852417,-2.319981336593628
1732873692330264600,6.5992646484375,9.624691009521484,0.05985504388809204,-2.1475989818573
1732873692340274200,6.609274169921875,10.503362655639648,-0.11252748221158981,-1.8483237028121948
1732873692350284000,6.619283935546875,10.96544361114502,-0.15562310814857483,-1.01753568649292
1732873692360263200,6.62926318359375,10.522516250610352,0.05746084079146385,-0.23702596127986908
1732873692370273000,6.63927294921875,9.277531623840332,0.49799394607543945,0.22744916379451752
1732873692380283000,6.649282958984375,7.613561630249023,0.8092401623725891,0.18914192914962769
1732873692390262000,6.659261962890625,6.289567947387695,1.0295066833496094,0.2537853717803955
1732873692400272000,6.66927197265625,5.442020416259766,1.0630255937576294,0.4381389021873474
1732873692410281500,6.679281494140625,5.4444146156311035,1.137245774269104,0.3208230137825012
1732873692420260900,6.6892607421875,6.426037311553955,1.2617442607879639,-0.08619125932455063
1732873692430270700,6.699270751953125,8.020575523376465,0.7326257228851318,0.2968810200691223
1732873692440280300,6.7092802734375,9.588777542114258,0.3711012601852417,0.7493851184844971
1732873692450259700,6.719259765625,10.754754066467285,0.363918662071228,1.1085153818130493
1732873692460269300,6.729269287109375,11.702857971191406,0.4908113479614258,0.9768342971801758
1732873692470279000,6.73927880859375,12.258312225341797,1.0797849893569946,-0.033518824726343155
1732873692480288800,6.749288818359375,13.127408027648926,1.8100165128707886,-1.0678139925003052
1732873692490268200,6.75926806640625,14.228740692138672,2.1739351749420166,-1.900996208190918
1732873692500278000,6.769278076171875,15.12417221069336,2.410961151123047,-2.38462495803833
1732873692510287600,6.77928759765625,15.852009773254395,2.564189910888672,-2.669534921646118
1732873692520267000,6.78926708984375,16.266206741333008,2.5665841102600098,-2.7437551021575928
1732873692530276600,6.799276611328125,16.369157791137695,2.477998733520508,-2.8826189041137695
1732873692540286500,6.809286376953125,15.761030197143555,2.3918075561523438,-2.8155810832977295
1732873692550265600,6.819265625,14.341268539428711,2.4133553504943848,-2.607285737991333
1732873692560275500,6.829275390625,12.926295280456543,2.2673089504241943,-2.161964178085327
1732873692570285000,6.83928515625,11.528080940246582,1.8842366933822632,-1.5634137392044067
1732873692580264400,6.849264404296875,10.793061256408691,1.5610195398330688,-1.0869675874710083
1732873692590274300,6.8592744140625,10.802638053894043,1.0965443849563599,-0.5099649429321289
1732873692600284000,6.869283935546875,10.723628997802734,0.629675030708313,-0.08379705995321274
1732873692610263300,6.87926318359375,10.594342231750488,0.40462008118629456,-0.09576806426048279
1732873692620273200,6.889273193359375,10.247182846069336,0.23942017555236816,-0.0933738648891449
1732873692630282800,6.89928271484375,9.47146224975586,0.07900865375995636,-0.1173158809542656
1732873692640262100,6.90926220703125,8.796297073364258,0.09576806426048279,-0.5817909836769104
1732873692650271700,6.919271728515625,8.358158111572266,0.2753331959247589,-1.1348515748977661
1732873692660281300,6.92928125,8.327033042907715,0.45250412821769714,-1.6424223184585571
1732873692670260700,6.9392607421875,8.468291282653809,0.4381389021873474,-1.599326729774475
1732873692680270600,6.9492705078125,8.379706382751465,0.42856210470199585,-1.3263877630233765
1732873692690280200,6.9592802734375,8.336610794067383,0.5147533416748047,-0.9959878921508789
1732873692700259600,6.969259521484375,7.750030994415283,0.608127236366272,-0.9265560507774353
1732873692710269400,6.97926953125,7.42681360244751,0.8643068075180054,-1.0031704902648926
1732873692720279000,6.989279052734375,7.261613845825195,0.9672574996948242,-0.6727706789970398
1732873692730289000,6.999288818359375,6.904877662658691,1.1252747774124146,-0.49559974670410156
1732873692740268000,7.00926806640625,6.756437301635742,1.3239935636520386,-0.5674257874488831
1732873692750278000,7.01927783203125,6.421248912811279,1.4652514457702637,-0.6177040338516235
1732873692760287500,7.02928759765625,6.277596950531006,1.5849615335464478,-0.8427590131759644
1732873692770267000,7.039266845703125,7.005434036254883,1.5131354331970215,-0.6320692300796509
1732873692780276700,7.04927685546875,7.845798969268799,1.2330138683319092,-0.0694318488240242
1732873692790286300,7.059286376953125,8.848969459533691,0.7134721279144287,0.7972691655158997
1732873692800265700,7.069265625,9.75637149810791,0.40701428055763245,1.8531121015548706
1732873692810275300,7.079275390625,10.96544361114502,0.05746084079146385,1.9393033981323242
1732873692820285200,7.08928515625,12.667720794677734,0.4429273009300232,1.113303780555725
1732873692830264600,7.0992646484375,13.098677635192871,0.40222588181495667,0.6871358752250671
1732873692840274400,7.1092744140625,12.768278121948242,0.33997663855552673,0.06464344263076782
1732873692850284000,7.119283935546875,12.148179054260254,0.47644615173339844,-0.5291185975074768
1732873692860263400,7.129263427734375,11.276689529418945,0.730231523513794,-0.9888052940368652
1732873692870273000,7.13927294921875,10.400412559509277,0.8451532125473022,-1.4173674583435059
1732873692880282600,7.14928271484375,9.57201862335205,0.9911994934082031,-1.6639702320098877
1732873692890262000,7.159261962890625,9.064447402954102,0.9026140570640564,-0.8858546018600464
1732873692900271900,7.16927197265625,8.456320762634277,0.7350199222564697,0.043095629662275314
1732873692910281500,7.179281494140625,7.536946773529053,0.7374141216278076,0.5793967843055725
1732873692920260900,7.1892607421875,7.247248649597168,0.5722141861915588,1.1563993692398071
1732873692930270700,7.199270751953125,7.156269073486328,0.40940847992897034,1.4101848602294922
1732873692940280600,7.209280517578125,7.4986395835876465,0.45250412821769714,1.2210428714752197
1732873692950259500,7.219259521484375,8.10437297821045,0.7493851184844971,0.33518823981285095
1732873692960269300,7.229269287109375,9.191340446472168,1.1803414821624756,-1.2234370708465576
1732873692970279200,7.239279052734375,11.037269592285156,1.678335428237915,-2.8658595085144043
1732873692980288800,7.249288818359375,11.882423400878906,1.9249382019042969,-3.665522813796997
1732873692990268200,7.25926806640625,12.12902545928955,2.118868589401245,-3.6990416049957275
1732873693000278000,7.269278076171875,11.872846603393555,1.821987509727478,-2.604891538619995
1732873693010287600,7.27928759765625,11.334151268005371,2.006340980529785,-1.8124107122421265
1732873693020267000,7.28926708984375,10.47942066192627,2.4827871322631836,-1.8411411046981812
1732873693030276900,7.29927685546875,9.84256362915039,2.4827871322631836,-1.5059528350830078
1732873693040286500,7.309286376953125,9.883264541625977,2.3558945655822754,-0.8882488012313843
1732873693050265600,7.319265625,10.141838073730469,2.4181437492370605,-0.5554547905921936
1732873693060275500,7.329275390625,10.005369186401367,2.9496564865112305,-0.8020575642585754
1732873693070285000,7.33928515625,9.624691009521484,3.2297780513763428,-1.558625340461731
1732873693080264400,7.349264404296875,9.339780807495117,3.2154128551483154,-1.8914192914962769
1732873693090274300,7.3592744140625,8.851364135742188,3.004723072052002,-2.161964178085327
1732873693100284000,7.369283935546875,9.782708168029785,2.5785553455352783,-2.6455929279327393
1732873693110263300,7.37926318359375,10.793061256408691,2.229001760482788,-3.464409828186035
1732873693120273200,7.389273193359375,11.403582572937012,2.2002713680267334,-4.546588897705078
1732873693130282800,7.39928271484375,12.054805755615234,2.233790159225464,-4.165910720825195
1732873693140262000,7.409261962890625,11.896788597106934,1.7597382068634033,-2.9712042808532715
1732873693150271700,7.419271728515625,11.264719009399414,1.8363527059555054,-1.941697597503662
1732873693160281300,7.42928125,10.517727851867676,1.8579005002975464,-1.3120225667953491
1732873693170260700,7.4392607421875,9.397241592407227,1.9345149993896484,-1.0582371950149536
1732873693180270600,7.4492705078125,8.403648376464844,2.011129379272461,-1.05105459690094
1732873693190280400,7.459280517578125,7.479485988616943,2.0231003761291504,-1.173158884048462
1732873693200259600,7.469259521484375,7.050923824310303,2.0422539710998535,-1.280897855758667
1732873693210269400,7.47926953125,6.885724067687988,1.987187385559082,-1.580173134803772
1732873693220279000,7.489279052734375,6.809109687805176,1.965639591217041,-1.9584569931030273
1732873693230289000,7.499288818359375,7.220912456512451,1.7741034030914307,-2.5953147411346436
1732873693240268000,7.50926806640625,8.149862289428711,1.5825673341751099,-2.80361008644104
1732873693250278000,7.51927783203125,8.473079681396484,1.5849615335464478,-2.8155810832977295
1732873693260287500,7.52928759765625,9.27034854888916,1.3862427473068237,-2.3295583724975586
1732873693270267000,7.539266845703125,9.641449928283691,1.3407529592514038,-1.6927006244659424
1732873693280276500,7.5492763671875,9.86889934539795,1.3024457693099976,-1.1468225717544556
1732873693290286300,7.559286376953125,9.861717224121094,1.3862427473068237,-1.0773907899856567
1732873693300265700,7.569265625,10.043676376342773,1.5538369417190552,-1.0989385843276978
1732873693310275600,7.579275634765625,9.995792388916016,1.699883222579956,-1.213860273361206
1732873693320285200,7.58928515625,9.701305389404297,1.8579005002975464,-1.4939818382263184
1732873693330264600,7.5992646484375,9.526528358459473,1.944091796875,-1.6328455209732056
1732873693340274400,7.6092744140625,9.516951560974121,1.9105730056762695,-1.5298948287963867
1732873693350284000,7.619283935546875,9.50498104095459,1.920149803161621,-1.4077905416488647
1732873693360263200,7.62926318359375,9.351752281188965,1.9345149993896484,-1.3048399686813354
1732873693370273000,7.63927294921875,9.318233489990234,1.867477297782898,-0.9959878921508789
1732873693380283000,7.649282958984375,9.246406555175781,1.800439715385437,-0.5985504388809204
1732873693390262000,7.659261962890625,9.011775016784668,1.7334020137786865,-0.24420857429504395
1732873693400271600,7.669271728515625,8.753201484680176,1.50355863571167,0.18914192914962769
1732873693410281500,7.679281494140625,8.212111473083496,1.3215993642807007,0.6320692300796509
1732873693420260900,7.6892607421875,7.687781810760498,1.1659762859344482,0.993593692779541
1732873693430270700,7.699270751953125,7.601590633392334,1.0989385843276978,1.213860273361206
1732873693440280300,7.7092802734375,7.829039573669434,1.1851298809051514,0.8259995579719543
1732873693450259700,7.719259765625,8.604761123657227,1.1994950771331787,0.2968810200691223
1732873693460269300,7.729269287109375,9.715670585632324,1.3407529592514038,-0.5817909836769104
1732873693470279000,7.73927880859375,10.496180534362793,1.678335428237915,-0.8762778043746948
1732873693480288800,7.749288818359375,10.395624160766602,2.1092917919158936,-0.8212111592292786
1732873693490268200,7.75926806640625,9.928754806518555,2.4660277366638184,-0.8738836050033569
1732873693500278000,7.769278076171875,9.35654067993164,2.607285737991333,-0.8643068075180054
1732873693510287600,7.77928759765625,9.064447402954102,2.4612393379211426,-0.8954314589500427
1732873693520267000,7.78926708984375,10.103530883789062,2.0446481704711914,-0.8667010068893433
1732873693530276600,7.799276611328125,11.520898818969727,1.6543933153152466,-0.7661445140838623
1732873693540286500,7.809286376953125,13.30457878112793,1.4269442558288574,-1.3551181554794312
1732873693550265600,7.819265625,15.545551300048828,1.3096283674240112,-1.6759412288665771
1732873693560275500,7.829275390625,16.850391387939453,1.3982137441635132,-1.53707754611969
1732873693570285000,7.83928515625,16.27338981628418,2.008735179901123,-1.6424223184585571
1732873693580264400,7.849264404296875,14.858415603637695,2.4133553504943848,-1.6160861253738403
1732873693590274300,7.8592744140625,12.665327072143555,2.676717519760132,-1.2521674633026123
1732873693600284000,7.869283935546875,10.912771224975586,2.896984100341797,-1.0414776802062988
1732873693610263300,7.87926318359375,9.569623947143555,2.956839084625244,-1.01753568649292
1732873693620273200,7.889273193359375,8.432378768920898,2.655169725418091,-0.5817909836769104
1732873693630283000,7.899282958984375,7.105990409851074,2.470816135406494,-0.31124621629714966
1732873693640262000,7.909261962890625,6.387730121612549,2.2457611560821533,-0.23702596127986908
1732873693650271500,7.919271484375,6.057330131530762,1.889025092124939,0.043095629662275314
1732873693660281300,7.92928125,6.145915985107422,1.6208745241165161,0.29209262132644653
1732873693670260700,7.9392607421875,6.84981107711792,1.4939818382263184,0.36152446269989014
1732873693680270600,7.9492705078125,7.503427982330322,1.5634137392044067,0.10055647045373917
1732873693690280200,7.9592802734375,7.675810813903809,1.7262194156646729,-0.2777273952960968
1732873693700259600,7.969259521484375,8.17141056060791,1.7932571172714233,-0.689530074596405
1732873693710269400,7.97926953125,8.406042098999023,1.8531121015548706,-0.790086567401886
1732873693720279000,7.989279052734375,8.027758598327637,1.8148049116134644,-0.727837324142456
1732873693730289000,7.999288818359375,8.20732307434082,1.7980455160140991,-0.5339069962501526
1732873693740268000,8.00926806640625,8.920795440673828,1.580173134803772,-0.05985504388809204
1732873693750278000,8.01927783203125,9.607931137084961,1.37906014919281,0.5506663918495178
1732873693760287500,8.02928759765625,10.280701637268066,1.1994950771331787,1.216254472732544
1732873693770267000,8.039266845703125,10.584765434265137,1.1899182796478271,1.8100165128707886
1732873693780276500,8.0492763671875,10.436325073242188,1.3407529592514038,2.0614075660705566
1732873693790286300,8.059286376953125,10.06043529510498,1.5155296325683594,1.9752163887023926
1732873693800265700,8.069265625,9.684545516967773,1.6400281190872192,1.8387469053268433
1732873693810275600,8.079275634765626,9.255983352661133,1.6927006244659424,1.6879122257232666
1732873693820285200,8.08928515625,9.062053680419922,1.6352397203445435,1.6136919260025024
1732873693830264600,8.0992646484375,9.071630477905273,1.577778935432434,1.359906554222107
1732873693840274400,8.1092744140625,9.069235801696777,1.50355863571167,0.9840168952941895
1732873693850284000,8.119283935546875,9.126696586608887,1.4844050407409668,0.7541735172271729
1732873693860263200,8.12926318359375,9.169792175292969,1.5179238319396973,0.7086837291717529
1732873693870273000,8.13927294921875,9.064447402954102,1.4963760375976562,0.7086837291717529
1732873693880283000,8.149282958984376,8.939949035644531,1.53707754611969,0.6703764796257019
1732873693890262000,8.159261962890625,8.83699893951416,1.6759412288665771,0.33518823981285095
1732873693900271900,8.16927197265625,8.78432559967041,1.8315643072128296,-0.002394201699644327
1732873693910281500,8.179281494140625,8.7268648147583,1.8770540952682495,-0.0694318488240242
1732873693920260900,8.1892607421875,8.621520042419434,1.6735470294952393,0.1843535304069519
1732873693930270700,8.199270751953126,8.571242332458496,1.4939818382263184,0.5147533416748047
1732873693940280300,8.2092802734375,8.777143478393555,1.4317326545715332,0.8140285611152649
1732873693950259700,8.219259765625,9.184157371520996,1.400607943534851,0.8259995579719543
1732873693960269300,8.229269287109375,9.706093788146973,1.522712230682373,0.7829039692878723
1732873693970279000,8.23927880859375,10.007762908935547,1.623268723487854,0.7852981686592102
1732873693980288800,8.249288818359375,10.235212326049805,1.9321208000183105,0.5578489899635315
1732873693990268200,8.25926806640625,10.160991668701172,2.185906171798706,0.1628057211637497
1732873694000278000,8.269278076171876,10.091560363769531,2.4396915435791016,-0.43095630407333374
1732873694010287600,8.27928759765625,10.237606048583984,2.540247917175293,-0.8667010068893433
1732873694020267000,8.28926708984375,10.74996566772461,2.5019407272338867,-0.993593692779541
1732873694030276600,8.299276611328125,11.614272117614746,2.209848165512085,-0.9457096457481384
1732873694040286500,8.309286376953125,12.552799224853516,1.9847931861877441,-1.0103530883789062
1732873694050265600,8.319265625,13.709198951721191,1.8770540952682495,-1.1899182796478271
1732873694060275500,8.329275390625,14.374787330627441,1.8986018896102905,-1.2689268589019775
1732873694070285000,8.33928515625,14.520833015441895,2.094926595687866,-1.0462661981582642
1732873694080264400,8.349264404296875,14.008474349975586,2.4420857429504395,-0.8571242094039917
1732873694090274300,8.3592744140625,12.832921028137207,2.6360161304473877,-0.7469909191131592
1732873694100284000,8.369283935546875,11.611878395080566,2.8347349166870117,-0.6727706789970398
1732873694110263300,8.37926318359375,9.983820915222168,2.980781078338623,-0.7158663272857666
1732873694120273200,8.389273193359376,8.631096839904785,2.918531894683838,-0.7230489253997803
1732873694130283000,8.399282958984376,7.723694801330566,2.760514497756958,-0.689530074596405
1732873694140262000,8.409261962890625,7.196970462799072,2.557007312774658,-0.6248866319656372
1732873694150271700,8.419271728515625,7.204153060913086,2.346317768096924,-0.7086837291717529
1732873694160281300,8.42928125,7.618350028991699,2.0422539710998535,-0.8188169598579407
1732873694170260700,8.4392607421875,8.245630264282227,1.7764976024627686,-0.9217676520347595
1732873694180270600,8.4492705078125,8.920795440673828,1.5729905366897583,-0.9409212470054626
1732873694190280200,8.4592802734375,9.26795482635498,1.4437036514282227,-1.072602391242981
1732873694200259600,8.469259521484375,9.308655738830566,1.434126853942871,-1.2258312702178955
1732873694210269400,8.47926953125,9.047688484191895,1.4772224426269531,-1.2737152576446533
1732873694220279000,8.489279052734375,8.638279914855957,1.5442601442337036,-1.170764684677124
1732873694230289000,8.499288818359375,8.250418663024902,1.6089035272598267,-0.9959878921508789
1732873694240268000,8.50926806640625,7.939172744750977,1.647210717201233,-0.8164227604866028
1732873694250278000,8.51927783203125,7.790732383728027,1.6879122257232666,-0.6057330369949341
1732873694260287500,8.52928759765625,7.841010570526123,1.6400281190872192,-0.5626373887062073
1732873694270267000,8.539266845703125,8.130708694458008,1.5753847360610962,-0.5027823448181152
1732873694280276500,8.5492763671875,8.49941635131836,1.5322890281677246,-0.5267243981361389
1732873694290286300,8.559286376953125,8.772355079650879,1.4748282432556152,-0.47884035110473633
1732873694300265700,8.569265625,8.78432559967041,1.4700398445129395,-0.38067805767059326
1732873694310275600,8.579275634765626,8.650250434875488,1.5083470344543457,-0.33279404044151306
1732873694320285200,8.58928515625,8.487444877624512,1.5466543436050415,-0.4429273009300232
1732873694330264600,8.5992646484375,8.279149055480957,1.5179238319396973,-0.5267243981361389
1732873694340274400,8.6092744140625,8.109161376953125,1.4197616577148438,-0.49320554733276367
1732873694350284000,8.619283935546875,7.924807548522949,1.41257905960083,-0.5147533416748047
1732873694360263200,8.62926318359375,7.90086555480957,1.3934253454208374,-0.3687070608139038
1732873694370273000,8.63927294921875,7.649474620819092,1.5059528350830078,-0.181959331035614
1732873694380283000,8.649282958984376,7.053318023681641,1.7094600200653076,-0.0933738648891449
1732873694390262000,8.659261962890625,6.538564682006836,1.8100165128707886,0.14844051003456116
1732873694400271600,8.669271728515625,6.0190229415893555,1.8602946996688843,0.3734954595565796
1732873694410281500,8.679281494140625,5.719748020172119,1.802833914756775,0.6392518281936646
1732873694420260900,8.6892607421875,6.294356346130371,1.5059528350830078,0.8355764150619507
1732873694430270700,8.699270751953126,7.716512203216553,1.139639973640442,0.8810662031173706
1732873694440280300,8.7092802734375,9.48343276977539,0.9552865028381348,0.8762778043746948
1732873694450259700,8.719259765625,11.142614364624023,1.1635819673538208,0.3495534360408783
1732873694460269300,8.729269287109375,11.882423400878906,1.4867992401123047,-0.22744916379451752
1732873694470279000,8.73927880859375,11.949460983276367,1.7836803197860718,-0.42856210470199585
1732873694480288800,8.749288818359375,11.32457447052002,2.1068975925445557,-0.40701428055763245
1732873694490268200,8.75926806640625,10.347740173339844,2.3295583724975586,-0.304063618183136
1732873694500278000,8.769278076171876,9.852140426635742,2.408566951751709,-0.30885201692581177
1732873694510287600,8.77928759765625,9.667786598205566,2.456450939178467,-0.47644615173339844
1732873694520267000,8.78926708984375,9.947908401489258,2.319981336593628,-0.6105214357376099
1732873694530276600,8.799276611328125,10.809821128845215,1.9297266006469727,-0.5554547905921936
1732873694540286500,8.809286376953125,11.990161895751953,1.5203180313110352,-0.48602294921875
1732873694550265600,8.819265625,13.55118179321289,1.0821791887283325,-0.47165772318840027
1732873694560275500,8.829275390625,14.97573184967041,1.094150185585022,-0.6655880808830261
1732873694570285000,8.83928515625,15.828067779541016,0.9002198576927185,-0.37828385829925537
1732873694580264400,8.849264404296875,15.976508140563965,1.0773907899856567,0.038307227194309235
1732873694590274300,8.8592744140625,15.143325805664062,1.3024457693099976,0.37828385829925537
1732873694600284000,8.869283935546875,13.668497085571289,1.6184803247451782,0.6129156351089478
1732873694610263300,8.87926318359375,12.222399711608887,1.9105730056762695,0.6584054827690125
1732873694620273200,8.889273193359376,10.766724586486816,2.0470423698425293,0.6560112833976746
1732873694630283000,8.899282958984376,9.940725326538086,2.030282974243164,0.6584054827690125
1732873694640262000,8.909261962890625,9.586383819580078,1.843535304069519,0.5171475410461426
1732873694650271700,8.919271728515625,9.636661529541016,1.6208745241165161,0.2298433631658554
1732873694660281300,8.92928125,9.775525093078613,1.3503297567367554,-0.07422025501728058
1732873694670260700,8.9392607421875,9.758766174316406,1.0630255937576294,-0.0933738648891449
1732873694680270600,8.9492705078125,9.564835548400879,0.8595184087753296,0.05985504388809204
1732873694690280200,8.9592802734375,9.229647636413574,0.6607996821403503,0.35673606395721436
1732873694700259600,8.969259521484375,8.803479194641113,0.6129156351089478,0.608127236366272
1732873694710269400,8.97926953125,8.33182144165039,0.6105214357376099,0.7422025203704834
1732873694720279000,8.989279052734375,8.109161376953125,0.6177040338516235,0.9097966551780701
1732873694730289000,8.999288818359375,7.9846625328063965,0.6416460275650024,1.0295066833496094
1732873694740268000,9.00926806640625,8.200140953063965,0.6775590777397156,0.9409212470054626
1732873694750278000,9.01927783203125,8.815450668334961,0.586579442024231,0.6943184733390808
1732873694760287700,9.029287841796876,9.437943458557129,0.4429273009300232,0.7374141216278076
1732873694770267000,9.039266845703125,10.105925559997559,0.3064578175544739,0.8451532125473022
1732873694780276500,9.0492763671875,10.630255699157715,0.2082955539226532,0.9265560507774353
1732873694790286300,9.059286376953125,10.953473091125488,0.2513911724090576,0.8978256583213806
1732873694800265700,9.069265625,10.917559623718262,0.2968810200691223,0.9624691009521484
1732873694810275600,9.079275634765626,10.536881446838379,0.3926490843296051,1.1252747774124146
1732873694820285200,9.08928515625,9.959878921508789,0.5578489899635315,1.1324573755264282
1732873694830264600,9.0992646484375,9.481039047241211,0.6607996821403503,1.1348515748977661
1732873694840274400,9.1092744140625,9.246406555175781,0.7326257228851318,1.158793568611145
1732873694850284000,9.119283935546875,9.275136947631836,0.8259995579719543,1.0965443849563599
1732873694860263200,9.12926318359375,9.586383819580078,0.8427590131759644,1.0319008827209473
1732873694870273000,9.13927294921875,9.804255485534668,0.849941611289978,1.0271124839782715
1732873694880283000,9.149282958984376,9.955090522766113,0.7709329724311829,0.9169792532920837
1732873694890262000,9.159261962890625,10.213664054870605,0.7493851184844971,0.706289529800415
1732873694900271600,9.169271728515625,10.469843864440918,0.6751648783683777,0.5147533416748047
1732873694910281500,9.179281494140625,10.884040832519531,0.3232172429561615,0.44532153010368347
1732873694920260900,9.1892607421875,11.195286750793457,0.0694318488240242,0.6488286852836609
1732873694930270700,9.199270751953126,10.864887237548828,-0.1412578970193863,1.235408067703247
1732873694940280300,9.2092802734375,10.230423927307129,-0.16998831927776337,1.8842366933822632
1732873694950259700,9.219259765625,9.224859237670898,-0.05985504388809204,2.5689783096313477
1732873694960269300,9.229269287109375,8.192957878112793,0.07422025501728058,3.2345664501190186
1732873694970279000,9.23927880859375,7.0126166343688965,0.49559974670410156,3.533841609954834
1732873694980288800,9.249288818359375,6.282385349273682,0.5482721924781799,4.000710964202881
1732873694990268200,9.25926806640625,5.858611583709717,0.9265560507774353,3.866635799407959
1732873695000278000,9.269278076171876,5.837063789367676,1.3096283674240112,3.361459255218506
1732873695010287600,9.27928759765625,6.172252178192139,1.6615760326385498,2.8826189041137695
1732873695020267000,9.28926708984375,6.777985095977783,2.0614075660705566,2.559401512145996
1732873695030276600,9.299276611328125,7.510610580444336,2.3487119674682617,2.432508945465088
1732873695040286500,9.309286376953125,8.51138687133789,2.561795711517334,2.2361843585968018
1732873695050265600,9.319265625,9.387664794921875,2.801215887069702,1.7381904125213623
1732873695060275500,9.329275390625,10.20648193359375,2.999934673309326,1.158793568611145
1732873695070285000,9.33928515625,11.003750801086426,3.021482467651367,0.6440402865409851
1732873695080264400,9.349264404296875,12.078747749328613,2.9712042808532715,0.1628057211637497
1732873695090274300,9.3592744140625,12.72757625579834,2.8347349166870117,-0.05267243832349777
1732873695100284000,9.369283935546875,13.311761856079102,2.6216509342193604,-0.24660277366638184
1732873695110263300,9.37926318359375,13.493721008300781,2.454056739807129,-0.22026655077934265
1732873695120273200,9.389273193359376,13.366827964782715,2.4803929328918457,-0.26336219906806946
1732873695130283000,9.399282958984376,12.919112205505371,2.7126305103302,-0.7015010714530945
1732873695140262000,9.409261962890625,12.239158630371094,3.045424461364746,-1.4748282432556152
1732873695150271700,9.419271728515625,11.465831756591797,3.3063924312591553,-2.454056739807129
1732873695160281300,9.42928125,11.113883972167969,3.3016040325164795,-3.1483752727508545
1732873695170260700,9.4392607421875,11.501745223999023,2.782062292098999,-3.160346269607544
1732873695180270600,9.4492705078125,11.695674896240234,2.497152328491211,-3.141192674636841
1732873695190280200,9.4592802734375,11.362881660461426,2.3104045391082764,-3.3039982318878174
1732873695200259600,9.469259521484375,10.709263801574707,2.2242133617401123,-3.1866824626922607
1732873695210269400,9.47926953125,9.66299819946289,2.161964178085327,-2.6431987285614014
1732873695220279000,9.489279052734375,8.463502883911133,2.0015525817871094,-1.8339585065841675
1732873695230289000,9.499288818359375,7.649474620819092,1.9369091987609863,-1.3215993642807007
1732873695240268000,9.50926806640625,6.811503887176514,1.8124107122421265,-0.8619126081466675
1732873695250278000,9.51927783203125,6.414066314697266,1.6903064250946045,-0.5339069962501526
1732873695260287700,9.529287841796876,6.392518520355225,1.5705963373184204,-0.38546648621559143
1732873695270267000,9.539266845703125,6.617573261260986,1.403002142906189,-0.40940847992897034
1732873695280276500,9.5492763671875,7.122750282287598,1.2665326595306396,-0.608127236366272
1732873695290286300,9.559286376953125,7.594407558441162,1.1276689767837524,-0.7469909191131592
1732873695300265700,9.569265625,7.9846625328063965,1.1252747774124146,-0.9720458984375
1732873695310275600,9.579275634765626,8.090007781982422,1.1085153818130493,-1.0821791887283325
1732873695320285200,9.58928515625,7.9631147384643555,1.1827356815338135,-0.9792284965515137
1732873695330264600,9.5992646484375,7.850587368011475,1.292868971824646,-0.7613561153411865
1732873695340274400,9.6092744140625,8.034940719604492,1.338358759880066,-0.6224924325942993
1732873695350284000,9.619283935546875,8.44434928894043,1.4844050407409668,-0.6727706789970398
1732873695360263200,9.62926318359375,8.834604263305664,1.6519991159439087,-0.7230489253997803
1732873695370273000,9.63927294921875,9.188945770263672,1.821987509727478,-0.7996633648872375
1732873695380282600,9.64928271484375,9.35893440246582,1.9488801956176758,-0.8475474119186401
1732873695390262000,9.659261962890625,9.48343276977539,1.9728221893310547,-0.828393816947937
1732873695400272000,9.66927197265625,9.57441234588623,1.8602946996688843,-0.7134721279144287
1732873695410281500,9.679281494140625,9.583989143371582,1.7525556087493896,-0.6416460275650024
1732873695420260900,9.6892607421875,9.464279174804688,1.680729627609253,-0.5027823448181152
1732873695430270700,9.699270751953126,9.11233139038086,1.5658079385757446,-0.11013327538967133
1732873695440280300,9.7092802734375,8.664615631103516,1.4844050407409668,0.24181437492370605
1732873695450259500,9.719259521484375,8.271966934204102,1.3694833517074585,0.47405192255973816
1732873695460269300,9.729269287109375,7.95832633972168,1.2186486721038818,0.7709329724311829
1732873695470279000,9.73927880859375,7.718906402587891,1.1420341730117798,0.7613561153411865
1732873695480288800,9.749288818359375,7.826645374298096,0.9983820915222168,0.5650315880775452
1732873695490268200,9.75926806640625,8.406042098999023,0.8403648138046265,0.20111294090747833
1732873695500278000,9.769278076171876,9.342175483703613,0.8762778043746948,-0.5793967843055725
1732873695510287600,9.77928759765625,10.144232749938965,1.161187767982483,-1.1276689767837524
1732873695520267000,9.78926708984375,10.527304649353027,1.5107412338256836,-1.721431016921997
1732873695530276600,9.799276611328125,10.144232749938965,1.9967641830444336,-2.3726539611816406
1732873695540286500,9.809286376953125,9.21288776397705,2.3582887649536133,-2.6024973392486572
1732873695550265600,9.819265625,8.62391471862793,2.027888774871826,-2.049436569213867
1732873695560275500,9.829275390625,8.868123054504395,1.5107412338256836,-1.3718775510787964
1732873695570285000,9.83928515625,10.261548042297363,0.790086567401886,-0.6200982332229614
1732873695580264400,9.849264404296875,12.284648895263672,0.33997663855552673,-0.3758896589279175
1732873695590274300,9.8592744140625,15.042769432067871,-0.2992752194404602,0.07661445438861847
1732873695600284000,9.869283935546875,16.972496032714844,-0.07182604819536209,0.17238251864910126
1732873695610263300,9.87926318359375,17.223886489868164,0.7805097699165344,-0.19871874153614044
1732873695620273200,9.889273193359376,15.94777774810791,1.4700398445129395,-0.2585737705230713
1732873695630282800,9.89928271484375,13.97256088256836,2.030282974243164,0.1388636976480484
1732873695640262000,9.909261962890625,12.354081153869629,2.3487119674682617,0.42856210470199585
1732873695650271700,9.919271728515625,11.058817863464355,2.449268341064453,0.49799394607543945
1732873695660281300,9.92928125,10.742782592773438,2.2577321529388428,0.49320554733276367
1732873695670260700,9.9392607421875,11.073183059692383,1.8387469053268433,0.5171475410461426
1732873695680270600,9.9492705078125,11.578359603881836,1.381454348564148,0.6248866319656372
1732873695690280200,9.9592802734375,11.748347282409668,1.0007762908935547,0.7182605266571045
1732873695700259600,9.969259521484375,11.674127578735352,0.8164227604866028,0.7158663272857666
1732873695710269400,9.97926953125,11.312602996826172,0.689530074596405,0.7972691655158997
1732873695720279000,9.989279052734375,10.60391902923584,0.5841852426528931,0.9648633003234863
1732873695730289000,9.999288818359375,9.770736694335938,0.5291185975074768,1.0893617868423462
1732873695740268000,10.00926806640625,8.78432559967041,0.5578489899635315,1.0103530883789062
1732873695750278000,10.01927783203125,7.979874134063721,0.6320692300796509,0.811634361743927
1732873695760287700,10.029287841796876,7.546523571014404,0.6967126727104187,0.6847416758537292
1732873695770267000,10.039266845703125,7.220912456512451,0.7326257228851318,0.7134721279144287
1732873695780276500,10.0492763671875,7.0557122230529785,0.7158663272857666,0.8619126081466675
1732873695790286300,10.059286376953125,7.0557122230529785,0.7493851184844971,1.0989385843276978
1732873695800265700,10.069265625,7.127538681030273,0.8259995579719543,1.2234370708465576
1732873695810275600,10.079275634765626,7.486668586730957,0.9361328482627869,1.213860273361206
1732873695820285200,10.08928515625,7.931990146636963,1.0271124839782715,1.216254472732544
1732873695830264600,10.0992646484375,8.329427719116211,1.1276689767837524,1.0893617868423462
1732873695840274400,10.1092744140625,8.578424453735352,1.2425906658172607,0.8188169598579407
1732873695850284000,10.119283935546875,8.820239067077637,1.3263877630233765,0.6009446382522583
1732873695860263200,10.12926318359375,9.117119789123535,1.2880805730819702,0.5195417404174805
1732873695870273000,10.13927294921875,9.50498104095459,1.3215993642807007,0.4908113479614258
1732873695880282600,10.14928271484375,9.914389610290527,1.3215993642807007,0.6823474764823914
1732873695890262000,10.159261962890625,9.971850395202637,1.1276689767837524,1.2330138683319092
1732873695900271900,10.16927197265625,9.864110946655273,0.9696516990661621,1.8698714971542358
1732873695910281500,10.179281494140625,9.950302124023438,0.7398083209991455,2.387019157409668
1732873695920260900,10.1892607421875,10.244789123535156,0.49320554733276367,2.8634653091430664
1732873695930270700,10.199270751953126,10.54406452178955,0.2082955539226532,3.2632968425750732
1732873695940280300,10.2092802734375,10.716446876525879,-0.035913024097681046,3.5434184074401855
1732873695950259700,10.219259765625,10.864887237548828,-0.17238251864910126,3.6511576175689697
1732873695960269300,10.229269287109375,10.3549222946167,-0.06703764945268631,3.471592426300049
1732873695970279000,10.23927880859375,9.476250648498535,0.05506663769483566,3.2632968425750732
1732873695980288800,10.249288818359375,8.621520042419434,0.3926490843296051,3.002328872680664
1732873695990268200,10.25926806640625,7.390900611877441,0.7326257228851318,2.585737943649292
1732873696000278000,10.269278076171876,6.540958881378174,1.1755530834197998,2.427720546722412
1732873696010287600,10.27928759765625,5.760449409484863,1.7381904125213623,2.5737667083740234
1732873696020267000,10.28926708984375,5.188235282897949,2.056619167327881,2.7485435009002686
1732873696030276600,10.299276611328125,5.188235282897949,2.2026655673980713,2.8993782997131348
1732873696040286500,10.309286376953125,6.028599739074707,2.229001760482788,2.8155810832977295
1732873696050265600,10.319265625,7.589619159698486,2.2673089504241943,1.9081788063049316
1732873696060275500,10.329275390625,9.21288776397705,2.3367409706115723,0.4118026793003082
1732873696070285000,10.33928515625,11.355698585510254,2.2385785579681396,-1.6136919260025024
1732873696080264400,10.349264404296875,13.079524040222168,1.8291701078414917,-3.093308687210083
1732873696090274300,10.3592744140625,13.941436767578125,1.9249382019042969,-4.106055736541748
1732873696100284000,10.369283935546875,14.121001243591309,1.922544002532959,-3.864241600036621
1732873696110263300,10.37926318359375,13.194445610046387,2.1739351749420166,-2.9520506858825684
1732873696120273200,10.389273193359376,11.848904609680176,2.451662540435791,-1.8076223134994507
1732873696130283000,10.399282958984376,10.836156845092773,2.7126305103302,-1.338358759880066
1732873696140262000,10.409261962890625,10.041281700134277,3.227383852005005,-1.4891934394836426
1732873696150271700,10.419271728515625,9.727641105651855,3.507505416870117,-1.9369091987609863
1732873696160281300,10.42928125,9.854534149169922,3.4787750244140625,-2.6647465229034424
1732873696170260700,10.4392607421875,10.752359390258789,3.3925838470458984,-3.804386615753174
1732873696180270600,10.4492705078125,12.088324546813965,2.734178304672241,-4.474762916564941
1732873696190280200,10.4592802734375,13.836091995239258,2.0805611610412598,-4.316745758056641
1732873696200259600,10.469259521484375,14.72912883758545,1.580173134803772,-3.9911341667175293
1732873696210269400,10.47926953125,14.67406177520752,1.4317326545715332,-3.469198226928711
1732873696220279000,10.489279052734375,13.692439079284668,1.6041151285171509,-2.8778305053710938
1732873696230289000,10.499288818359375,11.81059741973877,1.9919757843017578,-2.013523578643799
1732873696240268000,10.50926806640625,9.907206535339355,2.406172752380371,-1.4963760375976562
1732873696250278000,10.51927783203125,8.087613105773926,2.4229321479797363,-0.47405192255973816
1732873696260287700,10.529287841796876,7.275979042053223,2.382230758666992,0.5099649429321289
1732873696270267000,10.539266845703125,6.4595561027526855,2.2002713680267334,1.2713210582733154
1732873696280276500,10.5492763671875,6.1530985832214355,2.0231003761291504,1.4197616577148438
1732873696290286300,10.559286376953125,6.256049156188965,1.8483237028121948,1.1276689767837524
1732873696300265700,10.569265625,6.617573261260986,1.8052281141281128,0.7086837291717529
1732873696310275600,10.579275634765626,7.0772600173950195,1.680729627609253,0.011971008032560349
1732873696320285200,10.58928515625,7.673416614532471,1.400607943534851,-0.849941611289978
1732873696330264600,10.5992646484375,8.202534675598145,1.1252747774124146,-1.173158884048462
1732873696340274400,10.6092744140625,8.35336971282959,0.8738836050033569,-1.216254472732544
1732873696350284000,10.619283935546875,8.62391471862793,0.5219359993934631,-0.9888052940368652
1732873696360263200,10.62926318359375,9.136273384094238,0.2777273952960968,-0.8259995579719543
1732873696370273000,10.63927294921875,9.296685218811035,0.24420857429504395,-0.9911994934082031
1732873696380283000,10.649282958984376,9.232041358947754,0.4213795065879822,-1.3766659498214722
1732873696390262000,10.659261962890625,8.827422142028809,0.6416460275650024,-1.4628572463989258
1732873696400272000,10.66927197265625,8.044517517089844,1.0438719987869263,-1.37906014919281
1732873696410281500,10.679281494140625,7.050923824310303,1.5634137392044067,-1.4413094520568848
1732873696420260900,10.6892607421875,6.495469093322754,1.8602946996688843,-1.400607943534851
1732873696430270700,10.699270751953126,6.48828649520874,2.118868589401245,-1.2952631711959839
1732873696440280300,10.7092802734375,6.799532890319824,2.279279947280884,-1.2832920551300049
1732873696450259700,10.719259765625,7.668628215789795,2.360682964324951,-1.4077905416488647
1732873696460269300,10.729269287109375,8.865729331970215,2.5258827209472656,-1.6855180263519287
1732873696470279000,10.73927880859375,10.393229484558105,2.82515811920166,-1.8507179021835327
1732873696480288800,10.749288818359375,10.81460952758789,2.9281086921691895,-1.7741034030914307
1732873696490268200,10.75926806640625,10.668562889099121,2.736572504043579,-1.4652514457702637
1732873696500278000,10.769278076171876,10.431536674499512,2.4205379486083984,-0.7134721279144287
1732873696510287600,10.77928759765625,9.832986831665039,2.1164743900299072,0.45250412821769714
1732873696520267000,10.78926708984375,9.44991397857666,1.7956513166427612,1.4676456451416016
1732873696530276600,10.799276611328125,9.224859237670898,1.702277421951294,1.8938134908676147
1732873696540286500,10.809286376953125,9.354146003723145,1.8315643072128296,1.9249382019042969
1732873696550265600,10.819265625,9.30386734008789,2.1523873805999756,1.9129672050476074
1732873696560275500,10.829275390625,8.937555313110352,2.63362193107605,1.5442601442337036
1732873696570285000,10.83928515625,8.49941635131836,2.920926094055176,0.9097966551780701
1732873696580264400,10.849264404296875,8.736441612243652,2.875436305999756,0.4189853072166443
1732873696590274300,10.8592744140625,9.952696800231934,2.609679937362671,0.028730420395731926
1732873696600284000,10.869283935546875,12.083536148071289,2.1547815799713135,-0.3974374830722809
1732873696610263300,10.87926318359375,14.209587097167969,1.7980455160140991,-0.4884171485900879
1732873696620273200,10.889273193359376,15.962142944335938,1.7525556087493896,-0.38067805767059326
1732873696630283000,10.899282958984376,16.711528778076172,2.1356279850006104,-0.44771572947502136
1732873696640262000,10.909261962890625,16.378734588623047,2.6623523235321045,-0.3256114423274994
1732873696650271700,10.919271728515625,15.725116729736328,3.205836057662964,-0.05267243832349777
1732873696660281300,10.92928125,14.72673511505127,3.576937437057495,0.5003881454467773
1732873696670260700,10.9392607421875,12.950237274169922,3.7229835987091064,0.9576807022094727
1732873696680270600,10.9492705078125,11.982979774475098,3.751713991165161,0.8140285611152649
1732873696690280400,10.959280517578126,11.295844078063965,3.5194764137268066,0.24899697303771973
1732873696700259600,10.969259521484375,10.6709566116333,3.134010076522827,-0.05267243832349777
1732873696710269400,10.97926953125,9.923966407775879,2.760514497756958,0.033518824726343155
1732873696720279000,10.989279052734375,9.255983352661133,2.47560453414917,-0.15322890877723694
1732873696730289000,10.999288818359375,8.746018409729004,2.2242133617401123,-0.26575639843940735
1732873696740268000,11.00926806640625,8.406042098999023,1.9297266006469727,-0.1843535304069519
1732873696750278000,11.01927783203125,8.276755332946777,1.6663644313812256,-0.021547814831137657
1732873696760287700,11.029287841796876,8.04691219329834,1.4389152526855469,0.2849099934101105
1732873696770267000,11.039266845703125,7.608773231506348,1.4628572463989258,0.23942017555236816
1732873696780276500,11.0492763671875,7.371747016906738,1.5059528350830078,0.08858546614646912
1732873696790286300,11.059286376953125,7.01979923248291,1.625662922859192,0.023942016065120697
1732873696800265700,11.069265625,7.067683219909668,1.802833914756775,0.12210428714752197
1732873696810275600,11.079275634765626,7.048529624938965,1.9847931861877441,0.24420857429504395
1732873696820285200,11.08928515625,7.1490864753723145,2.099714994430542,0.3016694188117981
1732873696830264600,11.0992646484375,7.680599212646484,2.1595699787139893,0.3280056416988373
1732873696840274400,11.1092744140625,8.33182144165039,2.0805611610412598,0.5410895943641663
1732873696850284000,11.119283935546875,9.105149269104004,1.9847931861877441,0.6631938815116882
1732873696860263200,11.12926318359375,9.828198432922363,1.8411411046981812,0.7230489253997803
1732873696870273000,11.13927294921875,10.38844108581543,1.745373010635376,0.6320692300796509
1732873696880283000,11.149282958984376,10.709263801574707,1.680729627609253,0.9002198576927185
1732873696890262000,11.159261962890625,9.885659217834473,1.7381904125213623,1.4532804489135742
1732873696900271900,11.16927197265625,8.671798706054688,1.8626888990402222,1.8363527059555054
1732873696910281500,11.179281494140625,7.7763671875,1.8579005002975464,2.4851813316345215
1732873696920260900,11.1892607421875,7.137115478515625,1.8818424940109253,2.6791117191314697
1732873696930270700,11.199270751953126,6.811503887176514,1.9177556037902832,2.7078421115875244
1732873696940280300,11.2092802734375,6.799532890319824,1.9345149993896484,2.7700912952423096
1732873696950259700,11.219259765625,6.878541469573975,2.0590133666992188,2.557007312774658
1732873696960269300,11.229269287109375,7.010222434997559,2.2409727573394775,2.2673089504241943
1732873696970279000,11.23927880859375,7.33583402633667,2.1715409755706787,2.140416383743286
1732873696980288800,11.249288818359375,7.931990146636963,1.9273324012756348,2.2194249629974365
1732873696990268200,11.25926806640625,8.631096839904785,1.599326729774475,2.315192937850952
1732873697000278000,11.269278076171876,9.435548782348633,1.0869675874710083,2.652775526046753
1732873697010287600,11.27928759765625,10.031704902648926,0.7852981686592102,3.0573954582214355
1732873697020267000,11.28926708984375,10.771512985229492,0.47884035110473633,3.622427225112915
1732873697030276600,11.299276611328125,11.238382339477539,0.5626373887062073,3.4380736351013184
1732873697040286500,11.309286376953125,11.626243591308594,0.8212111592292786,2.9089550971984863
1732873697050265600,11.319265625,11.475408554077148,1.039083480834961,2.52109432220459
1732873697060275500,11.329275390625,10.795455932617188,1.0893617868423462,2.2457611560821533
1732873697070285000,11.33928515625,10.192116737365723,1.0893617868423462,2.1356279850006104
1732873697080264400,11.349264404296875,9.315838813781738,1.0582371950149536,1.889025092124939
1732873697090274300,11.3592744140625,8.676587104797363,1.1013327836990356,1.4437036514282227
1732873697100284000,11.369283935546875,8.815450668334961,1.1779472827911377,1.1659762859344482
1732873697110263300,11.37926318359375,8.518569946289062,1.4053963422775269,0.6751648783683777
1732873697120273200,11.389273193359376,8.47786808013916,1.5322890281677246,0.2753331959247589
1732873697130282800,11.39928271484375,8.927978515625,1.5466543436050415,-0.1173158809542656
1732873697140262000,11.409261962890625,9.579200744628906,1.4389152526855469,-0.5554547905921936
1732873697150271700,11.419271728515625,10.687716484069824,1.1276689767837524,-0.4836287498474121
1732873697160281300,11.42928125,11.149797439575195,1.3766659498214722,-0.7015010714530945
1732873697170260700,11.4392607421875,11.27190113067627,1.6208745241165161,-0.9600749015808105
1732873697180270600,11.4492705078125,10.891223907470703,1.7860745191574097,-0.5722141861915588
1732873697190280200,11.4592802734375,10.029311180114746,1.9943699836730957,0.0454898327589035
1732873697200259600,11.469259521484375,9.14585018157959,2.4420857429504395,0.4812345504760742
1732873697210269400,11.47926953125,8.216899871826172,2.9089550971984863,0.6392518281936646
1732873697220279000,11.489279052734375,7.50582218170166,3.313575267791748,0.31842881441116333
1732873697230289000,11.499288818359375,7.608773231506348,3.6104562282562256,-0.3711012601852417
1732873697240268300,11.509268310546876,7.915230751037598,3.847482204437256,-1.0654197931289673
1732873697250278000,11.51927783203125,8.401253700256348,4.125209331512451,-2.0015525817871094
1732873697260287700,11.529287841796876,9.586383819580078,4.2951979637146,-3.138798475265503
1732873697270267000,11.539266845703125,11.049241065979004,4.230554580688477,-3.818751811981201
1732873697280276500,11.5492763671875,12.528857231140137,3.9480385780334473,-4.2975921630859375
1732873697290286300,11.559286376953125,13.94861888885498,3.450044631958008,-4.517858505249023
1732873697300265700,11.569265625,15.112200736999512,2.786850690841675,-4.359841346740723
1732873697310275600,11.579275634765626,15.564704895019531,2.231395959854126,-3.5194764137268066
1732873697320285200,11.58928515625,15.116989135742188,2.2242133617401123,-2.7485435009002686
1732873697330264600,11.5992646484375,13.84566879272461,2.4827871322631836,-2.3127987384796143
1732873697340274400,11.6092744140625,12.064382553100586,2.2218191623687744,-1.3311761617660522
1732873697350284000,11.619283935546875,10.220847129821777,2.279279947280884,-0.2298433631658554
1732873697360263200,11.62926318359375,9.241618156433105,2.5498247146606445,-0.23942017555236816
1732873697370273000,11.63927294921875,8.746018409729004,2.784456491470337,-0.6607996821403503
1732873697380283000,11.649282958984376,8.494627952575684,2.9520506858825684,-0.9193734526634216
1732873697390262000,11.659261962890625,8.185775756835938,2.80361008644104,-1.1109095811843872
1732873697400272000,11.66927197265625,7.905653953552246,2.75812029838562,-1.601720929145813
1732873697410281500,11.679281494140625,7.785943984985352,2.650381326675415,-2.0398597717285156
1732873697420260900,11.6892607421875,7.9846625328063965,2.6815059185028076,-2.516305923461914
1732873697430270700,11.699270751953126,7.599195957183838,2.650381326675415,-2.6455929279327393
1732873697440280300,11.7092802734375,8.02536392211914,2.7437551021575928,-2.612074136734009
1732873697450259700,11.719259765625,8.073247909545898,2.829946517944336,-2.0829553604125977
1732873697460269300,11.729269287109375,7.47230339050293,2.806004285812378,-1.400607943534851
1732873697470279000,11.73927880859375,7.089231014251709,2.762908697128296,-0.8619126081466675
1732873697480288800,11.749288818359375,6.835445880889893,2.585737943649292,-0.4189853072166443
1732873697490268200,11.75926806640625,7.0341644287109375,2.607285737991333,-0.5386953949928284
1732873697500278000,11.769278076171876,7.249642848968506,2.7269957065582275,-0.8523358106613159
1732873697510287600,11.77928759765625,7.2137298583984375,2.7222073078155518,-1.0749965906143188
1732873697520267000,11.78926708984375,7.493851184844971,2.6216509342193604,-1.1180921792984009
1732873697530276600,11.799276611328125,8.214506149291992,2.5450363159179688,-1.237802267074585
1732873697540286500,11.809286376953125,9.057265281677246,2.3965959548950195,-1.2186486721038818
1732873697550265600,11.819265625,10.053253173828125,2.1164743900299072,-0.9888052940368652
1732873697560275500,11.829275390625,10.84094524383545,1.8507179021835327,-0.7972691655158997
1732873697570285000,11.83928515625,11.429919242858887,1.501164436340332,-0.38067805767059326
1732873697580264400,11.849264404296875,11.741165161132812,1.414973258972168,-0.5099649429321289
1732873697590274300,11.8592744140625,11.980585098266602,1.4508862495422363,-0.9169792532920837
1732873697600284000,11.869283935546875,11.70046329498291,1.4724340438842773,-1.1085153818130493
1732873697610263300,11.87926318359375,11.216835021972656,1.0462661981582642,-0.09576806426048279
1732873697620273200,11.889273193359376,10.261548042297363,1.5155296325683594,-0.5889736413955688
1732873697630283000,11.899282958984376,9.014169692993164,1.7980455160140991,-0.933738648891449
1732873697640262000,11.909261962890625,8.243236541748047,2.142810583114624,-1.1899182796478271
1732873697650271700,11.919271728515625,7.90086555480957,2.3702597618103027,-1.5107412338256836
1732873697660281300,11.92928125,8.056488990783691,2.406172752380371,-1.5897499322891235
1732873697670260700,11.9392607421875,8.494627952575684,2.3965959548950195,-1.7860745191574097
1732873697680270600,11.9492705078125,9.100360870361328,2.3319525718688965,-1.987187385559082
1732873697690280200,11.9592802734375,9.677363395690918,2.0805611610412598,-1.8626888990402222
1732873697700259600,11.969259521484375,10.11550235748291,2.027888774871826,-1.7525556087493896
1732873697710269400,11.97926953125,10.532093048095703,1.8483237028121948,-1.5322890281677246
1732873697720279000,11.989279052734375,10.972626686096191,1.6496049165725708,-1.213860273361206
1732873697730289000,11.999288818359375,11.30063247680664,1.4867992401123047,-0.9840168952941895
1732873697740268300,12.009268310546876,11.39400577545166,1.3718775510787964,-0.6631938815116882
1732873697750278000,12.01927783203125,11.15697956085205,1.4772224426269531,-0.4141969084739685
1732873697760287700,12.029287841796876,10.498574256896973,1.6280571222305298,-0.19632454216480255
1732873697770267000,12.039266845703125,9.677363395690918,1.8387469053268433,-0.28969839215278625
1732873697780276500,12.0492763671875,9.27034854888916,1.9129672050476074,-0.4381389021873474
1732873697790286300,12.059286376953125,9.41400146484375,1.7405846118927002,-0.42856210470199585
1732873697800265700,12.069265625,9.943120002746582,1.5155296325683594,-0.507570743560791
1732873697810275600,12.079275634765626,10.745177268981934,1.2018892765045166,-0.3902548849582672
1732873697820285200,12.08928515625,11.370063781738281,1.039083480834961,-0.2298433631658554
1732873697830264600,12.0992646484375,11.918335914611816,1.1420341730117798,-0.17477671802043915
1732873697840274400,12.1092744140625,11.856086730957031,1.4053963422775269,-0.21547815203666687
1732873697850284000,12.119283935546875,11.14500904083252,1.6711528301239014,-0.4118026793003082
1732873697860263200,12.12926318359375,10.065223693847656,1.9728221893310547,-0.5674257874488831
1732873697870273000,12.13927294921875,9.136273384094238,2.094926595687866,-0.5530605912208557
1732873697880283000,12.149282958984376,8.288725852966309,2.1763293743133545,-0.7206547260284424
1732873697890262000,12.159261962890625,7.927201747894287,2.185906171798706,-0.8331822156906128
1732873697900271900,12.16927197265625,7.891288757324219,2.118868589401245,-1.01753568649292
1732873697910281500,12.179281494140625,8.291120529174805,2.0661959648132324,-1.1635819673538208
1732873697920260900,12.1892607421875,9.026140213012695,1.9057846069335938,-1.1971008777618408
1732873697930270700,12.199270751953126,9.785101890563965,1.7549498081207275,-1.05105459690094
1732873697940280300,12.2092802734375,10.54645824432373,1.5490485429763794,-0.8834604024887085
1732873697950259700,12.219259765625,10.884040832519531,1.4077905416488647,-0.7733271718025208
1732873697960269300,12.229269287109375,10.867281913757324,1.403002142906189,-0.6536170840263367
1732873697970279000,12.23927880859375,10.500968933105469,1.400607943534851,-0.6488286852836609
1732873697980288800,12.249288818359375,10.24000072479248,1.3982137441635132,-0.42856210470199585
1732873697990268200,12.25926806640625,9.916783332824707,1.4676456451416016,-0.3016694188117981
1732873698000278000,12.269278076171876,9.691728591918945,1.5203180313110352,-0.11971008777618408
1732873698010287600,12.27928759765625,9.2033109664917,1.6352397203445435,-0.028730420395731926
1732873698020267000,12.28926708984375,8.525752067565918,1.460463047027588,0.181959331035614
1732873698030276600,12.299276611328125,8.257601737976074,1.558625340461731,0.014365210197865963
1732873698040286500,12.309286376953125,7.888894557952881,1.4628572463989258,-0.021547814831137657
1732873698050265600,12.319265625,8.106766700744629,1.3766659498214722,-0.0933738648891449
1732873698060275500,12.329275390625,8.980650901794434,1.2641384601593018,0.043095629662275314
1732873698070285000,12.33928515625,9.524134635925293,1.3096283674240112,0.11252748221158981
1732873698080264400,12.349264404296875,9.75637149810791,1.501164436340332,-0.2513911724090576
1732873698090274300,12.3592744140625,9.832986831665039,1.6424223184585571,-0.4213795065879822
1732873698100284000,12.369283935546875,9.655815124511719,1.7070658206939697,-0.5051765441894531
1732873698110263300,12.37926318359375,9.5408935546875,1.8531121015548706,-0.6368576288223267
1732873698120273200,12.389273193359376,9.615114212036133,2.1068975925445557,-0.6536170840263367
1732873698130283000,12.399282958984376,9.677363395690918,2.118868589401245,-0.6224924325942993
1732873698140262000,12.409261962890625,9.68694019317627,2.1116859912872314,-0.6033388376235962
1732873698150271700,12.419271728515625,9.75397777557373,2.145204782485962,-0.6105214357376099
1732873698160281300,12.42928125,9.732429504394531,2.0614075660705566,-0.47165772318840027
1732873698170260700,12.4392607421875,9.9000244140625,1.8267759084701538,-0.17717093229293823
1732873698180270600,12.4492705078125,10.15141487121582,1.6280571222305298,0.08140286058187485
1732873698190280200,12.4592802734375,10.230423927307129,1.4939818382263184,0.38546648621559143
1732873698200259600,12.469259521484375,10.127472877502441,1.4915876388549805,0.44771572947502136
1732873698210269400,12.47926953125,9.897629737854004,1.6328455209732056,0.45010992884635925
1732873698220279000,12.489279052734375,9.63187313079834,1.7741034030914307,0.47165772318840027
1732873698230289000,12.499288818359375,9.378087997436523,1.8315643072128296,0.49799394607543945
1732873698240268300,12.509268310546876,9.05487060546875,1.8315643072128296,0.5674257874488831
1732873698250278000,12.51927783203125,8.856152534484863,1.8579005002975464,0.2513911724090576
1732873698260287700,12.529287841796876,8.719682693481445,2.051830768585205,-0.33997663855552673
1732873698270267000,12.539266845703125,8.829815864562988,2.2146365642547607,-0.6536170840263367
1732873698280276500,12.5492763671875,9.136273384094238,2.075772762298584,-0.6631938815116882
1732873698290286300,12.559286376953125,9.457097053527832,1.9632453918457031,-0.4381389021873474
1732873698300265700,12.569265625,9.59835433959961,1.764526605606079,-0.43095630407333374
1732873698310275600,12.579275634765626,9.938331604003906,1.6376339197158813,-0.19153612852096558
1732873698320285200,12.58928515625,10.110713958740234,1.534683346748352,0.1867477297782898
1732873698330264600,12.5992646484375,9.950302124023438,1.577778935432434,0.36152446269989014
1732873698340274400,12.6092744140625,9.39245319366455,1.601720929145813,0.38307225704193115
1732873698350284000,12.619283935546875,9.016563415527344,1.702277421951294,0.3687070608139038
1732873698360263200,12.62926318359375,8.987833023071289,1.7717092037200928,0.22266076505184174
1732873698370273000,12.63927294921875,9.136273384094238,1.8052281141281128,0.17238251864910126
1732873698380283000,12.649282958984376,9.476250648498535,1.778891921043396,0.12210428714752197
1732873698390262000,12.659261962890625,9.8784761428833,1.7046716213226318,0.1867477297782898
1732873698400272000,12.66927197265625,10.127472877502441,1.659181833267212,0.17238251864910126
1732873698410281500,12.679281494140625,10.319009780883789,1.656787633895874,0.13407529890537262
1732873698420260900,12.6892607421875,10.38604736328125,1.7118542194366455,0.10534487664699554
1732873698430270700,12.699270751953126,10.122684478759766,1.7717092037200928,0.033518824726343155
1732873698440280300,12.7092802734375,9.797073364257812,1.843535304069519,0.040701430290937424
1732873698450259700,12.719259765625,9.469067573547363,1.9536685943603516,0.0071826050989329815
1732873698460269300,12.729269287109375,9.191340446472168,2.0829553604125977,-0.1412578970193863
1732873698470279000,12.73927880859375,8.89445972442627,2.1332337856292725,-0.2968810200691223
1732873698480288800,12.749288818359375,8.959102630615234,2.054224967956543,-0.30885201692581177
1732873698490268200,12.75926806640625,9.2033109664917,1.8794482946395874,-0.08140286058187485
1732873698500278000,12.769278076171876,9.557653427124023,1.6903064250946045,0.09576806426048279
1732873698510287600,12.77928759765625,9.856928825378418,1.5825673341751099,0.15083470940589905
1732873698520267000,12.78926708984375,10.156203269958496,1.4963760375976562,0.19871874153614044
1732873698530276600,12.799276611328125,10.366893768310547,1.5275006294250488,0.1364694982767105
1732873698540286500,12.809286376953125,10.33098030090332,1.6065093278884888,0.033518824726343155
1732873698550265600,12.819265625,10.113107681274414,1.6903064250946045,-0.1173158809542656
1732873698560275500,12.829275390625,9.93354320526123,1.8100165128707886,-0.2944868206977844
1732873698570285000,12.83928515625,9.655815124511719,1.9153614044189453,-0.45010992884635925
1732873698580264400,12.849264404296875,9.339780807495117,1.965639591217041,-0.37828385829925537
1732873698590274300,12.8592744140625,9.071630477905273,1.9081788063049316,-0.2059013396501541
1732873698600284000,12.869283935546875,9.040505409240723,1.7932571172714233,-0.033518824726343155
1732873698610263300,12.87926318359375,9.23443603515625,1.6879122257232666,0.11252748221158981
1732873698620273200,12.889273193359376,9.57201862335205,1.5203180313110352,0.31124621629714966
1732873698630283000,12.899282958984376,9.921571731567383,1.3694833517074585,0.3878606855869293
1732873698640262000,12.909261962890625,9.921571731567383,1.3886369466781616,0.2753331959247589
1732873698650271700,12.919271728515625,9.744400978088379,1.4963760375976562,0.090979665517807
1732873698660281300,12.92928125,9.579200744628906,1.6184803247451782,-0.08619125932455063
1732873698670260700,12.9392607421875,9.354146003723145,1.7980455160140991,-0.27054479718208313
1732873698680270600,12.9492705078125,9.172186851501465,1.9057846069335938,-0.4357447028160095
1732873698690280400,12.959280517578126,9.097966194152832,1.9512743949890137,-0.2992752194404602
1732873698700259600,12.969259521484375,9.186552047729492,1.8818424940109253,-0.004788403399288654
1732873698710269400,12.97926953125,9.399636268615723,1.764526605606079,0.16759411990642548
