time,seconds_elapsed,z,y,x
1732873429517892900,0.173892822265625,0.583186149597168,0.1091775894165039,-0.01694941520690918
1732873429528317700,0.184317626953125,0.45457935333251953,0.08953964710235596,-0.12185549736022949
1732873429538296800,0.194296875,0.19651508331298828,0.03665268421173096,-0.08554697036743164
1732873429548306400,0.204306396484375,0.011198997497558594,-0.050267577171325684,0.003924012184143066
1732873429558285800,0.214285888671875,-0.028771400451660156,-0.09332680702209473,0.11503508687019348
1732873429568295700,0.224295654296875,-0.028650283813476562,-0.11674022674560547,0.20487146079540253
1732873429578305300,0.23430517578125,0.04380512237548828,-0.16317808628082275,0.245918408036232
1732873429588284700,0.24428466796875,0.06854820251464844,-0.1633594036102295,0.24831286072731018
1732873429598294500,0.25429443359375,0.07296943664550781,-0.13033616542816162,0.23129844665527344
1732873429608304000,0.26430419921875,0.045162200927734375,-0.10969996452331543,0.155269593000412
1732873429618314000,0.27431396484375,0.018321990966796875,-0.08200240135192871,0.14053094387054443
1732873429628293000,0.284293212890625,-0.0111083984375,-0.09828579425811768,0.21164654195308685
1732873429638303000,0.294302978515625,-0.0854177474975586,-0.09551632404327393,0.2348976731300354
1732873429648312600,0.3043125,-0.1463308334350586,-0.06232428550720215,0.13771888613700867
1732873429658292000,0.3142919921875,-0.12038230895996094,-0.03597819805145264,0.025002487003803253
1732873429668301600,0.324301513671875,0.06728744506835938,-0.034566283226013184,-0.09838822484016418
1732873429678311400,0.3343115234375,0.28507423400878906,-0.03638267517089844,-0.10293777287006378
1732873429688290800,0.344290771484375,0.4513587951660156,-0.05652880668640137,-0.005401567090302706
1732873429698300700,0.35430078125,0.4411773681640625,-0.03527367115020752,0.015923619270324707
1732873429708310300,0.364310302734375,0.2697439193725586,-0.004586219787597656,-0.029260141775012016
1732873429718289400,0.374289306640625,0.02660369873046875,0.04371213912963867,-0.07567567378282547
1732873429728299300,0.38429931640625,-0.10646533966064453,0.09919536113739014,-0.10987499356269836
1732873429738308900,0.394308837890625,-0.17899703979492188,0.10801053047180176,-0.12293722480535507
1732873429748288300,0.404288330078125,-0.1725301742553711,0.10521018505096436,-0.06903116405010223
1732873429758298000,0.414298095703125,-0.22141456604003906,0.08502137660980225,-0.01947072148323059
1732873429768307700,0.4243076171875,-0.16599750518798828,0.06628835201263428,0.007803618907928467
1732873429778287000,0.434287109375,-0.025890350341796875,0.0331270694732666,-0.06477160006761551
1732873429788297000,0.444296875,0.18336868286132812,-0.024557113647460938,-0.09068780392408371
1732873429798306600,0.454306640625,0.3616466522216797,-0.05357646942138672,0.06052589416503906
1732873429808286000,0.464285888671875,0.3472900390625,-0.1469186544418335,0.054907798767089844
1732873429818295600,0.474295654296875,0.22552013397216797,-0.13689446449279785,0.1421353816986084
1732873429828305400,0.484305419921875,0.09450721740722656,-0.12171244621276855,0.14974474906921387
1732873429838284800,0.494284912109375,0.037688255310058594,-0.08241784572601318,0.11900058388710022
1732873429848294400,0.50429443359375,0.009508132934570312,-0.05458879470825195,0.08983341604471207
1732873429858304000,0.514303955078125,0.021854400634765625,-0.04491305351257324,0.04553249850869179
1732873429868313900,0.52431396484375,0.03171825408935547,-0.027533531188964844,0.04885583743453026
1732873429878293200,0.534293212890625,0.06307792663574219,-0.02661871910095215,0.07594729214906693
1732873429888302800,0.544302734375,0.089691162109375,-0.023540854454040527,0.1344083547592163
1732873429898312700,0.554312744140625,0.06864738464355469,-0.00973212718963623,0.07998473942279816
1732873429908292000,0.5642919921875,-0.0072803497314453125,0.0006647109985351562,-0.019002288579940796
1732873429918301700,0.5743017578125,-0.013705253601074219,-0.015627264976501465,-0.0260934978723526
1732873429928311600,0.5843115234375,0.07547473907470703,-0.0477290153503418,0.007311709225177765
1732873429938290700,0.594290771484375,0.24812030792236328,-0.051616787910461426,0.04154876619577408
1732873429948300500,0.604300537109375,0.29361629486083984,-0.06846797466278076,0.07894822955131531
1732873429958310100,0.61431005859375,0.21463680267333984,-0.05920135974884033,0.14329473674297333
1732873429968289500,0.62428955078125,0.05235004425048828,-0.06006038188934326,0.22044917941093445
1732873429978299400,0.63429931640625,-0.13354206085205078,-0.022156596183776855,0.21145778894424438
1732873429988309000,0.64430908203125,-0.15645599365234375,-0.02827632427215576,0.12691830098628998
1732873429998288400,0.654288330078125,-0.19858264923095703,-0.09622955322265625,0.1127815693616867
1732873430008298200,0.66429833984375,-0.11169624328613281,-0.17214763164520264,0.1348724663257599
1732873430018307800,0.674307861328125,0.06103992462158203,-0.14548349380493164,0.05995313078165054
1732873430028287000,0.684286865234375,0.1497945785522461,-0.06741034984588623,-0.006244480609893799
1732873430038296800,0.694296875,0.14279460906982422,0.008219242095947266,-0.0572565421462059
1732873430048306400,0.704306396484375,0.001995086669921875,0.00560760498046875,0.03665928170084953
1732873430058285800,0.714285888671875,-0.11470317840576172,-0.009942770004272461,0.09327048063278198
1732873430068295700,0.724295654296875,-0.2073841094970703,-0.05707728862762451,0.11058138310909271
1732873430078305300,0.73430517578125,-0.18757343292236328,-0.04889225959777832,0.11222746968269348
1732873430088284700,0.74428466796875,-0.11755943298339844,-0.04498767852783203,0.05810246244072914
1732873430098294500,0.75429443359375,-0.03808021545410156,-0.03081488609313965,0.12481902539730072
1732873430108304100,0.76430419921875,-0.025781631469726562,-0.023011445999145508,0.15085813403129578
1732873430118314000,0.77431396484375,0.043852806091308594,0.04052770137786865,0.03687383234500885
1732873430128293000,0.784293212890625,0.06555652618408203,0.06838822364807129,-0.0010058879852294922
1732873430138302700,0.794302734375,0.1302623748779297,0.0033919811248779297,0.02767021209001541
1732873430148312600,0.8043125,0.26192474365234375,-0.02284252643585205,0.020334385335445404
1732873430158292000,0.8142919921875,0.3408842086791992,-0.027352094650268555,0.020415671169757843
1732873430168301600,0.824301513671875,0.30266666412353516,-0.0517733097076416,0.059360794723033905
1732873430178311400,0.8343115234375,0.21200942993164062,-0.07995164394378662,0.18348196148872375
1732873430188290800,0.844290771484375,0.11449527740478516,-0.0933222770690918,0.22368812561035156
1732873430198300700,0.85430078125,-0.009151458740234375,-0.05281853675842285,0.25285565853118896
1732873430208310300,0.864310302734375,-0.12552833557128906,-0.058266639709472656,0.23636192083358765
1732873430218289400,0.874289306640625,-0.2776803970336914,-0.030892252922058105,0.1422806978225708
1732873430228299300,0.88429931640625,-0.3985862731933594,-0.02083611488342285,0.0940876454114914
1732873430238308900,0.894308837890625,-0.5433082580566406,0.03417348861694336,0.02570701390504837
1732873430248288300,0.904288330078125,-0.5995111465454102,0.09688246250152588,-0.04463262856006622
1732873430258298000,0.914298095703125,-0.5961742401123047,0.1685945987701416,-0.09276844561100006
1732873430268307700,0.9243076171875,-0.49556636810302734,0.18528962135314941,-0.030418597161769867
1732873430278287000,0.934287109375,-0.3715181350708008,0.2046222686767578,0.0289786234498024
1732873430288297000,0.944296875,-0.3626842498779297,0.15609633922576904,-0.00846496969461441
1732873430298306600,0.954306640625,-0.2700967788696289,0.1509312391281128,-0.007367491722106934
1732873430308286000,0.964285888671875,-0.05791282653808594,0.08426642417907715,0.02231495827436447
1732873430318295600,0.974295654296875,0.005680084228515625,0.013742923736572266,0.134547159075737
1732873430328305400,0.984305419921875,-0.0028076171875,-0.15125131607055664,0.5119778513908386
1732873430338284800,0.994284912109375,0.2295980453491211,-0.3954406976699829,0.7459923028945923
1732873430348294400,1.00429443359375,0.18084144592285156,-0.1384032964706421,0.12158048152923584
1732873430358304000,1.014303955078125,0.4611234664916992,0.21055817604064941,-0.26312118768692017
1732873430368313900,1.02431396484375,1.3011894226074219,0.14425170421600342,-0.4677131772041321
1732873430378293200,1.034293212890625,1.6300830841064453,0.023770570755004883,-0.25046035647392273
1732873430388302800,1.044302734375,1.6114158630371094,-0.11318469047546387,-0.11721260845661163
1732873430398312700,1.054312744140625,1.2977333068847656,-0.20387017726898193,0.03608056157827377
1732873430408292000,1.0642919921875,0.875819206237793,-0.23415982723236084,0.09954620152711868
1732873430418301700,1.0743017578125,0.47841453552246094,-0.22467541694641113,0.10662979632616043
1732873430428311600,1.0843115234375,0.20341205596923828,-0.21444463729858398,0.03748147934675217
1732873430438290700,1.094290771484375,-0.09067058563232422,-0.16858041286468506,-0.013653408735990524
1732873430448300500,1.104300537109375,-0.2579011917114258,-0.11514532566070557,-0.034726373851299286
1732873430458310100,1.11431005859375,-0.4325132369995117,-0.08436226844787598,-0.0943765789270401
1732873430468289500,1.12428955078125,-0.5154056549072266,-0.06198608875274658,-0.04820782691240311
1732873430478299400,1.13429931640625,-0.6194534301757812,-0.02212703227996826,0.06735379993915558
1732873430488309000,1.14430908203125,-0.6410236358642578,-0.06753242015838623,0.16451558470726013
1732873430498288400,1.154288330078125,-0.5665826797485352,-0.07364320755004883,0.1862025260925293
1732873430508298200,1.16429833984375,-0.5016860961914062,-0.06313908100128174,0.20967940986156464
1732873430518307800,1.174307861328125,-0.4439830780029297,-0.06450867652893066,0.20140403509140015
1732873430528287000,1.184286865234375,-0.40033531188964844,0.004163980484008789,0.05521167069673538
1732873430538296800,1.194296875,-0.28235626220703125,0.031472086906433105,-0.025133857503533363
1732873430548306400,1.204306396484375,-0.13807106018066406,0.07089722156524658,-0.08348887413740158
1732873430558285800,1.214285888671875,-0.07545948028564453,0.0951148271560669,-0.04943016543984413
1732873430568295700,1.224295654296875,0.030081748962402344,0.06763792037963867,0.13195863366127014
1732873430578305300,1.23430517578125,0.0732107162475586,0.07942259311676025,0.24161046743392944
1732873430588284700,1.24428466796875,0.1163177490234375,0.11767983436584473,0.3181212246417999
1732873430598294500,1.25429443359375,0.1907024383544922,0.11438584327697754,0.41704773902893066
1732873430608304000,1.26430419921875,0.1623220443725586,0.10286617279052734,0.41912615299224854
1732873430618314000,1.27431396484375,0.1748790740966797,0.09480845928192139,0.3866187632083893
1732873430628293000,1.284293212890625,0.2857952117919922,0.05693066120147705,0.3494088649749756
1732873430638302700,1.294302734375,0.34883689880371094,-0.021696925163269043,0.3683818578720093
1732873430648312600,1.3043125,0.3569364547729492,-0.0363774299621582,0.4120478630065918
1732873430658292000,1.3142919921875,0.2599601745605469,-0.00468289852142334,0.44386163353919983
1732873430668301600,1.324301513671875,0.0604095458984375,0.024976730346679688,0.4575696289539337
1732873430678311400,1.3343115234375,-0.2034759521484375,0.007610201835632324,0.537013828754425
1732873430688290800,1.344290771484375,-0.3953895568847656,-0.02706015110015869,0.5385059118270874
1732873430698300700,1.35430078125,-0.5108671188354492,-0.05807936191558838,0.6458745002746582
1732873430708310300,1.364310302734375,-0.5813417434692383,-0.0837928056716919,0.8217524290084839
1732873430718289400,1.374289306640625,-0.5373697280883789,-0.08996427059173584,0.8752596974372864
1732873430728299300,1.38429931640625,-0.3789196014404297,-0.05512034893035889,1.082886815071106
1732873430738308900,1.394308837890625,-0.23044109344482422,-0.02006399631500244,1.203763484954834
1732873430748288300,1.404288330078125,-0.041454315185546875,0.011899471282958984,1.3208961486816406
1732873430758298000,1.414298095703125,0.17389774322509766,0.018497109413146973,1.5535814762115479
1732873430768307700,1.4243076171875,0.4371938705444336,0.040665507316589355,1.786609411239624
1732873430778287000,1.434287109375,0.4576120376586914,0.013258814811706543,2.0031654834747314
1732873430788297000,1.444296875,0.3273591995239258,-0.007106304168701172,2.1930155754089355
1732873430798306600,1.454306640625,0.04654693603515625,-0.07815384864807129,2.409170627593994
1732873430808286000,1.464285888671875,-0.15271663665771484,-0.25147855281829834,2.3846054077148438
1732873430818295600,1.474295654296875,-0.055194854736328125,-0.17889106273651123,2.632704734802246
1732873430828305400,1.484305419921875,-0.18738651275634766,-0.2713414430618286,2.5981616973876953
1732873430838284800,1.494284912109375,-0.3022899627685547,-0.47190654277801514,2.4210925102233887
1732873430848294400,1.50429443359375,-0.17996788024902344,-0.5886843204498291,2.4453587532043457
1732873430858304000,1.514303955078125,0.1502237319946289,-0.7421683669090271,2.54819393157959
1732873430868313900,1.52431396484375,0.5612783432006836,-0.8191347122192383,2.6309213638305664
1732873430878293200,1.534293212890625,1.0676755905151367,-0.8704115748405457,2.692929744720459
1732873430888302800,1.544302734375,1.3417854309082031,-0.7206732630729675,2.5580382347106934
1732873430898312700,1.554312744140625,1.3052549362182617,-0.5292308330535889,2.1969172954559326
1732873430908292000,1.5642919921875,1.030421257019043,-0.32060015201568604,1.9039548635482788
1732873430918301700,1.5743017578125,0.6777982711791992,-0.1624664068222046,1.724915623664856
1732873430928311600,1.5843115234375,0.39107322692871094,-0.07979798316955566,1.651534914970398
1732873430938290700,1.594290771484375,0.2149953842163086,-0.10824263095855713,1.7628531455993652
1732873430948300500,1.604300537109375,0.1398153305053711,-0.1076958179473877,1.6943613290786743
1732873430958310100,1.61431005859375,0.1366720199584961,-0.21388912200927734,1.5709940195083618
1732873430968289500,1.62428955078125,0.18152427673339844,-0.3562126159667969,1.3807885646820068
1732873430978299400,1.63429931640625,0.4272270202636719,-0.5036437511444092,1.1845606565475464
1732873430988309000,1.64430908203125,0.8159904479980469,-0.6712942123413086,1.0325298309326172
1732873430998288400,1.654288330078125,1.1443347930908203,-0.8104248046875,0.8496002554893494
1732873431008298200,1.66429833984375,1.3579788208007812,-0.8851865530014038,0.5576249361038208
1732873431018307800,1.674307861328125,1.3688478469848633,-0.9296656250953674,0.3139925003051758
1732873431028287000,1.684286865234375,1.1198434829711914,-0.9579011797904968,0.15621399879455566
1732873431038296800,1.694296875,0.5176658630371094,-0.9752668142318726,-0.09067139029502869
1732873431048306400,1.704306396484375,-0.08847522735595703,-0.7917982339859009,-0.342751145362854
1732873431058285800,1.714285888671875,-0.5304794311523438,-0.8197312355041504,-0.4354393482208252
1732873431068295700,1.724295654296875,-0.6227493286132812,-0.5944836139678955,-0.5950450897216797
1732873431078305300,1.73430517578125,-0.38602447509765625,-0.5006345510482788,-0.6161289215087891
1732873431088284700,1.74428466796875,-0.08728790283203125,-0.4663045406341553,-0.6299170255661011
1732873431098294500,1.75429443359375,0.27887535095214844,-0.6072245240211487,-0.7707375884056091
1732873431108304100,1.76430419921875,0.45350074768066406,-0.7176001071929932,-0.854676365852356
1732873431118314000,1.77431396484375,0.35344982147216797,-0.7638134360313416,-0.9589100480079651
1732873431128293000,1.784293212890625,-0.02325153350830078,-0.8569334745407104,-1.0512149333953857
1732873431138302700,1.794302734375,-0.3725271224975586,-0.7634927034378052,-1.257752776145935
1732873431148312600,1.8043125,-0.876286506652832,-0.7367855310440063,-1.4417357444763184
1732873431158292000,1.8142919921875,-1.2766151428222656,-0.6658458709716797,-1.393990159034729
1732873431168301600,1.824301513671875,-1.669663429260254,-0.6326895356178284,-1.2972464561462402
1732873431178311400,1.8343115234375,-1.974433422088623,-0.5719353556632996,-1.4657129049301147
1732873431188290800,1.844290771484375,-2.1721558570861816,-0.5140327215194702,-1.6345986127853394
1732873431198300700,1.85430078125,-1.8686299324035645,-0.6561067700386047,-1.4751240015029907
1732873431208310300,1.864310302734375,-1.1239233016967773,-0.8413769006729126,-1.2576255798339844
1732873431218289400,1.874289306640625,-0.4221172332763672,-0.7211803197860718,-1.2253364324569702
1732873431228299300,1.88429931640625,0.020616531372070312,-0.5802901983261108,-1.3742365837097168
1732873431238308900,1.894308837890625,0.23356246948242188,-0.4508000612258911,-1.4384225606918335
1732873431248288300,1.904288330078125,0.3024873733520508,-0.2933236360549927,-1.467890977859497
1732873431258298000,1.914298095703125,0.24698352813720703,-0.23240959644317627,-1.4908912181854248
1732873431268307700,1.9243076171875,0.2869596481323242,-0.279305100440979,-1.4442129135131836
1732873431278287000,1.934287109375,0.39558982849121094,-0.37863636016845703,-1.4843651056289673
1732873431288297000,1.944296875,0.6199378967285156,-0.4635889530181885,-1.6159766912460327
1732873431298306600,1.954306640625,1.0060386657714844,-0.6224996447563171,-1.7807828187942505
1732873431308286000,1.964285888671875,1.406193733215332,-0.7191206812858582,-2.0719106197357178
1732873431318295600,1.974295654296875,1.8330068588256836,-0.7846924066543579,-2.3343887329101562
1732873431328305400,1.984305419921875,2.0930356979370117,-0.7529681921005249,-2.5022268295288086
1732873431338284800,1.994284912109375,1.9712858200073242,-0.6405462026596069,-2.6535964012145996
1732873431348294400,2.00429443359375,1.4129629135131836,-0.5430788397789001,-2.682382345199585
1732873431358304000,2.014303955078125,0.4135122299194336,-0.4394295811653137,-2.632462978363037
1732873431368313900,2.02431396484375,-0.523219108581543,-0.37309855222702026,-2.729644775390625
1732873431378293200,2.034293212890625,-1.1502723693847656,-0.312430739402771,-2.7487659454345703
1732873431388302800,2.044302734375,-1.4420623779296875,-0.2774491310119629,-2.6666975021362305
1732873431398312700,2.054312744140625,-1.4591007232666016,-0.3427010774612427,-2.5433297157287598
1732873431408292000,2.0642919921875,-1.2084274291992188,-0.44020867347717285,-2.314619541168213
1732873431418301700,2.0743017578125,-0.8770933151245117,-0.49560701847076416,-2.1986289024353027
1732873431428311600,2.0843115234375,-0.5344781875610352,-0.552280604839325,-2.0817177295684814
1732873431438290700,2.094290771484375,-0.3600635528564453,-0.5965431928634644,-2.002823829650879
1732873431448300500,2.104300537109375,-0.31506824493408203,-0.500715970993042,-1.94618558883667
1732873431458310100,2.11431005859375,-0.3945627212524414,-0.4347541332244873,-1.952042818069458
1732873431468289500,2.12428955078125,-0.5722675323486328,-0.5263803601264954,-1.950920581817627
1732873431478299400,2.13429931640625,-0.5158252716064453,-0.6958742737770081,-1.9815877676010132
1732873431488309000,2.14430908203125,-0.17075824737548828,-0.869113564491272,-2.002424478530884
1732873431498288400,2.154288330078125,0.4289989471435547,-0.9595496654510498,-1.893186330795288
1732873431508298200,2.16429833984375,0.8733921051025391,-0.710279107093811,-1.0615546703338623
1732873431518307800,2.174307861328125,1.402414321899414,-0.6321960687637329,-1.1823642253875732
1732873431528287000,2.184286865234375,1.6462154388427734,-0.48056966066360474,-1.2799580097198486
1732873431538296800,2.194296875,1.3542394638061523,-0.2979157567024231,-1.2657716274261475
1732873431548306400,2.204306396484375,0.6692352294921875,-0.03531759977340698,-1.0881469249725342
1732873431558285800,2.214285888671875,-0.2502555847167969,0.14197778701782227,-1.1650969982147217
1732873431568295700,2.224295654296875,-0.8928956985473633,0.27179110050201416,-1.2653417587280273
1732873431578305300,2.23430517578125,-1.3020849227905273,0.39317208528518677,-1.23111891746521
1732873431588284700,2.24428466796875,-1.384903907775879,0.4765673875808716,-1.195662260055542
1732873431598294500,2.25429443359375,-1.2112808227539062,0.5942112803459167,-1.2066693305969238
1732873431608304000,2.26430419921875,-0.7628202438354492,0.7784820795059204,-1.3555933237075806
1732873431618314000,2.27431396484375,-0.3245401382446289,0.8379521369934082,-1.3743470907211304
1732873431628293000,2.284293212890625,0.055637359619140625,0.8956170082092285,-1.376901388168335
1732873431638302700,2.294302734375,0.3298149108886719,0.9237330555915833,-1.466316819190979
1732873431648312600,2.3043125,0.691741943359375,0.9374474883079529,-1.5467264652252197
1732873431658292000,2.3142919921875,1.1003503799438477,0.9510181546211243,-1.5936825275421143
1732873431668301600,2.324301513671875,1.4964704513549805,0.9488430023193359,-1.6966983079910278
1732873431678311400,2.3343115234375,1.7656936645507812,0.9387697577476501,-1.7114893198013306
1732873431688290800,2.344290771484375,1.9707603454589844,0.9407531023025513,-1.643146276473999
1732873431698300700,2.35430078125,1.9327144622802734,0.9850983023643494,-1.5731316804885864
1732873431708310300,2.364310302734375,1.508016586303711,0.9876018762588501,-1.5198403596878052
1732873431718289400,2.374289306640625,0.7061824798583984,1.0258700847625732,-1.4403797388076782
1732873431728299300,2.38429931640625,-0.0034732818603515625,1.0760674476623535,-1.2927895784378052
1732873431738308900,2.394308837890625,-0.6528120040893555,1.1279253959655762,-1.317528247833252
1732873431748288300,2.404288330078125,-1.127157211303711,1.1568992137908936,-1.293731689453125
1732873431758298000,2.414298095703125,-1.5201406478881836,1.1374809741973877,-1.2218875885009766
1732873431768307700,2.4243076171875,-1.7038764953613281,1.1033592224121094,-1.171057105064392
1732873431778287000,2.434287109375,-1.6967182159423828,1.1086633205413818,-1.100389003753662
1732873431788297000,2.444296875,-1.4939508438110352,1.0557057857513428,-0.9921060800552368
1732873431798306600,2.454306640625,-1.1074743270874023,1.020559310913086,-0.760536789894104
1732873431808286000,2.464285888671875,-0.7599945068359375,1.0207436084747314,-0.5387153029441833
1732873431818295800,2.4742958984375,-0.5755319595336914,1.1094810962677002,-0.4561324715614319
1732873431828305400,2.484305419921875,-0.5443248748779297,1.1885533332824707,-0.3218631148338318
1732873431838284800,2.494284912109375,-0.5442285537719727,1.235735297203064,-0.12916964292526245
1732873431848294400,2.50429443359375,-0.4580049514770508,1.3116182088851929,0.1312505304813385
1732873431858304000,2.514303955078125,-0.3719644546508789,1.2905266284942627,0.3369966745376587
1732873431868313900,2.52431396484375,-0.13855266571044922,0.9373314380645752,0.6548382043838501
1732873431878293200,2.534293212890625,0.1262340545654297,0.6025145053863525,0.8544237613677979
1732873431888302800,2.544302734375,0.39246368408203125,0.4110809564590454,0.9808226823806763
1732873431898312700,2.554312744140625,0.5630435943603516,0.290712833404541,0.9336492419242859
1732873431908292000,2.5642919921875,0.6482944488525391,0.2750580310821533,0.8648573160171509
1732873431918301700,2.5743017578125,0.627781867980957,0.2431255578994751,0.7849552035331726
1732873431928311600,2.5843115234375,0.5368795394897461,0.22556400299072266,0.7234451770782471
1732873431938290700,2.594290771484375,0.34319210052490234,0.21814823150634766,0.5447424054145813
1732873431948300500,2.604300537109375,0.11690711975097656,0.2320258617401123,0.30900171399116516
1732873431958310100,2.61431005859375,-0.030114173889160156,0.129256010055542,0.3231627941131592
1732873431968289500,2.62428955078125,-0.1548299789428711,0.14234662055969238,0.26397842168807983
1732873431978299400,2.63429931640625,-0.2811574935913086,0.24720454216003418,0.057326555252075195
1732873431988309000,2.64430908203125,0.08786869049072266,0.28817081451416016,0.13007374107837677
1732873431998288400,2.654288330078125,0.14366531372070312,0.27221202850341797,0.33730649948120117
1732873432008298200,2.66429833984375,0.16171836853027344,0.35930418968200684,0.4244585335254669
1732873432018307800,2.674307861328125,-0.41582584381103516,0.4991137981414795,0.3019055426120758
1732873432028287000,2.684286865234375,-0.7015924453735352,0.4122354984283447,-0.1657104343175888
1732873432038296800,2.694296875,-0.4848356246948242,0.8708088397979736,-0.8823142647743225
1732873432048306400,2.704306396484375,-0.36136436462402344,0.5205183029174805,-0.5506255626678467
1732873432058285800,2.714285888671875,-0.08807086944580078,0.1679058074951172,0.2047395408153534
1732873432068295700,2.724295654296875,0.2702159881591797,0.07876849174499512,0.33956506848335266
1732873432078305300,2.73430517578125,0.46723270416259766,0.05540204048156738,0.40998122096061707
1732873432088284700,2.74428466796875,0.6408576965332031,0.030010461807250977,0.37854456901550293
1732873432098294500,2.75429443359375,0.5423803329467773,0.10414242744445801,0.16502879559993744
1732873432108304100,2.76430419921875,0.2454977035522461,0.10918402671813965,0.20398901402950287
1732873432118314000,2.77431396484375,-0.030954360961914062,0.07086944580078125,0.2961043417453766
1732873432128293000,2.784293212890625,-0.1199045181274414,0.022280216217041016,0.44700655341148376
1732873432138302700,2.794302734375,-0.09832763671875,-0.015932321548461914,0.30018916726112366
1732873432148312600,2.8043125,0.04796600341796875,-0.02100229263305664,0.17598901689052582
1732873432158292000,2.8142919921875,0.1806182861328125,-0.021691322326660156,-0.021611899137496948
1732873432168301600,2.824301513671875,0.24029922485351562,-0.07407116889953613,-0.1446881741285324
1732873432178311400,2.8343115234375,0.2444934844970703,-0.0890340805053711,-0.13997100293636322
1732873432188290800,2.844290771484375,0.1837902069091797,-0.10293054580688477,-0.15074162185192108
1732873432198300700,2.85430078125,0.032032012939453125,-0.09740996360778809,-0.17306342720985413
1732873432208310300,2.864310302734375,-0.08374595642089844,-0.09227728843688965,-0.1434965431690216
1732873432218289400,2.874289306640625,-0.1344623565673828,-0.014741897583007812,-0.1708991527557373
1732873432228299300,2.88429931640625,-0.20882511138916016,0.013522148132324219,-0.21610745787620544
1732873432238308900,2.894308837890625,-0.22490787506103516,0.10383963584899902,-0.26718050241470337
1732873432248288300,2.904288330078125,-0.005164146423339844,0.1722090244293213,-0.35677623748779297
1732873432258298000,2.914298095703125,0.42418766021728516,0.23739361763000488,-0.38702577352523804
1732873432268307700,2.9243076171875,0.8907585144042969,0.3115203380584717,-0.3784911632537842
1732873432278287000,2.934287109375,1.2490215301513672,0.4071667194366455,-0.29014456272125244
1732873432288297000,2.944296875,1.5307331085205078,0.5483171939849854,-0.28826916217803955
1732873432298306600,2.954306640625,1.6431522369384766,0.7301578521728516,-0.28280526399612427
1732873432308286000,2.964285888671875,1.4623651504516602,0.9647660255432129,-0.22851306200027466
1732873432318295800,2.9742958984375,1.1092090606689453,1.180795431137085,-0.22228235006332397
1732873432328305400,2.984305419921875,0.7621479034423828,1.2865090370178223,-0.33639732003211975
1732873432338284800,2.994284912109375,0.47093868255615234,1.1544911861419678,-0.4074801504611969
1732873432348294400,3.00429443359375,0.49813079833984375,0.7757651805877686,-0.3498010039329529
1732873432358304000,3.014303955078125,0.857264518737793,0.280285120010376,-0.22450360655784607
1732873432368313900,3.02431396484375,1.5547618865966797,-0.3313431739807129,-0.15346965193748474
1732873432378293200,3.034293212890625,2.298243522644043,-0.8901618719100952,-0.07939691841602325
1732873432388302800,3.044302734375,3.0563201904296875,-1.3299387693405151,0.09076054394245148
1732873432398312700,3.054312744140625,3.8569135665893555,-1.647153615951538,0.1490226835012436
1732873432408292000,3.0642919921875,4.141147613525391,-1.7224645614624023,0.007859617471694946
1732873432418301700,3.0743017578125,3.867661476135254,-1.6871061325073242,-0.2490876466035843
1732873432428311600,3.0843115234375,3.1072559356689453,-1.632717490196228,-0.4078729450702667
1732873432438290700,3.094290771484375,1.7695608139038086,-1.5593664646148682,-0.5172120332717896
1732873432448300500,3.104300537109375,0.5988540649414062,-1.508711338043213,-0.5050894618034363
1732873432458310100,3.11431005859375,-0.6787824630737305,-1.4145817756652832,-0.48105305433273315
1732873432468289500,3.12428955078125,-1.4868621826171875,-1.4400346279144287,-0.5811320543289185
1732873432478299400,3.13429931640625,-2.031172752380371,-1.3486603498458862,-0.708611249923706
1732873432488309000,3.14430908203125,-2.498737335205078,-1.385733962059021,-0.9553107023239136
1732873432498288400,3.154288330078125,-2.8803348541259766,-1.4540373086929321,-1.171030044555664
1732873432508298200,3.16429833984375,-3.228811740875244,-1.4069640636444092,-1.4744635820388794
1732873432518307800,3.174307861328125,-3.5567235946655273,-1.364970326423645,-1.8342790603637695
1732873432528287000,3.184286865234375,-3.8716559410095215,-1.4419549703598022,-1.9610515832901
1732873432538296800,3.194296875,-4.051661968231201,-1.446348786354065,-2.0096237659454346
1732873432548306400,3.204306396484375,-3.917107582092285,-1.4989758729934692,-2.0669047832489014
1732873432558285800,3.214285888671875,-3.497819423675537,-1.5705242156982422,-2.1392910480499268
1732873432568295700,3.224295654296875,-2.6679062843322754,-1.7560609579086304,-2.0941147804260254
1732873432578305300,3.23430517578125,-1.7105441093444824,-1.899795651435852,-1.8318432569503784
1732873432588284700,3.24428466796875,-0.4078493118286133,-1.9529285430908203,-1.6310920715332031
1732873432598294500,3.25429443359375,1.0043773651123047,-1.896484613418579,-1.5350940227508545
1732873432608304000,3.26430419921875,2.322498321533203,-1.8213801383972168,-1.3814705610275269
1732873432618314000,3.27431396484375,3.5375070571899414,-1.6626754999160767,-1.1728630065917969
1732873432628293000,3.284293212890625,4.108541488647461,-1.4170949459075928,-1.0107823610305786
1732873432638302700,3.294302734375,3.818270683288574,-1.0481395721435547,-0.9357657432556152
1732873432648312600,3.3043125,2.8454465866088867,-0.7310322523117065,-0.7050284147262573
1732873432658292000,3.3142919921875,1.2291154861450195,-0.30077648162841797,-0.595186710357666
1732873432668301600,3.324301513671875,-0.052514076232910156,0.050704240798950195,-0.616550862789154
1732873432678311400,3.3343115234375,-1.2170534133911133,0.3643062114715576,-0.5574293732643127
1732873432688290800,3.344290771484375,-2.0411930084228516,0.5220949649810791,-0.5575278997421265
1732873432698300700,3.35430078125,-2.7363171577453613,0.5825181007385254,-0.6345284581184387
1732873432708310300,3.364310302734375,-3.0451602935791016,0.5193300247192383,-0.7225785255432129
1732873432718289400,3.374289306640625,-2.9450788497924805,0.3394629955291748,-0.7980051040649414
1732873432728299300,3.38429931640625,-2.3601670265197754,0.1243736743927002,-1.1008648872375488
1732873432738308900,3.394308837890625,-1.664076328277588,-0.03670048713684082,-1.318463921546936
1732873432748288300,3.404288330078125,-0.6526918411254883,-0.1717970371246338,-1.2092549800872803
1732873432758298000,3.414298095703125,0.09044837951660156,-0.2678201198577881,-1.1391421556472778
1732873432768307700,3.4243076171875,0.5415372848510742,-0.17104721069335938,-1.1584826707839966
1732873432778287000,3.434287109375,0.6873579025268555,-0.13234806060791016,-1.1905595064163208
1732873432788297000,3.444296875,0.6741008758544922,-0.19655966758728027,-1.1311100721359253
1732873432798306600,3.454306640625,0.48734283447265625,-0.16198110580444336,-0.8857471942901611
1732873432808286000,3.464285888671875,0.3013134002685547,-0.2639501094818115,-0.9498913288116455
1732873432818295800,3.4742958984375,0.6083889007568359,-0.2410726547241211,-1.0267359018325806
1732873432828305400,3.484305419921875,0.9646930694580078,-0.11850500106811523,-1.189615249633789
1732873432838284800,3.494284912109375,1.165675163269043,-0.2074298858642578,-1.22406005859375
1732873432848294400,3.50429443359375,1.1987237930297852,-0.21726560592651367,-0.7073509097099304
1732873432858304000,3.514303955078125,1.28240966796875,-0.22875308990478516,-0.30469489097595215
1732873432868313900,3.52431396484375,1.3668928146362305,-0.27492690086364746,-0.21456483006477356
1732873432878293200,3.534293212890625,1.4716806411743164,-0.2734827995300293,-0.2728479504585266
1732873432888302800,3.544302734375,1.308725357055664,-0.27588820457458496,-0.3394802510738373
1732873432898312700,3.554312744140625,1.0615882873535156,-0.30028653144836426,-0.30045104026794434
1732873432908292000,3.5642919921875,0.9252758026123047,-0.28863096237182617,-0.21330854296684265
1732873432918301700,3.5743017578125,0.7569293975830078,-0.3876824378967285,0.14037950336933136
1732873432928311600,3.5843115234375,0.7592277526855469,-0.4724400043487549,0.3711317181587219
1732873432938290700,3.594290771484375,0.9650020599365234,-0.44944095611572266,0.391562819480896
1732873432948300500,3.604300537109375,1.4652509689331055,-0.249403715133667,0.3616134524345398
1732873432958310100,3.61431005859375,1.9108304977416992,-0.029508352279663086,0.3164597749710083
1732873432968289500,3.62428955078125,2.0679121017456055,0.07306480407714844,0.17472323775291443
1732873432978299400,3.63429931640625,1.9379472732543945,0.004979848861694336,0.05754406750202179
1732873432988309000,3.64430908203125,1.607771873474121,-0.41550159454345703,-0.08480653166770935
1732873432998288400,3.654288330078125,1.6251697540283203,-1.0951818227767944,-0.34391412138938904
1732873433008298200,3.66429833984375,2.187546730041504,-1.944936990737915,-0.5164834260940552
1732873433018307800,3.674307861328125,3.197951316833496,-2.5678088665008545,-0.6527543067932129
1732873433028287000,3.684286865234375,4.663132667541504,-2.8788812160491943,-0.7893231511116028
1732873433038296800,3.694296875,5.562012672424316,-2.71401309967041,-0.834282398223877
1732873433048306400,3.704306396484375,5.003108978271484,-2.2891461849212646,-0.5110428929328918
1732873433058285800,3.714285888671875,2.9689388275146484,-1.871027946472168,-0.3610709607601166
1732873433068295700,3.724295654296875,0.7382020950317383,-1.5434341430664062,-0.07285204529762268
1732873433078305300,3.73430517578125,-1.7662510871887207,-1.534103512763977,0.37923768162727356
1732873433088284700,3.74428466796875,-3.588834285736084,-1.4259470701217651,1.275743007659912
1732873433098294500,3.75429443359375,-5.389455795288086,-1.3939480781555176,1.7626873254776
1732873433108304100,3.76430419921875,-6.352551460266113,-1.304281234741211,1.915162444114685
1732873433118314000,3.77431396484375,-6.723153114318848,-1.2651311159133911,2.1696724891662598
1732873433128293000,3.784293212890625,-6.617615699768066,-1.4744834899902344,2.1991567611694336
1732873433138302700,3.794302734375,-5.8386549949646,-1.7761709690093994,1.971537470817566
1732873433148312600,3.8043125,-3.8587217330932617,-2.0525155067443848,1.0355885028839111
1732873433158292000,3.8142919921875,-1.9468321800231934,-2.2677736282348633,1.1153075695037842
1732873433168301600,3.824301513671875,-0.12939453125,-2.7040152549743652,0.7630101442337036
1732873433178311400,3.8343115234375,1.4174785614013672,-2.7719812393188477,0.6084160208702087
1732873433188290800,3.844290771484375,3.0452394485473633,-2.5347073078155518,0.634343147277832
1732873433198300700,3.85430078125,3.9823741912841797,-2.153263568878174,0.5828773379325867
1732873433208310300,3.864310302734375,4.158041954040527,-1.6544935703277588,0.559496283531189
1732873433218289400,3.874289306640625,3.336153030395508,-1.0469398498535156,0.5647323727607727
1732873433228299300,3.88429931640625,1.8884248733520508,-0.6031739711761475,0.3452742397785187
1732873433238308900,3.894308837890625,0.5365114212036133,-0.26631832122802734,0.2396838665008545
1732873433248288300,3.904288330078125,-0.5236425399780273,-0.10306954383850098,0.197467640042305
1732873433258298000,3.914298095703125,-1.357224464416504,0.026978254318237305,0.2731971740722656
1732873433268307700,3.9243076171875,-1.7010064125061035,0.10681962966918945,0.29343050718307495
1732873433278287000,3.934287109375,-1.7443819046020508,0.036808013916015625,0.31430208683013916
1732873433288297000,3.944296875,-1.6178641319274902,-0.04792475700378418,0.3405270576477051
1732873433298306600,3.954306640625,-1.4570422172546387,-0.12937641143798828,0.37376654148101807
1732873433308286000,3.964285888671875,-1.2928428649902344,-0.2711832523345947,0.5360159873962402
1732873433318295800,3.9742958984375,-1.117757797241211,-0.36469578742980957,0.5655621290206909
1732873433328305400,3.984305419921875,-0.8309316635131836,-0.3822205066680908,0.5827406644821167
1732873433338284800,3.994284912109375,-0.49926090240478516,-0.4054911136627197,0.7681715488433838
1732873433348294400,4.00429443359375,-0.25414562225341797,-0.43549203872680664,0.9425586462020874
1732873433358304000,4.014303955078125,-0.13103866577148438,-0.4808065891265869,1.0329301357269287
1732873433368313900,4.02431396484375,0.0611572265625,-0.5279760360717773,1.0897071361541748
1732873433378293200,4.034293212890625,0.2297677993774414,-0.6577266454696655,1.2834241390228271
1732873433388302800,4.044302734375,0.2033672332763672,-0.6319661140441895,1.052886724472046
1732873433398312700,4.054312744140625,0.20481491088867188,-0.5080873966217041,0.8326453566551208
1732873433408292000,4.0642919921875,0.11328983306884766,-0.35177767276763916,0.6541757583618164
1732873433418301700,4.0743017578125,-0.07493400573730469,-0.24597537517547607,0.4842209219932556
1732873433428311600,4.0843115234375,-0.20770263671875,-0.1168217658996582,0.28641533851623535
1732873433438290700,4.094290771484375,-0.19055652618408203,0.0667870044708252,0.056977421045303345
1732873433448300500,4.104300537109375,0.03347301483154297,0.23503422737121582,-0.13842174410820007
1732873433458310100,4.11431005859375,0.3311328887939453,0.3411226272583008,-0.28385472297668457
1732873433468289500,4.12428955078125,0.7564592361450195,0.3756396770477295,-0.3426592946052551
1732873433478299400,4.13429931640625,1.3895387649536133,0.2926671504974365,-0.32557740807533264
1732873433488309000,4.14430908203125,1.9576425552368164,0.24759721755981445,-0.2306765764951706
1732873433498288400,4.154288330078125,2.6875505447387695,0.1975393295288086,-0.19612513482570648
1732873433508298200,4.16429833984375,3.3045530319213867,0.1477649211883545,-0.29107147455215454
1732873433518307800,4.174307861328125,3.873957633972168,0.2624650001525879,-0.6099547743797302
1732873433528287000,4.184286865234375,4.037419319152832,0.5041348934173584,-0.9103789329528809
1732873433538296800,4.194296875,3.709531784057617,0.6288708448410034,-1.252547264099121
1732873433548306400,4.204306396484375,2.919466018676758,0.4729419946670532,-1.4886956214904785
1732873433558285800,4.214285888671875,2.208146095275879,0.010062217712402344,-1.8308268785476685
1732873433568295700,4.224295654296875,2.048172950744629,-0.783237099647522,-1.9408849477767944
1732873433578305300,4.23430517578125,2.5049848556518555,-1.764817714691162,-1.8236576318740845
1732873433588284700,4.24428466796875,3.5134010314941406,-2.5539488792419434,-1.4808027744293213
1732873433598294500,4.25429443359375,4.558765411376953,-3.007612466812134,-1.1770155429840088
1732873433608304000,4.26430419921875,4.701778411865234,-2.8206045627593994,-1.3665567636489868
1732873433618314000,4.27431396484375,3.619964599609375,-2.502305030822754,-1.5236802101135254
1732873433628293000,4.284293212890625,1.6971015930175781,-2.201376438140869,-1.544021487236023
1732873433638302700,4.294302734375,-0.22881603240966797,-1.9788964986801147,-1.515395164489746
1732873433648312600,4.3043125,-2.6092681884765625,-1.677788257598877,-1.6316888332366943
1732873433658292000,4.3142919921875,-4.433161735534668,-1.445899248123169,-2.176403522491455
1732873433668301600,4.324301513671875,-5.889381408691406,-1.1500030755996704,-2.0857648849487305
1732873433678311400,4.3343115234375,-6.628912925720215,-1.0809165239334106,-1.9783430099487305
1732873433688290800,4.344290771484375,-6.905991077423096,-1.3762900829315186,-1.7646076679229736
1732873433698300700,4.35430078125,-6.606950759887695,-1.680147647857666,-1.2255566120147705
1732873433708310300,4.364310302734375,-6.161951065063477,-1.7382066249847412,-1.3256993293762207
1732873433718289400,4.374289306640625,-5.337513446807861,-1.3720382452011108,-3.1227710247039795
1732873433728299300,4.38429931640625,-2.844794750213623,-1.9262261390686035,-2.3710649013519287
1732873433738309000,4.39430908203125,-0.22629165649414062,-2.357532024383545,-1.0154438018798828
1732873433748288300,4.404288330078125,2.116358757019043,-2.512399435043335,-0.17786163091659546
1732873433758298000,4.414298095703125,4.183775901794434,-2.4176197052001953,0.3500126600265503
1732873433768307700,4.4243076171875,5.031991958618164,-1.7595036029815674,0.14959824085235596
1732873433778287000,4.434287109375,4.731637001037598,-0.7298228740692139,-0.521069347858429
1732873433788297000,4.444296875,3.816014289855957,-0.03941512107849121,-0.8469836711883545
1732873433798306600,4.454306640625,2.1612043380737305,0.4070117473602295,-0.912807822227478
1732873433808286000,4.464285888671875,0.7053775787353516,0.4321713447570801,-1.0415096282958984
1732873433818295800,4.4742958984375,-0.3676872253417969,0.40594053268432617,-1.051164984703064
1732873433828305400,4.484305419921875,-0.9286937713623047,0.31705355644226074,-0.8163111209869385
1732873433838284800,4.494284912109375,-1.0925121307373047,0.06377315521240234,-1.026136875152588
1732873433848294400,4.50429443359375,-1.2053804397583008,-0.06501054763793945,-1.2088875770568848
1732873433858304000,4.514303955078125,-1.133805274963379,-0.20024800300598145,-1.21632719039917
1732873433868313900,4.52431396484375,-0.8560762405395508,-0.24458050727844238,-1.2920377254486084
1732873433878293200,4.534293212890625,-0.5198202133178711,-0.219404935836792,-1.4648381471633911
1732873433888302800,4.544302734375,-0.155120849609375,-0.13721942901611328,-1.5165306329727173
1732873433898312700,4.554312744140625,-0.0052356719970703125,-0.06500720977783203,-1.5611815452575684
1732873433908292000,4.5642919921875,0.17469310760498047,-0.03246164321899414,-1.635345458984375
1732873433918301700,4.5743017578125,0.08077716827392578,0.06428194046020508,-1.9896730184555054
1732873433928311600,4.5843115234375,-0.17106914520263672,0.048375844955444336,-2.2208917140960693
1732873433938290700,4.594290771484375,-0.579864501953125,-0.1779308319091797,-1.9150824546813965
1732873433948300500,4.604300537109375,-0.9834060668945312,-0.37921667098999023,-1.4240624904632568
1732873433958310100,4.61431005859375,-1.049485206604004,-0.4020051956176758,-1.0472321510314941
1732873433968289500,4.62428955078125,-0.9224510192871094,-0.48791539669036865,-0.9793252944946289
1732873433978299400,4.63429931640625,-0.8803224563598633,-0.4204738140106201,-0.7579764723777771
1732873433988309000,4.64430908203125,-0.8099260330200195,-0.30053257942199707,-0.5194708108901978
1732873433998288400,4.654288330078125,-0.4901847839355469,-0.16251873970031738,-0.7753007411956787
1732873434008298200,4.66429833984375,-0.0005321502685546875,-0.11177444458007812,-0.876197338104248
1732873434018307800,4.674307861328125,0.7488851547241211,-0.16819238662719727,-1.1078720092773438
1732873434028413400,4.684413330078125,1.337294578552246,-0.20290565490722656,-1.2224454879760742
1732873434038423300,4.69442333984375,1.5623779296875,-0.23648571968078613,-1.3338980674743652
1732873434048433000,4.704432861328125,1.7340431213378906,-0.2700512409210205,-1.2151036262512207
1732873434058412300,4.714412353515625,1.807145118713379,-0.31870758533477783,-0.8139811158180237
1732873434068422100,4.724422119140625,1.4966840744018555,-0.17431998252868652,-0.4490954279899597
1732873434078431700,4.734431640625,0.9610366821289062,0.06641507148742676,-0.3770727515220642
1732873434088411100,4.7444111328125,0.507725715637207,0.2873835563659668,-0.029507219791412354
1732873434098421000,4.7544208984375,-0.010622978210449219,0.4339568614959717,0.1752902865409851
1732873434108430600,4.7644306640625,-0.3556041717529297,0.7779867649078369,0.37876951694488525
1732873434118440400,4.7744404296875,-0.4464406967163086,0.5808718204498291,0.3195551633834839
1732873434128419600,4.784419677734375,-0.29978466033935547,-0.29979705810546875,0.33579546213150024
1732873434138429200,4.79442919921875,0.5012989044189453,-1.5145094394683838,0.5901307463645935
1732873434148439000,4.80443896484375,2.158720016479492,-2.6514923572540283,1.0612775087356567
1732873434158418400,4.81441845703125,4.399777412414551,-3.3789920806884766,1.471825122833252
1732873434168428000,4.824427978515625,6.128461837768555,-3.177408218383789,1.0751937627792358
1732873434178438000,4.83443798828125,6.329629898071289,-2.3065993785858154,0.6454488635063171
1732873434188417300,4.844417236328125,4.631325721740723,-1.8844163417816162,0.8272644281387329
1732873434198427100,4.85442724609375,1.6077098846435547,-1.3024892807006836,0.9355452656745911
1732873434208436700,4.864436767578125,-0.879119873046875,-0.9973998069763184,0.7986403107643127
1732873434218415900,4.874415771484375,-3.4815807342529297,-0.7692209482192993,1.1683664321899414
1732873434228425700,4.88442578125,-5.103911876678467,-0.8008146286010742,1.8312461376190186
1732873434238435300,4.894435302734375,-5.65776252746582,-1.065427303314209,2.362999439239502
1732873434248414700,4.904414794921875,-5.4113359451293945,-1.4582748413085938,2.407452344894409
1732873434258424600,4.914424560546875,-4.816947937011719,-1.7704074382781982,2.139512062072754
1732873434268434200,4.92443408203125,-3.238969326019287,-1.9792613983154297,1.5695360898971558
1732873434278413600,4.93441357421875,-1.3476524353027344,-2.127396821975708,1.2025823593139648
1732873434288423400,4.94442333984375,0.7122631072998047,-2.1013920307159424,0.7123651504516602
1732873434298433000,4.95443310546875,2.113715171813965,-2.034566879272461,0.6869598031044006
1732873434308412400,4.964412353515625,3.045482635498047,-1.7874603271484375,0.6918798089027405
1732873434318422000,4.974422119140625,3.237227439880371,-1.4038866758346558,0.6938778162002563
1732873434328431900,4.984431884765625,2.5406999588012695,-1.0388904809951782,0.7678623199462891
1732873434338411000,4.994410888671875,1.4849739074707031,-0.8170781135559082,0.6107803583145142
1732873434348420900,5.0044208984375,0.41207408905029297,-0.7180336713790894,0.5842872262001038
1732873434358430500,5.014430419921875,-0.2532215118408203,-0.5929570198059082,0.5218660831451416
1732873434368440300,5.0244404296875,-0.6299667358398438,-0.47198545932769775,0.4136924743652344
1732873434378419700,5.034419677734375,-0.7719011306762695,-0.32676005363464355,0.3607456088066101
1732873434388429300,5.04442919921875,-0.7032909393310547,-0.22066795825958252,0.5077610015869141
1732873434398439200,5.054439208984375,-0.5234184265136719,-0.1307070255279541,0.6194956302642822
1732873434408418600,5.06441845703125,-0.42361927032470703,-0.07724308967590332,0.6587920784950256
1732873434418428200,5.07442822265625,-0.319427490234375,-0.06807279586791992,0.8205328583717346
1732873434428438000,5.08443798828125,-0.18639469146728516,-0.03357803821563721,0.935971736907959
1732873434438417200,5.094417236328125,-0.27304649353027344,-0.12896275520324707,1.124193549156189
1732873434448427000,5.104427001953125,-0.3866748809814453,-0.19005918502807617,0.9741259813308716
1732873434458436600,5.1144365234375,-0.33616065979003906,-0.2813013792037964,0.915725827217102
1732873434468416000,5.124416015625,-0.035930633544921875,-0.3557322025299072,0.8547089099884033
1732873434478425900,5.13442578125,0.3133583068847656,-0.42514240741729736,0.791643500328064
1732873434488435500,5.144435546875,0.6653356552124023,-0.40262770652770996,0.7100080847740173
1732873434498414800,5.154414794921875,0.9009189605712891,-0.41850829124450684,0.7047455310821533
1732873434508424700,5.1644248046875,0.9606599807739258,-0.3982182741165161,0.6931673288345337
1732873434518434300,5.174434326171875,0.7446393966674805,-0.3469778299331665,0.6804661750793457
1732873434528413400,5.184413330078125,0.520564079284668,-0.279895544052124,0.5933123826980591
1732873434538423300,5.19442333984375,0.4384126663208008,-0.21847331523895264,0.44687962532043457
1732873434548433000,5.204432861328125,0.5199613571166992,-0.09042048454284668,0.22193872928619385
1732873434558412300,5.214412353515625,0.5368156433105469,-0.021471858024597168,-0.019586682319641113
1732873434568422100,5.224422119140625,0.5202646255493164,-0.02124929428100586,-0.3319494128227234
1732873434578431700,5.234431640625,0.6091480255126953,-0.1689140796661377,-0.37241029739379883
1732873434588411100,5.2444111328125,0.6266021728515625,-0.21628212928771973,-0.4987840950489044
1732873434598421000,5.2544208984375,0.8476753234863281,-0.2877613306045532,-0.6189665198326111
1732873434608430600,5.2644306640625,0.9514131546020508,-0.40731698274612427,-0.7607108950614929
1732873434618440400,5.2744404296875,0.8090476989746094,-0.5862329006195068,-1.1469295024871826
1732873434628419600,5.284419677734375,0.6227264404296875,-0.79410719871521,-1.542858362197876
1732873434638429200,5.29442919921875,0.6564340591430664,-1.0358331203460693,-1.9025380611419678
1732873434648439000,5.30443896484375,0.9575519561767578,-1.2945507764816284,-2.223787784576416
1732873434658418400,5.31441845703125,1.7102842330932617,-1.4785910844802856,-2.147383451461792
1732873434668428000,5.324427978515625,2.8380613327026367,-1.5968433618545532,-2.0329675674438477
1732873434678438000,5.33443798828125,3.81060791015625,-1.69069504737854,-1.192713737487793
1732873434688417300,5.344417236328125,3.3103408813476562,-1.4875860214233398,-0.3170001804828644
1732873434698427100,5.35442724609375,1.896697998046875,-1.2905864715576172,-0.038585811853408813
1732873434708436700,5.364436767578125,0.3244180679321289,-0.9562938809394836,0.022860437631607056
1732873434718416000,5.374415771484375,-1.0933427810668945,-0.62856525182724,0.05424642562866211
1732873434728425700,5.38442578125,-2.620697498321533,-0.3327845335006714,0.027184367179870605
1732873434738435300,5.394435302734375,-3.5456132888793945,-0.2529538869857788,0.1964818835258484
1732873434748414700,5.404414794921875,-4.224549770355225,-0.13768219947814941,0.1636938452720642
1732873434758424600,5.414424560546875,-4.31427001953125,-0.11849820613861084,-0.061356157064437866
1732873434768434200,5.42443408203125,-4.119563579559326,-0.06470000743865967,-0.6111851334571838
1732873434778413600,5.43441357421875,-3.602820873260498,0.039836764335632324,-1.1355425119400024
1732873434788423400,5.44442333984375,-2.8434929847717285,0.09066760540008545,-1.5553475618362427
1732873434798433000,5.45443310546875,-2.193756103515625,-0.19589674472808838,-1.4205403327941895
1732873434808412400,5.464412353515625,-1.401458740234375,-0.7989270687103271,-0.673660397529602
1732873434818422000,5.474422119140625,-0.3273134231567383,-1.1686460971832275,-0.23102155327796936
1732873434828432000,5.484431884765625,0.6945981979370117,-1.2988120317459106,-0.03732800483703613
1732873434838411000,5.494410888671875,1.9293184280395508,-1.399633765220642,-0.015431523323059082
1732873434848420900,5.5044208984375,2.9902572631835938,-1.319333791732788,-0.13610461354255676
1732873434858430500,5.514430419921875,3.6439294815063477,-1.0672249794006348,-0.4852944612503052
1732873434868440300,5.5244404296875,3.7330398559570312,-0.6248340010643005,-1.0669777393341064
1732873434878419700,5.534419677734375,3.271993637084961,-0.10537087917327881,-1.485785722732544
1732873434888429600,5.5444296875,2.3738327026367188,0.0672154426574707,-1.5364716053009033
1732873434898439200,5.554439208984375,0.9463071823120117,0.2623112201690674,-1.498673439025879
1732873434908418600,5.56441845703125,-0.22790813446044922,0.3559989929199219,-1.679964303970337
1732873434918428400,5.574428466796875,-1.060938835144043,0.3905799388885498,-1.6536674499511719
1732873434928438000,5.58443798828125,-1.7948856353759766,0.390597939491272,-1.602920413017273
1732873434938417200,5.594417236328125,-2.1477999687194824,0.4156765937805176,-1.5048260688781738
1732873434948427000,5.604427001953125,-2.2401304244995117,0.3674706220626831,-1.328766107559204
1732873434958436600,5.6144365234375,-2.1452293395996094,0.3497037887573242,-1.328244686126709
1732873434968416000,5.624416015625,-1.7691130638122559,0.34073567390441895,-1.4191632270812988
1732873434978425900,5.63442578125,-1.277292251586914,0.20321857929229736,-1.4138615131378174
1732873434988435500,5.644435546875,-0.6313543319702148,0.06379568576812744,-1.485499620437622
1732873434998414800,5.654414794921875,-0.13010597229003906,-0.11080348491668701,-1.6526633501052856
1732873435008424700,5.6644248046875,0.3537416458129883,-0.10059869289398193,-1.984382152557373
1732873435018434300,5.674434326171875,0.4897174835205078,0.057698845863342285,-2.465426445007324
1732873435028413400,5.684413330078125,0.4729299545288086,0.1672438383102417,-2.7540271282196045
1732873435038423300,5.69442333984375,0.2723369598388672,0.20871400833129883,-2.8295702934265137
1732873435048433000,5.704432861328125,0.016394615173339844,0.18602383136749268,-1.7146215438842773
1732873435058412300,5.714412353515625,-0.3081836700439453,0.10684394836425781,-0.9260155558586121
1732873435068422100,5.724422119140625,-0.5566720962524414,0.021906137466430664,-0.3931807279586792
1732873435078432000,5.734431884765625,-0.7225332260131836,-0.006922245025634766,-0.1503666639328003
1732873435088411100,5.7444111328125,-0.6657943725585938,-0.09099698066711426,-0.09047472476959229
1732873435098421000,5.7544208984375,-0.34851932525634766,-0.15421736240386963,0.1330028772354126
1732873435108430600,5.7644306640625,0.13483810424804688,-0.29939520359039307,0.37843596935272217
1732873435118440400,5.7744404296875,0.6267328262329102,-0.39676177501678467,0.5103247165679932
1732873435128419600,5.784419677734375,1.098921775817871,-0.36396217346191406,0.5107719302177429
1732873435138429400,5.794429443359375,1.5973844528198242,-0.29631638526916504,0.4281024932861328
1732873435148439000,5.80443896484375,1.9441289901733398,-0.1799250841140747,0.2493208646774292
1732873435158418400,5.81441845703125,1.9417915344238281,-0.036089301109313965,0.18804192543029785
1732873435168428300,5.82442822265625,1.649698257446289,0.13072502613067627,0.29164302349090576
1732873435178438000,5.83443798828125,1.165949821472168,0.2039245367050171,0.44339126348495483
1732873435188417300,5.844417236328125,0.7078409194946289,0.31680798530578613,0.555617094039917
1732873435198427100,5.85442724609375,0.4350099563598633,0.4070718288421631,0.605476438999176
1732873435208436700,5.864436767578125,0.6175775527954102,0.466150164604187,0.5263488292694092
1732873435218415900,5.874415771484375,1.1113996505737305,0.2801978588104248,0.7402626276016235
1732873435228425500,5.884425537109375,1.8944320678710938,-0.12050116062164307,1.2777364253997803
1732873435238435300,5.894435302734375,2.8656673431396484,-0.5083053708076477,1.6553627252578735
1732873435248414700,5.904414794921875,3.447803497314453,-0.8468868136405945,1.960381031036377
1732873435258424600,5.914424560546875,3.488823890686035,-1.1179685592651367,2.174968719482422
1732873435268434200,5.92443408203125,3.01132869720459,-1.3010565042495728,2.105682611465454
1732873435278413600,5.93441357421875,2.002058982849121,-1.3877577781677246,1.804736852645874
1732873435288423400,5.94442333984375,1.0457706451416016,-1.419005036354065,1.4307916164398193
1732873435298433000,5.95443310546875,0.3458700180053711,-1.4891160726547241,1.3489482402801514
1732873435308412400,5.964412353515625,-0.11979961395263672,-1.5018023252487183,1.3391014337539673
1732873435318422000,5.974422119140625,-0.5562305450439453,-1.2935975790023804,1.3568145036697388
1732873435328431900,5.984431884765625,-0.9510440826416016,-1.0774953365325928,1.4058772325515747
1732873435338411000,5.994410888671875,-1.352005958557129,-0.8637176156044006,1.527134656906128
1732873435348420900,6.0044208984375,-1.8843059539794922,-0.65945965051651,1.6170005798339844
1732873435358430500,6.014430419921875,-2.413679599761963,-0.4923512935638428,1.5900108814239502
1732873435368440300,6.0244404296875,-2.9416189193725586,-0.3800358772277832,1.5356918573379517
1732873435378419700,6.034419677734375,-3.4334964752197266,-0.37286651134490967,1.436376929283142
1732873435388429300,6.04442919921875,-3.5997114181518555,-0.39387571811676025,1.4119329452514648
1732873435398439200,6.054439208984375,-3.2162342071533203,-0.4671511650085449,1.3095426559448242
1732873435408418600,6.06441845703125,-2.334230422973633,-0.5468889474868774,0.9873742461204529
1732873435418428200,6.07442822265625,-1.3664207458496094,-0.530310869216919,0.650891900062561
1732873435428438000,6.08443798828125,-0.1887674331665039,-0.4941258430480957,0.33827072381973267
1732873435438417200,6.094417236328125,0.7871828079223633,-0.39728057384490967,0.18364346027374268
1732873435448427000,6.104427001953125,1.7846670150756836,-0.2549722194671631,0.17966675758361816
1732873435458436600,6.1144365234375,2.4600439071655273,-0.10068249702453613,0.25629091262817383
1732873435468416000,6.124416015625,2.5946969985961914,0.030252814292907715,0.34613072872161865
1732873435478425600,6.134425537109375,2.110860824584961,0.2519114017486572,0.3815447688102722
1732873435488435500,6.144435546875,1.4215221405029297,0.3960716724395752,0.5166241526603699
1732873435498414800,6.154414794921875,0.5914955139160156,0.5819510221481323,0.5209373235702515
1732873435508424700,6.1644248046875,-0.013683319091796875,0.7241859436035156,0.5529841184616089
1732873435518434300,6.174434326171875,-0.6436367034912109,0.7803072929382324,0.6091055870056152
1732873435528413400,6.184413330078125,-1.0714282989501953,0.8446857929229736,0.5951652526855469
1732873435538423300,6.19442333984375,-1.3667678833007812,0.8666772842407227,0.5205529928207397
1732873435548433000,6.204432861328125,-1.6423864364624023,0.8683950901031494,0.3536524474620819
1732873435558412300,6.214412353515625,-1.9637341499328613,0.8892426490783691,0.11780309677124023
1732873435568422100,6.224422119140625,-2.388517379760742,1.069124460220337,-0.796261727809906
1732873435578431700,6.234431640625,-2.437974452972412,1.1928964853286743,-0.7559605836868286
1732873435588411100,6.2444111328125,-2.295978546142578,0.9344272613525391,-0.4361896514892578
1732873435598421000,6.2544208984375,-1.9702849388122559,0.745850682258606,-0.11347323656082153
1732873435608430600,6.2644306640625,-1.5665969848632812,0.6220849752426147,0.1849256157875061
1732873435618440400,6.2744404296875,-1.056915283203125,0.5441666841506958,0.5464218854904175
1732873435628419600,6.284419677734375,-0.5382146835327148,0.5130634307861328,0.7425717115402222
1732873435638429200,6.29442919921875,-0.05500221252441406,0.5670863389968872,0.7557334899902344
1732873435648439000,6.30443896484375,0.30966663360595703,0.6940524578094482,0.5416173934936523
1732873435658418400,6.31441845703125,0.5676069259643555,0.8466610908508301,0.26106518507003784
1732873435668428000,6.324427978515625,0.6969757080078125,1.062974214553833,0.027951300144195557
1732873435678438000,6.33443798828125,0.6900959014892578,1.2595031261444092,0.045835018157958984
1732873435688417300,6.344417236328125,0.6519079208374023,0.923040509223938,0.00020432472229003906
1732873435698427100,6.35442724609375,0.6150827407836914,0.6927567720413208,0.3002602458000183
1732873435708436700,6.364436767578125,0.6043996810913086,0.49716269969940186,0.5624866485595703
1732873435718416000,6.374415771484375,0.5434112548828125,0.3177008628845215,0.6604065895080566
1732873435728425700,6.38442578125,0.5781240463256836,0.22967147827148438,0.5126927495002747
1732873435738435300,6.394435302734375,0.9692001342773438,0.20511293411254883,-0.21380633115768433
1732873435748414700,6.404414794921875,1.0787181854248047,0.6928541660308838,-0.786340057849884
1732873435758424600,6.414424560546875,1.769556999206543,0.3139073848724365,-0.21666115522384644
1732873435768434200,6.42443408203125,2.3470821380615234,0.11326193809509277,-0.366303026676178
1732873435778413600,6.43441357421875,2.5750818252563477,0.5560643672943115,-0.3292170763015747
1732873435788423400,6.44442333984375,2.987924575805664,0.625845193862915,-0.5956717729568481
1732873435798433000,6.45443310546875,3.0327749252319336,0.7187097072601318,-0.7620895504951477
1732873435808412400,6.464412353515625,2.669422149658203,0.7335419654846191,-1.0224745273590088
1732873435818422000,6.474422119140625,2.5394973754882812,0.49147462844848633,-0.9582120180130005
1732873435828432000,6.484431884765625,2.4413890838623047,0.08809971809387207,-0.7013213038444519
1732873435838411300,6.494411376953125,2.643826484680176,-0.06639575958251953,-0.8970399498939514
1732873435848420900,6.5044208984375,3.153170585632324,-0.37325847148895264,-0.8156049847602844
1732873435858430500,6.514430419921875,3.5746030807495117,-0.7740675210952759,-0.3628982901573181
1732873435868440300,6.5244404296875,3.732193946838379,-1.274226427078247,0.2711344361305237
1732873435878419700,6.534419677734375,3.3166379928588867,-1.6032787561416626,0.7418310642242432
1732873435888429600,6.5444296875,2.3083572387695312,-1.9068005084991455,1.120737075805664
1732873435898439200,6.554439208984375,1.1586418151855469,-2.1396431922912598,1.2679234743118286
1732873435908418600,6.56441845703125,0.027794837951660156,-2.0157368183135986,0.7741077542304993
1732873435918428400,6.574428466796875,-1.0438060760498047,-1.5893889665603638,-0.15016478300094604
1732873435928438000,6.58443798828125,-1.7623810768127441,-1.8626790046691895,0.09183335304260254
1732873435938417200,6.594417236328125,-2.426145076751709,-1.7722235918045044,-0.11679744720458984
1732873435948427000,6.604427001953125,-2.9671807289123535,-1.4563977718353271,-0.7403902411460876
1732873435958436600,6.6144365234375,-3.384504795074463,-1.0835680961608887,-1.5267187356948853
1732873435968416000,6.624416015625,-3.5187764167785645,-0.8640708923339844,-2.0486958026885986
1732873435978425900,6.63442578125,-3.5937628746032715,-0.7331562042236328,-2.310789108276367
1732873435988435500,6.644435546875,-3.5977892875671387,-0.6265270709991455,-2.576265811920166
1732873435998414800,6.654414794921875,-3.463050365447998,-0.672619104385376,-2.510699510574341
1732873436008424700,6.6644248046875,-2.8003926277160645,-1.3122448921203613,-1.2058794498443604
1732873436018434300,6.674434326171875,-2.3482894897460938,-1.7959034442901611,-0.5440831184387207
1732873436028413400,6.684413330078125,-1.5012483596801758,-1.957780122756958,-0.21171459555625916
1732873436038423300,6.69442333984375,-0.6390104293823242,-1.9884235858917236,0.0054038166999816895
1732873436048433000,6.704432861328125,0.2475128173828125,-1.7819067239761353,-0.1092991828918457
1732873436058412300,6.714412353515625,0.914402961730957,-1.4767588376998901,-0.19370654225349426
1732873436068422100,6.724422119140625,1.1453466415405273,-1.27644944190979,-0.0653875470161438
1732873436078432000,6.734431884765625,0.8245515823364258,-0.9252080917358398,-0.14624255895614624
1732873436088411100,6.7444111328125,0.17357730865478516,-0.5528409481048584,-0.1978340446949005
1732873436098421000,6.7544208984375,-0.594151496887207,-0.2740778923034668,-0.21474391222000122
1732873436108430600,6.7644306640625,-1.440800666809082,0.1297774314880371,-0.40374481678009033
1732873436118440400,6.7744404296875,-1.9424023628234863,0.2786390781402588,-0.3281055688858032
1732873436128419600,6.784419677734375,-2.270782947540283,0.4062321186065674,-0.3254973888397217
1732873436138429400,6.794429443359375,-2.375271797180176,0.5163412094116211,-0.4263952970504761
1732873436148439000,6.80443896484375,-2.321371078491211,0.4727132320404053,-0.5235459804534912
1732873436158418400,6.81441845703125,-2.0544772148132324,0.4082963466644287,-0.6911835074424744
1732873436168428300,6.82442822265625,-1.593813419342041,0.309262752532959,-0.8103760480880737
1732873436178438000,6.83443798828125,-0.9964981079101562,0.237227201461792,-0.8401476144790649
1732873436188417300,6.844417236328125,-0.4152078628540039,0.24338316917419434,-0.9389218091964722
1732873436198427100,6.85442724609375,0.29193973541259766,0.208207368850708,-0.9590787887573242
1732873436208436700,6.864436767578125,0.7785720825195312,0.16010093688964844,-0.8209356069564819
1732873436218415900,6.874415771484375,1.1323776245117188,0.06950497627258301,-0.5873526334762573
1732873436228425500,6.884425537109375,1.3141555786132812,0.0006875991821289062,-0.5047005414962769
1732873436238435300,6.894435302734375,1.282637596130371,-0.08109807968139648,-0.49650028347969055
1732873436248414700,6.904414794921875,1.1428184509277344,0.04040932655334473,-0.6997501254081726
1732873436258424600,6.914424560546875,0.993189811706543,0.08130240440368652,-0.8689519762992859
1732873436268434200,6.92443408203125,0.9020729064941406,0.09570717811584473,-0.9165021777153015
1732873436278413600,6.93441357421875,0.9027242660522461,0.15139055252075195,-0.8006537556648254
1732873436288423400,6.94442333984375,0.8442268371582031,0.18753552436828613,-0.7684977054595947
1732873436298433000,6.95443310546875,0.8348016738891602,0.20301532745361328,-0.7282052636146545
1732873436308412400,6.964412353515625,0.8434362411499023,0.23603463172912598,-0.7240212559700012
1732873436318422000,6.974422119140625,0.955927848815918,0.2020092010498047,-0.5334264039993286
1732873436328431900,6.984431884765625,1.0137720108032227,0.3538196086883545,-0.7594448328018188
1732873436338411000,6.994410888671875,0.9563016891479492,0.2864823341369629,-0.554486095905304
1732873436348420900,7.0044208984375,0.8197717666625977,0.24527931213378906,-0.547956645488739
1732873436358430500,7.014430419921875,0.674983024597168,0.237640380859375,-0.5023536086082458
1732873436368440300,7.0244404296875,0.7751321792602539,0.1910405158996582,-0.48665791749954224
1732873436378419700,7.034419677734375,1.2030105590820312,0.3018825054168701,-0.3365929126739502
1732873436388429300,7.04442919921875,1.6402921676635742,0.40526843070983887,-0.15425288677215576
1732873436398439200,7.054439208984375,1.99456787109375,0.29924702644348145,0.09644931554794312
1732873436408418600,7.06441845703125,2.1225109100341797,-0.006246805191040039,0.47480422258377075
1732873436418428200,7.07442822265625,2.0006484985351562,-0.6857659816741943,0.6322983503341675
1732873436428438000,7.08443798828125,2.0648908615112305,-1.5565900802612305,0.8222668766975403
1732873436438417200,7.094417236328125,2.7752933502197266,-2.67043399810791,1.234262466430664
1732873436448427000,7.104427001953125,4.083737373352051,-3.4919514656066895,1.6440849304199219
1732873436458436600,7.1144365234375,5.133563041687012,-4.02396297454834,2.0960488319396973
1732873436468416000,7.124416015625,5.676854133605957,-4.225923538208008,2.7232871055603027
1732873436478425600,7.134425537109375,5.061337471008301,-3.6421070098876953,2.3766307830810547
1732873436488435500,7.144435546875,3.248194694519043,-2.38277268409729,1.1560050249099731
1732873436498414800,7.154414794921875,1.0602483749389648,-1.7549159526824951,0.9897552728652954
1732873436508424700,7.1644248046875,-1.5182037353515625,-1.416999101638794,1.248051643371582
1732873436518434300,7.174434326171875,-3.6611666679382324,-1.22379469871521,1.5034418106079102
1732873436528413400,7.184413330078125,-5.753608703613281,-1.1080079078674316,1.5539240837097168
1732873436538423300,7.19442333984375,-7.156033515930176,-1.1370569467544556,1.6774003505706787
1732873436548433000,7.204432861328125,-7.796811103820801,-1.321021556854248,1.7593528032302856
1732873436558412300,7.214412353515625,-7.218094825744629,-1.671900987625122,1.8988003730773926
1732873436568422100,7.224422119140625,-5.120028495788574,-2.1296815872192383,1.5101232528686523
1732873436578431700,7.234431640625,-2.468858242034912,-2.393594264984131,1.1588135957717896
1732873436588411100,7.2444111328125,-0.3395042419433594,-2.625885486602783,0.9650664329528809
1732873436598421000,7.2544208984375,1.7785263061523438,-2.793240785598755,0.748619556427002
1732873436608430600,7.2644306640625,3.358816146850586,-2.6709535121917725,0.6373932361602783
1732873436618440400,7.2744404296875,4.476470947265625,-2.5240187644958496,0.1668701171875
1732873436628419600,7.284419677734375,4.632494926452637,-2.05173397064209,-0.03918719291687012
1732873436638429200,7.29442919921875,3.803513526916504,-1.4261908531188965,0.10608381032943726
1732873436648439000,7.30443896484375,2.2612342834472656,-1.0425752401351929,-0.041892170906066895
1732873436658418400,7.31441845703125,0.6442880630493164,-0.5175243616104126,-0.16057634353637695
1732873436668428300,7.32442822265625,-0.6240024566650391,-0.22332382202148438,-0.04569375514984131
1732873436678438000,7.33443798828125,-1.5397205352783203,-0.036209821701049805,0.11919558048248291
1732873436688417300,7.344417236328125,-2.0913314819335938,0.051870107650756836,0.1799558401107788
1732873436698427100,7.35442724609375,-1.9578208923339844,0.09487462043762207,0.1419835090637207
1732873436708436700,7.364436767578125,-1.3012886047363281,0.13003230094909668,-0.0246657133102417
1732873436718416000,7.374415771484375,-0.6776771545410156,0.07448506355285645,-0.036951661109924316
1732873436728425700,7.38442578125,-0.3260936737060547,0.03290748596191406,0.039536476135253906
1732873436738435300,7.394435302734375,-0.17096328735351562,-0.00041103363037109375,-0.02991384267807007
1732873436748414700,7.404414794921875,-0.3522224426269531,-0.07046771049499512,-0.18958276510238647
1732873436758424600,7.414424560546875,-0.5271806716918945,-0.1831662654876709,-0.21866977214813232
1732873436768434200,7.42443408203125,-0.7655353546142578,-0.38747715950012207,-0.13356566429138184
1732873436778413600,7.43441357421875,-1.0030555725097656,-0.5092068910598755,-0.03476107120513916
1732873436788423400,7.44442333984375,-1.0830793380737305,-0.5713961124420166,0.05580401420593262
1732873436798433000,7.45443310546875,-0.7369527816772461,-0.7060176134109497,0.4945809543132782
1732873436808412400,7.464412353515625,-0.4763526916503906,-0.7166669368743896,0.7558241486549377
1732873436818422000,7.474422119140625,-0.18158435821533203,-0.7863746881484985,1.1260404586791992
1732873436828432000,7.484431884765625,-0.17348575592041016,-0.6681807041168213,1.0755400657653809
1732873436838411300,7.494411376953125,-0.05074310302734375,-0.5718348026275635,0.9250988960266113
1732873436848420900,7.5044208984375,0.057616233825683594,-0.4728580713272095,0.46421223878860474
1732873436858430500,7.514430419921875,0.2287120819091797,-0.2737389802932739,0.0026157498359680176
1732873436868440300,7.5244404296875,0.5132207870483398,-0.0931391716003418,-0.19707393646240234
1732873436878419700,7.534419677734375,0.8718290328979492,-0.07411301136016846,-0.21427154541015625
1732873436888429600,7.5444296875,1.2461214065551758,-0.01801586151123047,-0.09270292520523071
1732873436898439200,7.554439208984375,1.6191368103027344,0.10814404487609863,-0.03048694133758545
1732873436908418600,7.56441845703125,1.8642072677612305,0.3127014636993408,0.02741074562072754
1732873436918428400,7.574428466796875,1.8568477630615234,0.3394867181777954,0.2196757197380066
1732873436928438000,7.58443798828125,1.748556137084961,0.44454503059387207,0.24662667512893677
1732873436938417200,7.594417236328125,1.6265830993652344,0.6755117177963257,-0.028800666332244873
1732873436948427000,7.604427001953125,1.27099609375,0.7909878492355347,-0.4526178538799286
1732873436958436600,7.6144365234375,0.8301229476928711,0.46885251998901367,-0.9429385662078857
1732873436968416000,7.624416015625,0.6460542678833008,-0.1237558126449585,-1.243582010269165
1732873436978425900,7.63442578125,1.277822494506836,-0.817694902420044,-1.453169822692871
1732873436988435500,7.644435546875,2.9489316940307617,-1.7226619720458984,-1.012537956237793
1732873436998414800,7.654414794921875,4.624163627624512,-2.3094308376312256,-0.6291467547416687
1732873437008424700,7.6644248046875,6.429415702819824,-2.4540932178497314,-0.7449218034744263
1732873437018434300,7.674434326171875,6.924559593200684,-2.1545162200927734,-0.9188181757926941
1732873437028413400,7.684413330078125,5.560088157653809,-1.7000079154968262,-1.3601213693618774
1732873437038423300,7.69442333984375,3.1111888885498047,-1.3070423603057861,-1.3566558361053467
1732873437048433000,7.704432861328125,0.5068092346191406,-1.1155670881271362,-1.4288370609283447
1732873437058412300,7.714412353515625,-2.398703098297119,-0.7925634384155273,-1.731849193572998
1732873437068422100,7.724422119140625,-4.706137657165527,-0.6197856664657593,-1.921484351158142
1732873437078432000,7.734431884765625,-6.545131206512451,-0.5846256017684937,-2.053694009780884
1732873437088411100,7.7444111328125,-7.227477073669434,-0.45811402797698975,-2.267155647277832
1732873437098421000,7.7544208984375,-6.784954071044922,-0.44567203521728516,-2.4801719188690186
1732873437108430600,7.7644306640625,-5.455811977386475,-0.8803492784500122,-2.3725526332855225
1732873437118440400,7.7744404296875,-4.006801128387451,-1.183142066001892,-2.3157758712768555
1732873437128419600,7.784419677734375,-2.4485292434692383,-1.751403570175171,-1.88021719455719
1732873437138429400,7.794429443359375,-1.132096290588379,-2.184687376022339,-1.3418996334075928
1732873437148439000,7.80443896484375,0.583770751953125,-2.3535966873168945,-0.7575639486312866
1732873437158418400,7.81441845703125,1.8943710327148438,-2.3621208667755127,-0.2706211507320404
1732873437168428300,7.82442822265625,3.0217790603637695,-2.0778846740722656,0.0885779857635498
1732873437178438000,7.83443798828125,3.191661834716797,-1.5914359092712402,-0.06583550572395325
1732873437188417300,7.844417236328125,2.516148567199707,-0.826971173286438,-0.6504068374633789
1732873437198427100,7.85442724609375,1.8016414642333984,-0.2682631015777588,-0.93367999792099
1732873437208436700,7.864436767578125,0.7955961227416992,0.10642409324645996,-0.8090231418609619
1732873437218415900,7.874415771484375,-0.05632972717285156,0.3359149694442749,-0.5397238731384277
1732873437228425700,7.88442578125,-0.8688602447509766,0.3586028814315796,-0.18290144205093384
1732873437238435300,7.894435302734375,-1.6074790954589844,0.3315117359161377,0.007215343415737152
1732873437248414700,7.904414794921875,-2.060652256011963,0.2748652696609497,0.05203969031572342
1732873437258424600,7.914424560546875,-2.3185348510742188,0.15744030475616455,-0.01919153332710266
1732873437268434200,7.92443408203125,-2.401423931121826,0.08409261703491211,-0.12819470465183258
1732873437278413600,7.93441357421875,-2.2264227867126465,-0.028202533721923828,-0.3451962172985077
1732873437288423400,7.94442333984375,-1.7434101104736328,-0.11196601390838623,-0.4868932366371155
1732873437298433000,7.95443310546875,-1.0499114990234375,-0.16967129707336426,-0.6203510761260986
1732873437308412400,7.964412353515625,-0.45156002044677734,-0.21163809299468994,-0.8669955134391785
1732873437318422000,7.974422119140625,0.12553119659423828,-0.2256108522415161,-0.9881142973899841
1732873437328431900,7.984431884765625,0.4187955856323242,-0.1341181993484497,-1.0730293989181519
1732873437338411000,7.994410888671875,0.5437517166137695,-0.11712825298309326,-1.1450691223144531
1732873437348420900,8.0044208984375,0.4599628448486328,-0.07326841354370117,-1.194427728652954
1732873437358430500,8.014430419921876,0.25375938415527344,-0.04870283603668213,-1.1170926094055176
1732873437368440300,8.0244404296875,0.003998756408691406,-0.02582550048828125,-0.9869542121887207
1732873437378419700,8.034419677734375,-0.16730976104736328,-0.04693794250488281,-0.8911868333816528
1732873437388429300,8.04442919921875,-0.18999862670898438,-0.12818753719329834,-0.7819973826408386
1732873437398439200,8.054439208984375,0.04004192352294922,-0.2162712812423706,-0.6648643612861633
1732873437408418600,8.06441845703125,0.46443939208984375,-0.29787302017211914,-0.6206806898117065
1732873437418428200,8.07442822265625,0.8865470886230469,-0.33635878562927246,-0.47330811619758606
1732873437428438000,8.08443798828125,1.3282737731933594,-0.2905998229980469,-0.33868083357810974
1732873437438417200,8.094417236328125,1.608316421508789,-0.09396910667419434,-0.26571598649024963
1732873437448427000,8.104427001953125,1.526627540588379,0.11483359336853027,-0.3102629780769348
1732873437458436600,8.1144365234375,1.0198478698730469,0.2540421485900879,-0.15184395015239716
1732873437468416000,8.124416015625,0.5766630172729492,0.3370840549468994,0.13648447394371033
1732873437478425600,8.134425537109376,0.14140987396240234,0.23779726028442383,0.29976174235343933
1732873437488435500,8.144435546875,0.03140735626220703,-0.19428861141204834,0.352033793926239
1732873437498414800,8.154414794921875,0.42969322204589844,-0.9553366899490356,0.48246949911117554
1732873437508424700,8.1644248046875,1.3977861404418945,-1.6108696460723877,0.6108896732330322
1732873437518434300,8.174434326171875,2.8058156967163086,-2.102747678756714,0.3568793535232544
1732873437528413400,8.184413330078126,4.332141876220703,-2.3693220615386963,0.0026996880769729614
1732873437538423300,8.19442333984375,5.575270652770996,-2.3299405574798584,-0.5079551935195923
1732873437548433000,8.204432861328126,5.763864517211914,-2.038553476333618,-0.7924407124519348
1732873437558412300,8.214412353515625,4.59682559967041,-1.4660370349884033,-0.5921147465705872
1732873437568422100,8.224422119140625,2.2730274200439453,-0.8994202613830566,-0.5030043721199036
1732873437578431700,8.234431640625,0.16093826293945312,-0.6295002698898315,-0.29231828451156616
1732873437588411100,8.2444111328125,-2.135101795196533,-0.5202081203460693,0.1480219066143036
1732873437598421000,8.2544208984375,-3.8609957695007324,-0.41262876987457275,0.5280057191848755
1732873437608430600,8.2644306640625,-5.340327739715576,-0.4177894592285156,0.7129063606262207
1732873437618440400,8.2744404296875,-5.916140556335449,-0.5330922603607178,0.7872484922409058
1732873437628419600,8.284419677734375,-5.706997871398926,-0.7957563400268555,0.760063648223877
1732873437638429200,8.29442919921875,-4.850416660308838,-1.2191840410232544,0.642051100730896
1732873437648439000,8.30443896484375,-3.106289863586426,-1.6582293510437012,0.5061120986938477
1732873437658418400,8.31441845703125,-1.4421014785766602,-1.9386032819747925,0.223222553730011
1732873437668428000,8.324427978515626,0.2554636001586914,-2.1402015686035156,-0.09166407585144043
1732873437678438000,8.33443798828125,1.8344364166259766,-2.1952314376831055,-0.40318071842193604
1732873437688417300,8.344417236328125,3.0539026260375977,-2.0434086322784424,-0.44023004174232483
1732873437698427100,8.35442724609375,3.642026901245117,-1.707013726234436,-0.48625895380973816
1732873437708436700,8.364436767578125,3.4618873596191406,-1.3263373374938965,-0.47945860028266907
1732873437718416000,8.374415771484376,2.6361989974975586,-0.8683651089668274,-0.5874658823013306
1732873437728425700,8.38442578125,1.6254386901855469,-0.42573750019073486,-0.6595762968063354
1732873437738435300,8.394435302734376,0.6370458602905273,-0.07888936996459961,-0.5215537548065186
1732873437748414700,8.404414794921875,-0.16626644134521484,0.07557642459869385,-0.30483198165893555
1732873437758424600,8.414424560546875,-1.0226173400878906,0.18280577659606934,-0.2238815426826477
1732873437768434200,8.42443408203125,-1.717679500579834,0.23195230960845947,-0.3016922175884247
1732873437778413600,8.43441357421875,-2.17380428314209,0.1862860918045044,-0.27013257145881653
1732873437788423400,8.44442333984375,-2.360969066619873,0.13447332382202148,-0.23621752858161926
1732873437798433000,8.45443310546875,-2.3324618339538574,0.1939089298248291,-0.23586374521255493
1732873437808412400,8.464412353515625,-2.1674065589904785,0.09414482116699219,-0.15900903940200806
1732873437818422000,8.474422119140625,-1.7734990119934082,0.03186225891113281,-0.1080736517906189
1732873437828432000,8.484431884765625,-1.3428373336791992,-0.07527303695678711,-0.11923632025718689
1732873437838411300,8.494411376953124,-1.008854866027832,-0.13668549060821533,-0.20566213130950928
1732873437848420900,8.5044208984375,-0.4934873580932617,-0.2952066659927368,-0.34602224826812744
1732873437858430500,8.514430419921876,-0.1366252899169922,-0.4986882209777832,-0.40006569027900696
1732873437868440300,8.5244404296875,0.33455371856689453,-0.5769964456558228,-0.45171359181404114
1732873437878419700,8.534419677734375,0.7597627639770508,-0.6500273942947388,-0.36063292622566223
1732873437888429600,8.5444296875,1.2346229553222656,-0.7440066337585449,-0.07271653413772583
1732873437898439200,8.554439208984375,1.5967369079589844,-0.7506123781204224,0.03733733296394348
1732873437908418600,8.56441845703125,1.7479372024536133,-0.5629100799560547,0.067609041929245
1732873437918428400,8.574428466796874,1.767033576965332,-0.4217948913574219,-0.0551876425743103
1732873437928438000,8.58443798828125,1.5683517456054688,-0.269481897354126,-0.20733630657196045
1732873437938417200,8.594417236328125,1.0882959365844727,-0.10842108726501465,-0.3618695139884949
1732873437948427000,8.604427001953125,0.5927839279174805,0.03338766098022461,-0.4521726369857788
1732873437958436600,8.6144365234375,-0.09335803985595703,0.24512863159179688,-0.4497504234313965
1732873437968416000,8.624416015625,-0.5589818954467773,0.44086313247680664,-0.43900883197784424
1732873437978425900,8.63442578125,-0.7114286422729492,0.5910090208053589,-0.45734429359436035
1732873437988435500,8.644435546875,-0.684992790222168,0.6059849262237549,-0.36388450860977173
1732873437998414800,8.654414794921875,-0.4557514190673828,0.5507800579071045,-0.304135799407959
1732873438008424700,8.6644248046875,-0.049576759338378906,0.3314265012741089,0.08317291736602783
1732873438018434300,8.674434326171875,0.10961532592773438,0.2221304178237915,0.3696196675300598
1732873438028413400,8.684413330078126,0.07869338989257812,0.27230215072631836,0.6541385650634766
1732873438038423300,8.69442333984375,-0.06708049774169922,0.24718141555786133,0.927519679069519
1732873438048433000,8.704432861328126,-0.2091360092163086,0.2640213966369629,0.8828126192092896
1732873438058412300,8.714412353515625,-0.36704254150390625,0.23014044761657715,0.8117707967758179
1732873438068422100,8.724422119140625,-0.6017637252807617,0.08590173721313477,0.699876070022583
1732873438078432000,8.734431884765625,-0.9524393081665039,-0.08589649200439453,0.5116139054298401
1732873438088411100,8.7444111328125,-1.3983564376831055,-0.2507079839706421,0.1675477921962738
1732873438098421000,8.7544208984375,-1.6056098937988281,-0.36127209663391113,-0.1923743486404419
1732873438108430600,8.7644306640625,-1.6047515869140625,-0.37026989459991455,-0.40106821060180664
1732873438118440400,8.7744404296875,-1.373870849609375,-0.42542529106140137,-0.2905559539794922
1732873438128419600,8.784419677734375,-0.7691202163696289,-0.4337286949157715,-0.045883722603321075
1732873438138429400,8.794429443359375,0.12671661376953125,-0.21525812149047852,0.28061676025390625
1732873438148439000,8.80443896484375,0.678288459777832,0.2149561643600464,0.17812296748161316
1732873438158418400,8.81441845703125,0.7531957626342773,0.49519097805023193,-0.17983144521713257
1732873438168428300,8.82442822265625,0.3595266342163086,0.4091278314590454,-0.5255330204963684
1732873438178438000,8.83443798828125,-0.2612285614013672,-0.06983602046966553,-0.8658750653266907
1732873438188417300,8.844417236328125,-0.7222881317138672,-0.6070740222930908,-0.9894189834594727
1732873438198427100,8.85442724609375,-0.9810886383056641,-0.6721557378768921,-1.6741890907287598
1732873438208436700,8.864436767578125,-0.8148097991943359,-1.1137769222259521,-1.845958948135376
1732873438218415900,8.874415771484376,0.2201852798461914,-1.1885337829589844,-0.9480369687080383
1732873438228425700,8.88442578125,1.8153600692749023,-1.2153565883636475,0.45223385095596313
1732873438238435300,8.894435302734376,2.95717716217041,-1.3379127979278564,1.5916335582733154
1732873438248414700,8.904414794921875,3.54791259765625,-1.245615839958191,2.292239189147949
1732873438258424600,8.914424560546875,3.4242210388183594,-0.917803168296814,2.48363995552063
1732873438268434200,8.92443408203125,2.642162322998047,-0.3669222593307495,1.9549355506896973
1732873438278413600,8.93441357421875,1.7883892059326172,0.4362586736679077,0.9759748578071594
1732873438288423400,8.94442333984375,0.9193534851074219,1.0220838785171509,0.04379650950431824
1732873438298433000,8.95443310546875,0.19437313079833984,1.2263630628585815,-0.30084073543548584
1732873438308412400,8.964412353515625,-0.6770353317260742,1.2538573741912842,-0.3477749526500702
1732873438318422000,8.974422119140625,-1.3459949493408203,1.1075379848480225,-0.22492018342018127
1732873438328431900,8.984431884765625,-1.4038410186767578,1.1340749263763428,-0.4824691414833069
1732873438338411000,8.994410888671876,-1.336745262145996,1.3192721605300903,-1.0186620950698853
1732873438348420900,9.0044208984375,-1.2602033615112305,1.8540680408477783,-1.8133376836776733
1732873438358430500,9.014430419921876,-0.8364839553833008,2.349883794784546,-1.655294418334961
1732873438368440300,9.0244404296875,-0.17602920532226562,2.815077066421509,-0.4847830832004547
1732873438378419700,9.034419677734375,0.24378490447998047,3.9654452800750732,0.9583092927932739
1732873438388429300,9.04442919921875,-0.3040132522583008,4.830280303955078,0.6404250860214233
1732873438398439200,9.054439208984375,-1.6457738876342773,5.002747535705566,-0.0022931527346372604
1732873438408418600,9.06441845703125,-1.47991943359375,4.339534759521484,-0.6290298104286194
1732873438418428200,9.07442822265625,-0.15402507781982422,2.8325695991516113,-2.543661594390869
1732873438428438000,9.08443798828125,2.0801258087158203,1.2370198965072632,-3.4709391593933105
1732873438438417200,9.094417236328125,3.097966194152832,-0.44267117977142334,-4.162328720092773
1732873438448427000,9.104427001953125,2.7460250854492188,-1.6656957864761353,-4.380688667297363
1732873438458436600,9.1144365234375,1.6696100234985352,-2.2337474822998047,-3.9394381046295166
1732873438468416000,9.124416015625,-0.06870746612548828,-2.480295419692993,-2.256715774536133
1732873438478425600,9.134425537109376,-1.9591064453125,-2.6388511657714844,-1.3591076135635376
1732873438488435500,9.144435546875,-3.1789803504943848,-2.4763989448547363,-1.18856942653656
1732873438498414800,9.154414794921875,-1.996445655822754,-2.2762038707733154,-1.177222728729248
1732873438508424700,9.1644248046875,0.6320877075195312,-2.248514175415039,-1.8530629873275757
1732873438518434300,9.174434326171875,2.457627296447754,-1.7900470495224,-2.335731267929077
1732873438528413400,9.184413330078126,3.576096534729004,-1.1220426559448242,-3.3320062160491943
1732873438538423300,9.19442333984375,3.0100717544555664,-0.7655039429664612,-3.794372081756592
1732873438548433000,9.204432861328126,0.6286115646362305,-0.31460440158843994,-3.306013584136963
1732873438558412300,9.214412353515625,-1.804201602935791,0.21440362930297852,-2.62328839302063
1732873438568422100,9.224422119140625,-3.6631617546081543,0.45935189723968506,-2.282191038131714
1732873438578431700,9.234431640625,-5.211369514465332,0.23828399181365967,-1.5625287294387817
1732873438588411100,9.2444111328125,-5.660857677459717,-0.34800267219543457,-0.7843925356864929
1732873438598421000,9.2544208984375,-4.810009002685547,-0.9782941937446594,0.16058772802352905
1732873438608430600,9.2644306640625,-2.611703872680664,-1.2674809694290161,0.7728715538978577
1732873438618440400,9.2744404296875,-0.15691184997558594,-1.101103663444519,1.2404916286468506
1732873438628419600,9.284419677734375,1.4551239013671875,-0.7404824495315552,0.9283005595207214
1732873438638429200,9.29442919921875,2.3835926055908203,-0.3062400817871094,0.6010916233062744
1732873438648439000,9.30443896484375,1.7939033508300781,0.11706578731536865,0.2637275159358978
1732873438658418400,9.31441845703125,0.32587623596191406,0.33740556240081787,0.18578709661960602
1732873438668428000,9.324427978515626,-0.7833433151245117,0.6483945846557617,-0.21369510889053345
1732873438678438000,9.33443798828125,-1.4675617218017578,0.7451639175415039,-0.7560275197029114
1732873438688417300,9.344417236328125,-2.093839168548584,0.5201822519302368,-0.6756316423416138
1732873438698427100,9.35442724609375,-2.531121253967285,0.2572190761566162,-0.4438856840133667
1732873438708436700,9.364436767578125,-1.891573429107666,0.2380833625793457,-0.3475768566131592
1732873438718416000,9.374415771484376,-0.7285671234130859,0.22562742233276367,-0.5935137867927551
1732873438728425700,9.38442578125,-0.09024238586425781,-0.06754422187805176,-0.9079219102859497
1732873438738435300,9.394435302734376,-0.11732006072998047,-0.4250577688217163,-0.5281625986099243
1732873438748414700,9.404414794921875,0.023046493530273438,-1.0496474504470825,0.059839218854904175
1732873438758424600,9.414424560546875,0.36380672454833984,-1.3528319597244263,0.680501401424408
1732873438768434200,9.42443408203125,1.156702995300293,-1.3238332271575928,1.1981265544891357
1732873438778413600,9.43441357421875,2.2758960723876953,-1.2215834856033325,1.3135639429092407
1732873438788423400,9.44442333984375,2.735722541809082,-1.0629500150680542,1.270819067955017
1732873438798433000,9.45443310546875,2.1299896240234375,-0.8411795496940613,0.9144965410232544
1732873438808412400,9.464412353515625,0.7750835418701172,-0.49497750401496887,0.5081257224082947
1732873438818422300,9.47442236328125,-1.2694082260131836,-0.2965102195739746,0.16468143463134766
1732873438828432000,9.484431884765625,-2.7928056716918945,-0.25333237648010254,-0.30922240018844604
1732873438838411300,9.494411376953124,-3.4754996299743652,-0.011234521865844727,-0.8253605365753174
1732873438848420600,9.504420654296876,-3.2263760566711426,0.2994617223739624,-1.147743582725525
1732873438858430500,9.514430419921876,-2.234830856323242,0.24499213695526123,-1.4547274112701416
1732873438868440300,9.5244404296875,-1.3173761367797852,-0.1298844814300537,-1.7766484022140503
1732873438878419700,9.534419677734375,0.12513351440429688,-0.16441386938095093,-2.223228931427002
1732873438888429600,9.5444296875,1.6455183029174805,0.02068626880645752,-2.803367853164673
1732873438898439200,9.554439208984375,2.6484298706054688,0.051705002784729004,-3.263044834136963
1732873438908418600,9.56441845703125,2.8044958114624023,-0.17353641986846924,-3.122464179992676
1732873438918428400,9.574428466796874,2.0679502487182617,-0.08352303504943848,-2.9718031883239746
1732873438928438000,9.58443798828125,0.6680936813354492,0.34918344020843506,-2.1827802658081055
1732873438938417200,9.594417236328125,-0.48371315002441406,0.569564700126648,-1.768458604812622
1732873438948427000,9.604427001953125,-1.5373640060424805,0.6361349821090698,-1.05075204372406
1732873438958436600,9.6144365234375,-2.345818519592285,0.40405261516571045,-0.3656075894832611
1732873438968416000,9.624416015625,-2.3811793327331543,-0.2328507900238037,0.29488444328308105
1732873438978425900,9.63442578125,-1.1557846069335938,-0.65631103515625,0.009522214531898499
1732873438988435500,9.644435546875,0.48650360107421875,-0.6526691913604736,-0.564138650894165
1732873438998414800,9.654414794921875,1.6373043060302734,-0.5537184476852417,-0.99712073802948
1732873439008424700,9.6644248046875,2.2213964462280273,-0.3571033477783203,-1.3746274709701538
1732873439018434300,9.674434326171875,2.479034423828125,-0.13287371397018433,-1.5066388845443726
1732873439028413400,9.684413330078126,2.2597007751464844,-0.10378432273864746,-1.2859277725219727
1732873439038423300,9.69442333984375,1.5490655899047852,-0.09965580701828003,-0.9188438057899475
1732873439048433000,9.704432861328126,0.9910068511962891,-0.18292582035064697,-0.6146512627601624
1732873439058412300,9.714412353515625,0.6352691650390625,-0.3930099308490753,-0.400485098361969
1732873439068422100,9.724422119140625,0.3065500259399414,-0.6710936427116394,-0.058785974979400635
1732873439078432000,9.734431884765625,0.028449058532714844,-1.2025750875473022,0.6849633455276489
1732873439088411100,9.7444111328125,0.16481399536132812,-1.709978699684143,1.3044257164001465
1732873439098421000,9.7544208984375,0.6872634887695312,-2.090575933456421,1.3666402101516724
1732873439108430600,9.7644306640625,1.331131935119629,-2.1927144527435303,0.8109501600265503
1732873439118440400,9.7744404296875,2.068446159362793,-2.051133871078491,0.026271581649780273
1732873439128419600,9.784419677734375,2.7764644622802734,-1.6689473390579224,-0.9146583676338196
1732873439138429400,9.794429443359375,2.9338674545288086,-1.2426517009735107,-1.7385315895080566
1732873439148439000,9.80443896484375,2.3619041442871094,-0.8904308676719666,-2.115783214569092
1732873439158418400,9.81441845703125,1.470346450805664,-0.6659152507781982,-1.896243929862976
1732873439168428300,9.82442822265625,0.7902555465698242,-0.5782688856124878,-1.4218615293502808
1732873439178438000,9.83443798828125,0.05889701843261719,-0.6073167324066162,-0.8837531208992004
1732873439188417300,9.844417236328125,-0.851531982421875,-0.7526711821556091,-0.12421190738677979
1732873439198427100,9.85442724609375,-1.659017562866211,-0.7720659971237183,0.4025251567363739
1732873439208436700,9.864436767578125,-2.287112236022949,-0.6195672154426575,0.7716826796531677
1732873439218415900,9.874415771484376,-2.314319133758545,-0.36633360385894775,0.8570199012756348
1732873439228425700,9.88442578125,-2.1002354621887207,-0.2706257700920105,0.6607134342193604
1732873439238435300,9.894435302734376,-1.5566320419311523,-0.3220701217651367,0.4325864017009735
1732873439248414700,9.904414794921875,-0.8019590377807617,-0.45428091287612915,0.20665967464447021
1732873439258424600,9.914424560546875,0.07411575317382812,-0.5897368788719177,-0.0598110556602478
1732873439268434200,9.92443408203125,0.5224781036376953,-0.652111291885376,-0.16905397176742554
1732873439278413600,9.93441357421875,0.588191032409668,-0.7404484152793884,-0.03333491086959839
1732873439288423400,9.94442333984375,0.35637855529785156,-0.7663278579711914,0.10978549718856812
1732873439298433000,9.95443310546875,0.011430740356445312,-0.6542409062385559,0.07757806777954102
1732873439308412400,9.964412353515625,-0.158233642578125,-0.324947714805603,-0.21705037355422974
1732873439318422300,9.97442236328125,0.03241252899169922,-0.01356208324432373,-0.7413175106048584
1732873439328431900,9.984431884765625,0.28885459899902344,0.1683274507522583,-1.337820053100586
1732873439338411000,9.994410888671876,0.45269203186035156,0.26807934045791626,-1.5663399696350098
1732873439348420900,10.0044208984375,0.5351686477661133,0.329121470451355,-1.3450827598571777
1732873439358430500,10.014430419921876,0.45383167266845703,0.3089388608932495,-0.8458207845687866
1732873439368440300,10.0244404296875,0.4503974914550781,0.21339261531829834,-0.1028398871421814
1732873439378419700,10.034419677734375,0.35050010681152344,0.20117878913879395,0.03226369619369507
1732873439388429300,10.04442919921875,0.2462787628173828,0.311653733253479,0.01392817497253418
1732873439398439200,10.054439208984375,0.24326515197753906,0.2962331771850586,-0.15988564491271973
1732873439408418600,10.06441845703125,0.3965015411376953,0.18302041292190552,-0.3725093603134155
1732873439418428200,10.07442822265625,0.5864114761352539,0.11853867769241333,-0.5085914134979248
1732873439428438000,10.08443798828125,0.689117431640625,0.03724217414855957,-0.739475667476654
1732873439438417200,10.094417236328125,0.6632604598999023,0.004965603351593018,-0.8425398468971252
1732873439448427000,10.104427001953125,0.3719596862792969,-0.07267427444458008,-0.7285959124565125
1732873439458436600,10.1144365234375,-0.1112508773803711,-0.10415112972259521,-0.23646515607833862
1732873439468416000,10.124416015625,-0.2578010559082031,-0.14518851041793823,0.16861045360565186
1732873439478425600,10.134425537109376,0.0037107467651367188,-0.35061147809028625,0.5273411870002747
1732873439488435500,10.144435546875,0.4408693313598633,-0.5118752717971802,0.6955289244651794
1732873439498414800,10.154414794921875,0.8002538681030273,-0.7375411987304688,0.7380701899528503
1732873439508424700,10.1644248046875,0.7731132507324219,-1.0932488441467285,0.4855155050754547
1732873439518434300,10.174434326171875,0.5256853103637695,-1.6121101379394531,-0.021778106689453125
1732873439528413400,10.184413330078126,0.5321683883666992,-2.088547706604004,-0.3628106415271759
1732873439538423300,10.19442333984375,1.2306594848632812,-2.442922592163086,-0.11974698305130005
1732873439548433000,10.204432861328126,2.451165199279785,-2.7099082469940186,0.6253119707107544
1732873439558412300,10.214412353515625,3.5043983459472656,-2.6637518405914307,1.3115599155426025
1732873439568422100,10.224422119140625,4.41257381439209,-2.1004490852355957,1.9354466199874878
1732873439578431700,10.234431640625,5.339441299438477,-1.5763578414916992,1.3996405601501465
1732873439588411100,10.2444111328125,5.2187910079956055,-1.185474157333374,0.08551186323165894
1732873439598421000,10.2544208984375,3.9136667251586914,-0.600340723991394,-1.3231428861618042
1732873439608430600,10.2644306640625,1.3688087463378906,0.05493186414241791,-2.565908432006836
1732873439618440400,10.2744404296875,-1.1798429489135742,0.3131987452507019,-3.1269168853759766
1732873439628419600,10.284419677734375,-3.7962493896484375,0.3745272755622864,-3.587496757507324
1732873439638429200,10.29442919921875,-5.175831317901611,0.27052542567253113,-3.4927444458007812
1732873439648439000,10.30443896484375,-5.150138854980469,-0.054485827684402466,-2.6441502571105957
1732873439658418400,10.31441845703125,-3.598306179046631,-0.6435806155204773,-1.5814694166183472
1732873439668428000,10.324427978515626,-1.4069976806640625,-1.0832138061523438,-0.5012767314910889
1732873439678438000,10.33443798828125,0.8686790466308594,-1.206409215927124,0.3421669006347656
1732873439688417300,10.344417236328125,2.217111587524414,-1.1370923519134521,0.42526283860206604
1732873439698427100,10.35442724609375,2.574765205383301,-0.9458612203598022,0.06757855415344238
1732873439708436700,10.364436767578125,1.7553167343139648,-0.8237599730491638,-0.510527491569519
1732873439718416000,10.374415771484376,-0.2579164505004883,-0.39668992161750793,-1.4596339464187622
1732873439728425700,10.38442578125,-1.99931001663208,0.24698397517204285,-1.980534553527832
1732873439738435300,10.394435302734376,-3.1700916290283203,0.7577942609786987,-2.201390266418457
1732873439748414700,10.404414794921875,-3.6463022232055664,0.9173732399940491,-1.8481630086898804
1732873439758424600,10.414424560546875,-3.579552173614502,0.7183037996292114,-1.0974692106246948
1732873439768434200,10.42443408203125,-2.872175693511963,0.3244794011116028,-0.44221019744873047
1732873439778413600,10.43441357421875,-2.2233376502990723,0.08554494380950928,-0.20089253783226013
1732873439788423400,10.44442333984375,-1.7596397399902344,0.09312880039215088,-0.07518720626831055
1732873439798433000,10.45443310546875,-1.2202262878417969,0.06070178747177124,0.202505424618721
1732873439808412400,10.464412353515625,-0.4754056930541992,0.03471064567565918,0.5773331522941589
1732873439818422300,10.47442236328125,0.11348628997802734,0.04556542634963989,0.9273335933685303
1732873439828432000,10.484431884765625,0.4652872085571289,0.023784518241882324,1.0609411001205444
1732873439838411300,10.494411376953124,0.5276393890380859,0.2090102732181549,0.9454727172851562
1732873439848420900,10.5044208984375,0.3821229934692383,0.4388026297092438,0.7320232391357422
1732873439858430500,10.514430419921876,0.07433223724365234,0.5819306969642639,0.5823995471000671
1732873439868440300,10.5244404296875,-0.23029708862304688,0.7348542213439941,0.7192708253860474
1732873439878419700,10.534419677734375,-0.5081205368041992,0.6364445686340332,1.036818504333496
1732873439888429600,10.5444296875,-0.80230712890625,0.6223156452178955,1.131239891052246
1732873439898439200,10.554439208984375,-0.9190511703491211,0.5350204706192017,0.8885321617126465
1732873439908418600,10.56441845703125,-0.8896236419677734,0.5132012963294983,0.7216370701789856
1732873439918428400,10.574428466796874,-0.7787609100341797,0.5361608266830444,0.7994813323020935
1732873439928438000,10.58443798828125,-0.5218791961669922,0.4918442964553833,0.7020363211631775
1732873439938417200,10.594417236328125,-0.12139892578125,0.40229177474975586,0.5256048440933228
1732873439948427000,10.604427001953125,0.2598304748535156,0.30648964643478394,0.5180528163909912
1732873439958436600,10.6144365234375,0.595433235168457,0.16976797580718994,0.24398773908615112
1732873439968416000,10.624416015625,0.8158760070800781,0.20812875032424927,-0.18114228546619415
1732873439978425900,10.63442578125,1.0815162658691406,0.22376877069473267,-0.723284900188446
1732873439988435500,10.644435546875,1.1817102432250977,0.17858028411865234,-1.162865161895752
1732873439998414800,10.654414794921875,1.135819435119629,0.117678701877594,-1.1944533586502075
1732873440008424700,10.6644248046875,1.1426916122436523,-0.0205075740814209,-0.6784292459487915
1732873440018434300,10.674434326171875,1.1400995254516602,-0.19228717684745789,-0.16068735718727112
1732873440028413400,10.684413330078126,1.0273675918579102,-0.5035455822944641,0.33399760723114014
1732873440038423300,10.69442333984375,0.9600858688354492,-0.8145110607147217,0.5535917282104492
1732873440048433000,10.704432861328126,1.0387945175170898,-1.3895398378372192,0.4103904068470001
1732873440058412300,10.714412353515625,1.483799934387207,-1.7917859554290771,0.28424230217933655
1732873440068422100,10.724422119140625,2.4077367782592773,-2.137895107269287,0.20033903419971466
1732873440078432000,10.734431884765625,3.4084720611572266,-2.279741048812866,0.3670107126235962
1732873440088411100,10.7444111328125,4.24903678894043,-2.2644026279449463,0.602611780166626
1732873440098421000,10.7544208984375,4.314099311828613,-2.121344566345215,0.861007809638977
1732873440108430600,10.7644306640625,3.3641748428344727,-1.9115170240402222,1.0472429990768433
1732873440118440400,10.7744404296875,1.607773780822754,-1.656782865524292,0.9813814163208008
1732873440128419600,10.784419677734375,0.15141868591308594,-1.4476226568222046,0.7583441734313965
1732873440138429400,10.794429443359375,-1.0597448348999023,-1.3123842477798462,0.44852933287620544
1732873440148439000,10.80443896484375,-1.970679759979248,-1.159074306488037,0.41959595680236816
1732873440158418400,10.81441845703125,-2.3687667846679688,-1.1294362545013428,0.12868428230285645
1732873440168428300,10.82442822265625,-2.008242607116699,-1.180177927017212,0.24438773095607758
1732873440178438000,10.83443798828125,-1.134964942932129,-1.2748568058013916,0.5465391874313354
1732873440188417300,10.844417236328125,-0.21412181854248047,-1.4706673622131348,1.0112724304199219
1732873440198427100,10.85442724609375,0.4035940170288086,-1.4941463470458984,1.4185653924942017
1732873440208436700,10.864436767578125,0.6393489837646484,-1.4317736625671387,1.5718307495117188
1732873440218415900,10.874415771484376,0.5570955276489258,-1.1976697444915771,1.2856166362762451
1732873440228425700,10.88442578125,0.19709300994873047,-0.7600774168968201,0.7579541206359863
1732873440238435300,10.894435302734376,-0.4398946762084961,-0.3498443365097046,0.11213469505310059
1732873440248414700,10.904414794921875,-1.1925029754638672,0.10667914152145386,-0.5410690307617188
1732873440258424600,10.914424560546875,-1.5708732604980469,0.5189856886863708,-0.7614971995353699
1732873440268434200,10.92443408203125,-1.6064462661743164,0.7094307541847229,-0.8851019144058228
1732873440278413600,10.93441357421875,-1.6582880020141602,0.7038156986236572,-0.8456369638442993
1732873440288423400,10.94442333984375,-1.8485217094421387,0.6281789541244507,-0.4674271047115326
1732873440298433000,10.95443310546875,-2.0933713912963867,0.49927473068237305,-0.03635227680206299
1732873440308412400,10.964412353515625,-2.615473747253418,0.44141316413879395,0.2557677626609802
1732873440318422300,10.97442236328125,-2.9816060066223145,0.4974256753921509,0.2507416903972626
1732873440328431900,10.984431884765625,-3.1060543060302734,0.5505622625350952,0.13059675693511963
1732873440338411000,10.994410888671876,-2.9199090003967285,0.5316095948219299,0.04832366108894348
1732873440348420900,11.0044208984375,-2.610353946685791,0.4177442789077759,0.046845197677612305
1732873440358430500,11.014430419921876,-2.0219831466674805,0.25363051891326904,0.08139809966087341
1732873440368440300,11.0244404296875,-1.3077917098999023,0.08103466033935547,0.18319882452487946
1732873440378419700,11.034419677734375,-0.4959697723388672,-0.11136442422866821,0.36574849486351013
1732873440388429300,11.04442919921875,-0.059960365295410156,-0.2939029335975647,0.5716239809989929
1732873440398439200,11.054439208984375,0.4052085876464844,-0.20050156116485596,1.0993263721466064
1732873440408418600,11.06441845703125,0.7104759216308594,-0.21378442645072937,1.3262180089950562
1732873440418428200,11.07442822265625,0.623591423034668,-0.24141108989715576,1.3939028978347778
1732873440428438000,11.08443798828125,0.2858161926269531,-0.22517645359039307,1.2579920291900635
1732873440438417200,11.094417236328125,-0.013135910034179688,-0.14993438124656677,0.5969328880310059
1732873440448427000,11.104427001953125,-0.45293712615966797,-0.21755388379096985,-0.19852831959724426
1732873440458436600,11.1144365234375,-0.63653564453125,-0.39665234088897705,-0.8270766139030457
1732873440468416000,11.124416015625,-0.38986873626708984,-0.6593629121780396,-1.0310240983963013
1732873440478425600,11.134425537109376,0.47084522247314453,-0.9777685403823853,-0.944178581237793
1732873440488435500,11.144435546875,1.8260078430175781,-1.0857036113739014,-0.19552496075630188
1732873440498414800,11.154414794921875,2.986236572265625,-1.0884792804718018,0.671973466873169
1732873440508424700,11.1644248046875,3.671999931335449,-1.088076114654541,1.2292927503585815
1732873440518434600,11.1744345703125,3.5009050369262695,-1.0692734718322754,1.3344225883483887
1732873440528413400,11.184413330078126,2.578807830810547,-1.2561694383621216,0.549597978591919
1732873440538423300,11.19442333984375,1.2127532958984375,-1.67922842502594,-0.6853522658348083
1732873440548433000,11.204432861328126,0.5944099426269531,-2.07824444770813,-1.311838984489441
1732873440558412300,11.214412353515625,0.9411449432373047,-2.4465737342834473,-1.7278361320495605
1732873440568422100,11.224422119140625,1.900625228881836,-2.733145236968994,-1.4864698648452759
1732873440578431700,11.234431640625,3.367422103881836,-2.783747434616089,-0.6502261757850647
1732873440588411100,11.2444111328125,4.321721076965332,-2.8962204456329346,-0.026209503412246704
1732873440598421000,11.2544208984375,4.282480239868164,-2.9152698516845703,0.282602459192276
1732873440608430600,11.2644306640625,3.120908737182617,-2.6922554969787598,0.22224494814872742
1732873440618440400,11.2744404296875,1.1270952224731445,-2.2914576530456543,-0.2471703737974167
1732873440628419600,11.284419677734375,-0.46543407440185547,-1.8792372941970825,-0.8689892292022705
1732873440638429200,11.29442919921875,-1.8144755363464355,-1.4243640899658203,-1.731650710105896
1732873440648439000,11.30443896484375,-2.8817172050476074,-0.8887336850166321,-2.7272818088531494
1732873440658418400,11.31441845703125,-3.653299331665039,-0.47578150033950806,-3.463310718536377
1732873440668428000,11.324427978515626,-4.055894374847412,-0.07920598983764648,-3.8643698692321777
1732873440678438000,11.33443798828125,-3.9984755516052246,0.14868289232254028,-3.8498518466949463
1732873440688417300,11.344417236328125,-3.7492589950561523,0.32126718759536743,-3.4742369651794434
1732873440698427100,11.35442724609375,-3.461592197418213,0.3123806118965149,-2.8520255088806152
1732873440708436700,11.364436767578125,-3.046457290649414,-0.016548216342926025,-1.9532116651535034
1732873440718416000,11.374415771484376,-2.6324496269226074,-0.4293493926525116,-1.0964947938919067
1732873440728425700,11.38442578125,-2.228450298309326,-0.9517233967781067,-0.3072200119495392
1732873440738435600,11.394435546875,-2.0159034729003906,-1.2780976295471191,0.3115406036376953
1732873440748414700,11.404414794921875,-1.968299388885498,-1.5995936393737793,0.8893529176712036
1732873440758424600,11.414424560546875,-1.7935843467712402,-1.755894422531128,1.0903034210205078
1732873440768434200,11.42443408203125,-1.3866157531738281,-1.8073537349700928,1.0378997325897217
1732873440778413600,11.43441357421875,-0.673253059387207,-1.7787940502166748,0.8098927736282349
1732873440788423400,11.44442333984375,0.21245193481445312,-1.8783695697784424,0.6169486045837402
1732873440798433300,11.454433349609374,1.3568696975708008,-1.9894388914108276,0.5620224475860596
1732873440808412400,11.464412353515625,2.2933855056762695,-1.9814354181289673,0.6847085952758789
1732873440818422300,11.47442236328125,3.031691551208496,-1.8986854553222656,0.6700689792633057
1732873440828432000,11.484431884765625,3.2578678131103516,-1.723811149597168,0.5230156183242798
1732873440838411300,11.494411376953124,2.955190658569336,-1.4268933534622192,0.2692626118659973
1732873440848420900,11.5044208984375,2.1426591873168945,-1.2252557277679443,-0.06334829330444336
1732873440858430500,11.514430419921876,0.9950237274169922,-1.0301917791366577,-0.25158143043518066
1732873440868440300,11.5244404296875,0.2809724807739258,-0.9062756896018982,-0.37913012504577637
1732873440878419700,11.534419677734375,0.24727630615234375,-0.8724951148033142,-0.5164265036582947
1732873440888429600,11.5444296875,0.554081916809082,-0.8539532423019409,-0.6209684610366821
1732873440898439200,11.554439208984375,0.5933923721313477,-0.821723222732544,-0.6731387376785278
1732873440908418600,11.56441845703125,0.28341102600097656,-0.7875896096229553,-0.9481227397918701
1732873440918428400,11.574428466796874,-0.1150674819946289,-0.6582503914833069,-1.034828782081604
1732873440928438000,11.58443798828125,-0.626072883605957,-0.5337294936180115,-1.1552143096923828
1732873440938417200,11.594417236328125,-0.9982357025146484,-0.415157288312912,-1.2428644895553589
1732873440948427000,11.604427001953125,-1.332082748413086,-0.2884652018547058,-1.2324185371398926
1732873440958436600,11.6144365234375,-1.412210464477539,-0.2171715348958969,-1.0900917053222656
1732873440968416000,11.624416015625,-1.377523422241211,-0.23899665474891663,-0.8274264335632324
1732873440978425900,11.63442578125,-1.1372051239013672,-0.3065396547317505,-0.326795756816864
1732873440988435500,11.644435546875,-0.7749433517456055,-0.6457417011260986,-0.017828553915023804
1732873440998414800,11.654414794921875,-0.19268512725830078,-0.8991482257843018,0.1680542379617691
1732873441008424700,11.6644248046875,0.3246002197265625,-0.9241411089897156,0.12785330414772034
1732873441018434300,11.674434326171875,0.4225273132324219,-0.848031222820282,-0.22687247395515442
1732873441028413400,11.684413330078126,0.33327388763427734,-0.8048139214515686,-0.5223493576049805
1732873441038423300,11.69442333984375,0.30350303649902344,-0.978812575340271,-0.6282352209091187
1732873441048433000,11.704432861328126,0.5056304931640625,-1.2667452096939087,-0.7252331972122192
1732873441058412300,11.714412353515625,0.8586769104003906,-1.6197025775909424,-0.6943899393081665
1732873441068422100,11.724422119140625,1.5351800918579102,-1.7813644409179688,-0.27568748593330383
1732873441078432000,11.734431884765625,2.44191837310791,-2.0138323307037354,0.6319934129714966
1732873441088411100,11.7444111328125,2.8053951263427734,-2.1692612171173096,1.5017424821853638
1732873441098421000,11.7544208984375,2.4866533279418945,-2.197266101837158,2.026045799255371
1732873441108430600,11.7644306640625,1.4688396453857422,-2.119831085205078,2.0169103145599365
1732873441118440400,11.7744404296875,0.4273548126220703,-1.962624430656433,1.7132542133331299
1732873441128419600,11.784419677734375,-0.4174070358276367,-1.7538673877716064,1.1257798671722412
1732873441138429400,11.794429443359375,-1.0199995040893555,-1.3115577697753906,0.2848644554615021
1732873441148439000,11.80443896484375,-1.6056289672851562,-0.8126657009124756,-0.8128808736801147
1732873441158418400,11.81441845703125,-1.8825435638427734,-0.435390830039978,-1.5527710914611816
1732873441168428300,11.82442822265625,-1.8870153427124023,-0.14548885822296143,-1.9493894577026367
1732873441178438000,11.83443798828125,-1.6432685852050781,-0.18302536010742188,-1.8330464363098145
1732873441188417300,11.844417236328125,-0.8594264984130859,-0.511335551738739,-1.152740240097046
1732873441198427100,11.85442724609375,-0.006861686706542969,-0.8249960541725159,-0.4259977638721466
1732873441208436700,11.864436767578125,0.4937610626220703,-1.0025672912597656,-0.08333088457584381
1732873441218415900,11.874415771484376,0.7313613891601562,-1.0878353118896484,0.16178718209266663
1732873441228425700,11.88442578125,0.6819133758544922,-1.0514559745788574,0.26842039823532104
1732873441238435600,11.894435546875,0.3767890930175781,-0.9817270636558533,-0.030395016074180603
1732873441248414700,11.904414794921875,0.005062103271484375,-0.8608214259147644,-0.2751415967941284
1732873441258424600,11.914424560546875,-0.27056407928466797,-0.6685473918914795,-0.4690020680427551
1732873441268434200,11.92443408203125,-0.33518409729003906,-0.5887587070465088,-0.594731330871582
1732873441278413600,11.93441357421875,-0.2129039764404297,-0.5787605047225952,-0.4908413887023926
1732873441288423400,11.94442333984375,-0.0785360336303711,-0.5681841373443604,-0.12854072451591492
1732873441298433000,11.95443310546875,-0.018335342407226562,-0.4734075367450714,0.2897242307662964
1732873441308412400,11.964412353515625,-0.1257171630859375,-0.34151893854141235,0.5723055005073547
1732873441318422300,11.97442236328125,-0.44140625,-0.15442876517772675,0.6226852536201477
1732873441328431900,11.984431884765625,-0.9629878997802734,0.03226044774055481,0.39156150817871094
1732873441338411000,11.994410888671876,-1.4007673263549805,0.1652483493089676,0.15755051374435425
1732873441348420900,12.0044208984375,-1.6409120559692383,0.2681223750114441,-0.08585327863693237
1732873441358430500,12.014430419921876,-1.4660120010375977,0.3377768397331238,-0.359283983707428
1732873441368440300,12.0244404296875,-0.9511280059814453,0.37443986535072327,-0.5076313018798828
1732873441378419700,12.034419677734375,-0.4004049301147461,0.3052835166454315,-0.34380945563316345
1732873441388429300,12.04442919921875,0.20502471923828125,0.0847720205783844,0.03926686942577362
1732873441398439200,12.054439208984375,0.6164340972900391,-0.16507947444915771,0.42921745777130127
1732873441408418600,12.06441845703125,0.8099937438964844,-0.34355396032333374,0.91341233253479
1732873441418428200,12.07442822265625,0.7522172927856445,-0.40973109006881714,1.2264463901519775
1732873441428438000,12.08443798828125,0.5005884170532227,-0.3875945806503296,1.2417069673538208
1732873441438417200,12.094417236328125,0.2179117202758789,-0.2722981572151184,0.9490280151367188
1732873441448427000,12.104427001953125,0.17789459228515625,-0.12988612055778503,0.3662930727005005
1732873441458436600,12.1144365234375,0.32253551483154297,0.002297446131706238,0.05266711860895157
1732873441468416000,12.124416015625,0.607783317565918,0.11156614124774933,-0.14077550172805786
1732873441478425600,12.134425537109376,0.9313688278198242,0.3361218273639679,-0.4522266983985901
1732873441488435500,12.144435546875,1.1136722564697266,0.4880106449127197,-0.7610852718353271
1732873441498414800,12.154414794921875,1.0109930038452148,0.49055910110473633,-0.9971935749053955
1732873441508424700,12.1644248046875,0.6909780502319336,0.3096792697906494,-1.0089623928070068
1732873441518434300,12.174434326171875,0.3024253845214844,0.07670100778341293,-0.8959935903549194
1732873441528413400,12.184413330078126,0.043732643127441406,-0.18613822758197784,-0.6401877403259277
1732873441538423300,12.19442333984375,-0.17667198181152344,-0.4450174570083618,-0.27533218264579773
1732873441548433000,12.204432861328126,-0.4784708023071289,-0.617097795009613,0.06416688114404678
1732873441558412300,12.214412353515625,-0.490570068359375,-0.4783839285373688,0.2626710832118988
1732873441568422100,12.224422119140625,-0.6558399200439453,-0.3222808539867401,0.33274030685424805
1732873441578431700,12.234431640625,-1.1011457443237305,-0.22034765779972076,0.39568060636520386
1732873441588411100,12.2444111328125,-1.6252994537353516,-0.0911899209022522,0.23560094833374023
1732873441598421000,12.2544208984375,-2.091764450073242,0.13490992784500122,-0.20900693535804749
1732873441608430600,12.2644306640625,-2.486172676086426,0.5337347388267517,-0.8586885333061218
1732873441618440400,12.2744404296875,-2.6434555053710938,0.8439939022064209,-1.4231088161468506
1732873441628419600,12.284419677734375,-2.5710220336914062,1.0188738107681274,-1.815848469734192
1732873441638429200,12.29442919921875,-2.2693986892700195,0.9818200469017029,-1.9943130016326904
1732873441648439000,12.30443896484375,-1.4391908645629883,0.9005563855171204,-1.993263840675354
1732873441658418400,12.31441845703125,-0.20229530334472656,0.7206344604492188,-1.7414137125015259
1732873441668428000,12.324427978515626,0.8455944061279297,0.557855486869812,-1.4555786848068237
1732873441678438000,12.33443798828125,1.6930103302001953,0.4210642874240875,-0.9889262318611145
1732873441688417300,12.344417236328125,2.1391191482543945,0.3878439664840698,-0.5445156693458557
1732873441698427100,12.35442724609375,2.4520254135131836,0.4021008610725403,-0.1843802034854889
1732873441708436700,12.364436767578125,2.616823196411133,0.4944084882736206,0.10412008315324783
1732873441718416000,12.374415771484376,2.6452245712280273,0.5565621852874756,0.2619774341583252
1732873441728425700,12.38442578125,2.4433422088623047,0.5540835857391357,0.15612122416496277
1732873441738435600,12.394435546875,1.8911561965942383,0.6523833274841309,0.005454648286104202
1732873441748414700,12.404414794921875,1.3046188354492188,0.7369134426116943,-0.03445849195122719
1732873441758424600,12.414424560546875,0.4803733825683594,0.7334030866622925,-0.07308988273143768
1732873441768434200,12.42443408203125,-0.3897275924682617,0.6914602518081665,-0.14887601137161255
1732873441778413600,12.43441357421875,-0.9605913162231445,0.6263566017150879,-0.34081006050109863
1732873441788423400,12.44442333984375,-0.9970541000366211,0.6702827215194702,-0.5312095284461975
1732873441798433000,12.45443310546875,-0.7648830413818359,0.7807098627090454,-0.4342917203903198
1732873441808412400,12.464412353515625,-0.6329030990600586,0.8439825773239136,-0.1640608310699463
1732873441818422300,12.47442236328125,-0.43148231506347656,0.8914564847946167,-0.05907002091407776
1732873441828432000,12.484431884765625,-0.06979846954345703,0.9510518312454224,-0.22348392009735107
1732873441838411300,12.494411376953124,0.037960052490234375,0.9150991439819336,-0.8945249319076538
1732873441848420900,12.5044208984375,-0.3285055160522461,0.8586854934692383,-1.9303925037384033
1732873441858430500,12.514430419921876,-0.6017074584960938,0.8315994739532471,-2.5617637634277344
1732873441868440300,12.5244404296875,-0.16585826873779297,0.7816735506057739,-2.2474136352539062
1732873441878419700,12.534419677734375,0.8430042266845703,0.35567447543144226,-0.8493327498435974
1732873441888429600,12.5444296875,1.7229585647583008,-0.15088143944740295,0.5655555129051208
1732873441898439200,12.554439208984375,2.143448829650879,-0.6241133809089661,2.0814099311828613
1732873441908418600,12.56441845703125,1.8933753967285156,-0.8848407864570618,2.921267032623291
1732873441918428400,12.574428466796874,1.219125747680664,-1.0425704717636108,3.293644666671753
1732873441928438000,12.58443798828125,0.5157566070556641,-0.9493997097015381,2.8382270336151123
1732873441938417200,12.594417236328125,-0.13480091094970703,-0.6792979836463928,1.6491438150405884
1732873441948427000,12.604427001953125,-0.29894161224365234,-0.31849759817123413,0.41871848702430725
1732873441958436600,12.6144365234375,0.04963970184326172,0.1983419805765152,-0.7405098080635071
1732873441968416000,12.624416015625,0.5873603820800781,0.6474136114120483,-1.3178515434265137
