time,seconds_elapsed,z,y,x
1732873429528461600,0.184461669921875,-0.15943582355976105,-0.1472185254096985,-0.06291911751031876
1732873429538462000,0.1944619140625,-0.12522737681865692,-0.12217304855585098,-0.021380282938480377
1732873429548450600,0.204450439453125,-0.09651670604944229,-0.10506882518529892,-0.006719517521560192
1732873429558451500,0.214451416015625,-0.08185594528913498,-0.10506882518529892,-0.01466076634824276
1732873429568439600,0.224439453125,-0.07452555745840073,-0.11728613078594208,-0.03176499158143997
1732873429578471200,0.23447119140625,-0.07513642311096191,-0.13377949595451355,-0.04703662544488907
1732873429588428500,0.244428466796875,-0.08124507963657379,-0.14355333149433136,-0.054367005825042725
1732873429598458000,0.2544580078125,-0.09040805697441101,-0.14477506279945374,-0.04948008432984352
1732873429608446700,0.26444677734375,-0.09224065393209457,-0.13866640627384186,-0.039095375686883926
1732873429618478300,0.274478271484375,-0.0910189226269722,-0.13011430203914642,-0.030543262138962746
1732873429628436000,0.28443603515625,-0.08796459436416626,-0.11667526513338089,-0.02076941914856434
1732873429638467800,0.2944677734375,-0.08796459436416626,-0.09957103431224823,-0.009773843921720982
1732873429648455400,0.304455322265625,-0.08796459436416626,-0.0757472887635231,-0.006719517521560192
1732873429658456600,0.31445654296875,-0.08552113175392151,-0.045204028487205505,-0.010995574295520782
1732873429668444700,0.324444580078125,-0.07024950534105301,-0.014049900695681572,-0.022602014243602753
1732873429678476300,0.334476318359375,-0.059864792972803116,-0.004886921960860491,-0.021380282938480377
1732873429688433700,0.34443359375,-0.054367005825042725,-0.01038470957428217,-0.00366519158706069
1732873429698466000,0.354466064453125,-0.060475658625364304,-0.02382374368607998,0.022602014243602753
1732873429708454000,0.364453857421875,-0.0708603709936142,-0.04092797264456749,0.04764748737215996
1732873429718455000,0.374455078125,-0.07941248267889023,-0.06352998316287994,0.056810468435287476
1732873429728443100,0.384443115234375,-0.08185594528913498,-0.08124507963657379,0.048258353024721146
1732873429738474000,0.394473876953125,-0.07452555745840073,-0.09712757170200348,0.022602014243602753
1732873429748432000,0.404431884765625,-0.06230825558304787,-0.0959058403968811,0.01038470957428217
1732873429758462700,0.414462646484375,-0.04948008432984352,-0.08674286305904388,0.00366519158706069
1732873429768451600,0.42445166015625,-0.03848451003432274,-0.06352998316287994,-0.00427605677396059
1732873429778452500,0.434452392578125,-0.02687807008624077,-0.03787364438176155,-0.004886921960860491
1732873429788440600,0.444440673828125,-0.01160643994808197,-0.016493361443281174,0.0024434609804302454
1732873429798472000,0.454471923828125,0.0006108652451075613,-0.01771509274840355,0.018936822190880775
1732873429808429600,0.4644296875,0.0006108652451075613,-0.02076941914856434,0.042760565876960754
1732873429818461000,0.4744609375,-0.006719517521560192,-0.025045474991202354,0.06719517707824707
1732873429828449000,0.484448974609375,-0.015271631069481373,-0.024434609338641167,0.06780604273080826
1732873429838450200,0.4944501953125,-0.021380282938480377,-0.03298672288656235,0.06291911751031876
1732873429848438000,0.50443798828125,-0.02321287989616394,-0.04214970022439957,0.05192354694008827
1732873429858469600,0.5144697265625,-0.02382374368607998,-0.04581489413976669,0.045204028487205505
1732873429868457500,0.52445751953125,-0.02015855349600315,-0.04703662544488907,0.04153883829712868
1732873429878459000,0.534458984375,-0.014049900695681572,-0.04153883829712868,0.04398229718208313
1732873429888446500,0.544446533203125,-0.009773843921720982,-0.019547687843441963,0.05619960278272629
1732873429898478000,0.55447802734375,-0.009162978269159794,-0.012828170321881771,0.06475171446800232
1732873429908435700,0.564435791015625,-0.007941247895359993,-0.004886921960860491,0.06780604273080826
1732873429918467000,0.574467041015625,-0.0024434609804302454,-0.006719517521560192,0.05803219974040985
1732873429928481800,0.584481689453125,0.0006108652451075613,-0.021991148591041565,0.039706241339445114
1732873429938456000,0.5944560546875,0,-0.03787364438176155,0.02687807008624077
1732873429948444200,0.604444091796875,-0.001832595793530345,-0.054367005825042725,0.030543262138962746
1732873429958475500,0.6144755859375,-0.00427605677396059,-0.0659734457731247,0.06291911751031876
1732873429968433200,0.62443310546875,-0.007941247895359993,-0.06169738993048668,0.08368854224681854
1732873429978464800,0.63446484375,-0.01038470957428217,-0.05009094998240471,0.09224065393209457
1732873429988452900,0.644452880859375,-0.014049900695681572,-0.039706241339445114,0.08979719132184982
1732873429998453500,0.65445361328125,-0.012217304669320583,-0.033597588539123535,0.07757988572120667
1732873430008441900,0.66444189453125,-0.00855211354792118,-0.021991148591041565,0.059864792972803116
1732873430018473200,0.67447314453125,-0.012828170321881771,-0.01160643994808197,0.04642575979232788
1732873430028430800,0.684430908203125,-0.015271631069481373,-0.009773843921720982,0.04153883829712868
1732873430038462200,0.694462158203125,-0.009162978269159794,-0.021991148591041565,0.05497787147760391
1732873430048450300,0.7044501953125,-0.003054326167330146,-0.03481931984424591,0.06352998316287994
1732873430058451500,0.714451416015625,0.001832595793530345,-0.04337143152952194,0.06780604273080826
1732873430068439000,0.72443896484375,0.00855211354792118,-0.029932396486401558,0.06475171446800232
1732873430078471000,0.734470947265625,0.014049900695681572,-0.012217304669320583,0.05864306539297104
1732873430088428300,0.74442822265625,0.01710422709584236,0.0024434609804302454,0.05192354694008827
1732873430098459600,0.754459716796875,0.02321287989616394,0.006719517521560192,0.04337143152952194
1732873430108447700,0.76444775390625,0.015882495790719986,-0.009162978269159794,0.03420845419168472
1732873430118478600,0.774478515625,0.00855211354792118,-0.019547687843441963,0.02932153269648552
1732873430128437000,0.78443701171875,0.009773843921720982,-0.025656340643763542,0.02382374368607998
1732873430138468400,0.79446826171875,0.009773843921720982,-0.028099801391363144,0.019547687843441963
1732873430148456400,0.80445654296875,0.007941247895359993,-0.02687807008624077,0.018325956538319588
1732873430158457600,0.81445751953125,0.006719517521560192,-0.02076941914856434,0.027488935738801956
1732873430168445400,0.824445556640625,0.00427605677396059,-0.027488935738801956,0.04459316283464432
1732873430178476800,0.834476806640625,-0.006108652334660292,-0.04948008432984352,0.06841690838336945
1732873430188434400,0.844434326171875,-0.018325956538319588,-0.059864792972803116,0.08368854224681854
1732873430198465800,0.8544658203125,-0.025656340643763542,-0.05619960278272629,0.08979719132184982
1732873430208454000,0.864453857421875,-0.03298672288656235,-0.04214970022439957,0.0959058403968811
1732873430218454300,0.874454345703125,-0.036651913076639175,-0.018325956538319588,0.09773843735456467
1732873430228443100,0.884443115234375,-0.0354301854968071,0.013439035043120384,0.09773843735456467
1732873430238473700,0.8944736328125,-0.03481931984424591,0.0354301854968071,0.08735372871160507
1732873430248432000,0.90443212890625,-0.03481931984424591,0.03848451003432274,0.06536258012056351
1732873430258462700,0.914462646484375,-0.025045474991202354,0.018325956538319588,0.01038470957428217
1732873430268451300,0.924451416015625,-0.022602014243602753,-0.01038470957428217,-0.02382374368607998
1732873430278451700,0.93445166015625,-0.021991148591041565,-0.021991148591041565,-0.045204028487205505
1732873430288440300,0.9444404296875,-0.021991148591041565,-0.02015855349600315,-0.05253441259264946
1732873430298471400,0.954471435546875,-0.019547687843441963,0.00366519158706069,-0.059864792972803116
1732873430308429600,0.9644296875,-0.01771509274840355,0.019547687843441963,-0.06719517707824707
1732873430318460200,0.974460205078125,-0.018936822190880775,0.005497787147760391,-0.07635815441608429
1732873430328449000,0.984448974609375,-0.04703662544488907,-0.07941248267889023,-0.1111774742603302
1732873430338450200,0.9944501953125,-0.09407325088977814,-0.2174680233001709,-0.16432274878025055
1732873430348438000,1.00443798828125,-0.15332718193531036,-0.37262779474258423,-0.24923302233219147
1732873430358468900,1.01446875,-0.152105450630188,-0.2938261926174164,-0.28588494658470154
1732873430368457700,1.024457763671875,-0.09285151958465576,-0.1313360333442688,-0.2217440903186798
1732873430378458600,1.034458740234375,-0.03787364438176155,-0.025045474991202354,-0.10018189996480942
1732873430388446500,1.044446533203125,-0.01038470957428217,0.03848451003432274,0.015882495790719986
1732873430398478300,1.054478271484375,-0.009773843921720982,0.025656340643763542,0.13439035415649414
1732873430408435700,1.064435791015625,-0.02871066704392433,-0.015271631069481373,0.17104226350784302
1732873430418467300,1.07446728515625,-0.04703662544488907,-0.039095375686883926,0.18875735998153687
1732873430428455200,1.084455078125,-0.06352998316287994,-0.05375614017248154,0.19425514340400696
1732873430438456300,1.094456298828125,-0.06902777403593063,-0.0659734457731247,0.19120082259178162
1732873430448444200,1.104444091796875,-0.06963863968849182,-0.06963863968849182,0.17837265133857727
1732873430458475800,1.114475830078125,-0.06902777403593063,-0.07452555745840073,0.16249015927314758
1732873430468433200,1.12443310546875,-0.06475171446800232,-0.08124507963657379,0.13988813757896423
1732873430478464000,1.134464111328125,-0.05742133408784866,-0.0861319974064827,0.10812314599752426
1732873430488452900,1.144452880859375,-0.054367005825042725,-0.07941248267889023,0.09224065393209457
1732873430498453800,1.154453857421875,-0.056810468435287476,-0.06169738993048668,0.08307767659425735
1732873430508441900,1.16444189453125,-0.05742133408784866,-0.042760565876960754,0.07757988572120667
1732873430518473500,1.174473388671875,-0.06108652427792549,-0.03298672288656235,0.07269296050071716
1732873430528430800,1.184430908203125,-0.06658431142568588,-0.025656340643763542,0.06475171446800232
1732873430538462000,1.1944619140625,-0.06658431142568588,-0.018325956538319588,0.05497787147760391
1732873430548450600,1.204450439453125,-0.06352998316287994,-0.014049900695681572,0.039706241339445114
1732873430558451000,1.214450927734375,-0.059864792972803116,-0.02321287989616394,0.02871066704392433
1732873430568439600,1.224439453125,-0.06108652427792549,-0.04214970022439957,0.01710422709584236
1732873430578470400,1.234470458984375,-0.06780604273080826,-0.05375614017248154,0.012217304669320583
1732873430588428500,1.244428466796875,-0.07941248267889023,-0.05192354694008827,0.016493361443281174
1732873430598457600,1.25445751953125,-0.08979719132184982,-0.04214970022439957,0.02321287989616394
1732873430608446700,1.26444677734375,-0.10262536257505417,-0.039706241339445114,0.0354301854968071
1732873430618477800,1.274477783203125,-0.11728613078594208,-0.036041051149368286,0.05009094998240471
1732873430628436000,1.28443603515625,-0.12339477986097336,-0.018936822190880775,0.05864306539297104
1732873430638467800,1.2944677734375,-0.1258382350206375,-0.0012217304902151227,0.07330382615327835
1732873430648455400,1.304455322265625,-0.13377949595451355,0.014049900695681572,0.09407325088977814
1732873430658456600,1.31445654296875,-0.14844025671482086,0.018325956538319588,0.11667526513338089
1732873430668444700,1.324444580078125,-0.16249015927314758,0.00855211354792118,0.13316862285137177
1732873430678475500,1.3344755859375,-0.17776179313659668,-0.006719517521560192,0.13866640627384186
1732873430688433700,1.34443359375,-0.19486601650714874,-0.016493361443281174,0.1258382350206375
1732873430698465300,1.35446533203125,-0.21563543379306793,-0.02076941914856434,0.09346238523721695
1732873430708454000,1.364453857421875,-0.23640485107898712,-0.01771509274840355,0.06352998316287994
1732873430718454500,1.37445458984375,-0.2681698501110077,-0.01038470957428217,0.03298672288656235
1732873430728443000,1.38444287109375,-0.30115658044815063,-0.007941247895359993,0.0024434609804302454
1732873430738474000,1.394473876953125,-0.3500257730484009,-0.00366519158706069,-0.018936822190880775
1732873430748432000,1.404431884765625,-0.3995058834552765,0.001832595793530345,-0.031154127791523933
1732873430758462500,1.41446240234375,-0.45142942667007446,0.01160643994808197,-0.04398229718208313
1732873430768451600,1.42445166015625,-0.5442809462547302,-0.018325956538319588,-0.056810468435287476
1732873430778451500,1.434451416015625,-0.6139195561408997,-0.07941248267889023,-0.056810468435287476
1732873430788440600,1.444440673828125,-0.684779942035675,-0.1563815027475357,-0.054367005825042725
1732873430798471000,1.454470947265625,-0.7525860071182251,-0.2431243658065796,-0.06169738993048668
1732873430808429600,1.4644296875,-0.8210029006004333,-0.2987131178379059,-0.08246681094169617
1732873430818460000,1.4744599609375,-0.8747590184211731,-0.3219259977340698,-0.08552113175392151
1732873430828449000,1.484448974609375,-0.9285151958465576,-0.3072652220726013,-0.056810468435287476
1732873430838449000,1.494448974609375,-0.9920451641082764,-0.23273965716362,-0.030543262138962746
1732873430848438000,1.50443798828125,-1.0195341110229492,-0.19608774781227112,-0.04398229718208313
1732873430858468600,1.514468505859375,-1.0519099235534668,-0.18020524084568024,-0.06719517707824707
1732873430868457500,1.52445751953125,-1.094059705734253,-0.18875735998153687,-0.09040805697441101
1732873430878457600,1.53445751953125,-1.150259256362915,-0.21930062770843506,-0.09957103431224823
1732873430888446700,1.54444677734375,-1.225395679473877,-0.25045475363731384,-0.07147123664617538
1732873430898477000,1.55447705078125,-1.2980886697769165,-0.26633724570274353,-0.009162978269159794
1732873430908435700,1.564435791015625,-1.3585642576217651,-0.2632829248905182,0.06475171446800232
1732873430918466300,1.57446630859375,-1.4330898523330688,-0.2168571650981903,0.14966198801994324
1732873430928455200,1.584455078125,-1.483791708946228,-0.18814650177955627,0.18631389737129211
1732873430938455000,1.594455078125,-1.5326608419418335,-0.16554448008537292,0.20952677726745605
1732873430948444200,1.604444091796875,-1.5900822877883911,-0.1417207419872284,0.22602014243602753
1732873430958474500,1.614474609375,-1.63467538356781,-0.14477506279945374,0.23029619455337524
1732873430968433200,1.62443310546875,-1.6713273525238037,-0.16737708449363708,0.21380282938480377
1732873430978465000,1.634465087890625,-1.701259732246399,-0.2021963894367218,0.17470745742321014
1732873430988452600,1.64445263671875,-1.740355134010315,-0.30115658044815063,0.1258382350206375
1732873430998453800,1.654453857421875,-1.7611244916915894,-0.3634648323059082,0.12400564551353455
1732873431008441600,1.664441650390625,-1.7660114765167236,-0.4001167416572571,0.15332718193531036
1732873431018473500,1.674473388671875,-1.757459282875061,-0.4105014503002167,0.2064724564552307
1732873431028430800,1.684430908203125,-1.7397441864013672,-0.3885102868080139,0.2785545587539673
1732873431038462500,1.69446240234375,-1.722640037536621,-0.34697145223617554,0.3549126982688904
1732873431048450300,1.7044501953125,-1.703092336654663,-0.29626965522766113,0.39645153284072876
1732873431058451700,1.71445166015625,-1.6872098445892334,-0.2535090744495392,0.3439171314239502
1732873431068439000,1.72443896484375,-1.693318486213684,-0.2736676335334778,0.24434609711170197
1732873431078471000,1.734470947265625,-1.7189748287200928,-0.32620203495025635,0.1411098688840866
1732873431088428300,1.74442822265625,-1.7666223049163818,-0.41172316670417786,0.06169738993048668
1732873431098460000,1.7544599609375,-1.8216001987457275,-0.5100724697113037,0.01771509274840355
1732873431108447700,1.76444775390625,-1.872912883758545,-0.6157521605491638,0.02076941914856434
1732873431118479600,1.774479736328125,-1.9175059795379639,-0.7098253965377808,0.05864306539297104
1732873431128437000,1.78443701171875,-1.9437731504440308,-0.7825183868408203,0.11178833991289139
1732873431138468600,1.794468505859375,-1.947438359260559,-0.7513642311096191,0.192422553896904
1732873431148456400,1.80445654296875,-1.9181169271469116,-0.6768386960029602,0.24129177629947662
1732873431158457600,1.81445751953125,-1.8759671449661255,-0.5723807215690613,0.26939156651496887
1732873431168445400,1.824445556640625,-1.8478673696517944,-0.4715879559516907,0.26511552929878235
1732873431178477000,1.83447705078125,-1.8362609148025513,-0.384845107793808,0.23090706765651703
1732873431188434400,1.844434326171875,-1.8179349899291992,-0.33536502718925476,0.14782938361167908
1732873431198466300,1.85446630859375,-1.7989981174468994,-0.33047810196876526,0.024434609338641167
1732873431208454000,1.864453857421875,-1.816102385520935,-0.3927863538265228,-0.16554448008537292
1732873431218455000,1.874455078125,-1.8539760112762451,-0.48808133602142334,-0.26145032048225403
1732873431228443000,1.88444287109375,-1.8961256742477417,-0.5815436840057373,-0.32498031854629517
1732873431238474500,1.894474609375,-1.9254472255706787,-0.6505714654922485,-0.3536909818649292
1732873431248431900,1.904431884765625,-1.9443840980529785,-0.6548475623130798,-0.35063666105270386
1732873431258463700,1.914463623046875,-1.948660135269165,-0.5900958180427551,-0.32620203495025635
1732873431268451300,1.924451416015625,-1.9480493068695068,-0.48747047781944275,-0.303600013256073
1732873431278452700,1.93445263671875,-1.9590448141098022,-0.3384193480014801,-0.2987131178379059
1732873431288440600,1.944440673828125,-1.974927306175232,-0.2767219543457031,-0.3182607889175415
1732873431298472200,1.95447216796875,-1.996307611465454,-0.24129177629947662,-0.34697145223617554
1732873431308429600,1.9644296875,-2.0134117603302,-0.22846360504627228,-0.3549126982688904
1732873431318461200,1.974461181640625,-2.018298864364624,-0.22052235901355743,-0.32986724376678467
1732873431328449300,1.98444921875,-2.009746551513672,-0.20830504596233368,-0.2571742534637451
1732873431338450200,1.9944501953125,-1.99752938747406,-0.192422553896904,-0.1270599663257599
1732873431348438000,2.00443798828125,-1.9810359477996826,-0.1820378452539444,0.03848451003432274
1732873431358470000,2.014469970703125,-1.9504927396774292,-0.18387043476104736,0.25106561183929443
1732873431368457700,2.024457763671875,-1.9266690015792847,-0.17348572611808777,0.31581732630729675
1732873431378457600,2.03445751953125,-1.8930714130401611,-0.17104226350784302,0.3139847218990326
1732873431388446500,2.044446533203125,-1.860695481300354,-0.16798794269561768,0.2669481039047241
1732873431398477300,2.054477294921875,-1.8295414447784424,-0.17470745742321014,0.19486601650714874
1732873431408435700,2.064435791015625,-1.8087719678878784,-0.20402899384498596,0.11056660860776901
1732873431418467300,2.07446728515625,-1.80510675907135,-0.2632829248905182,0.02687807008624077
1732873431428455400,2.084455322265625,-1.8112154006958008,-0.3830125033855438,-0.07391469180583954
1732873431438456300,2.094456298828125,-1.8154915571212769,-0.4398229718208313,-0.1111774742603302
1732873431448444200,2.104444091796875,-1.807550311088562,-0.46242499351501465,-0.12522737681865692
1732873431458476000,2.11447607421875,-1.7843374013900757,-0.4502076804637909,-0.13011430203914642
1732873431468433200,2.12443310546875,-1.7550158500671387,-0.39767327904701233,-0.13927727937698364
1732873431478465000,2.134465087890625,-1.7238616943359375,-0.32070425152778625,-0.1661553531885147
1732873431488452900,2.144452880859375,-1.6982053518295288,-0.25473082065582275,-0.21502456068992615
1732873431498454000,2.1544541015625,-1.674992561340332,-0.23335053026676178,-0.3188716471195221
1732873431508441900,2.16444189453125,-1.674992561340332,-0.28649580478668213,-0.3793473243713379
1732873431518473700,2.1744736328125,-1.6774359941482544,-0.3781255781650543,-0.39767327904701233
1732873431528431000,2.18443115234375,-1.6646077632904053,-0.45875978469848633,-0.36102136969566345
1732873431538462500,2.19446240234375,-1.6279559135437012,-0.485027015209198,-0.2571742534637451
1732873431548450600,2.204450439453125,-1.5723671913146973,-0.4337143301963806,-0.11301007121801376
1732873431558451700,2.21445166015625,-1.50211763381958,-0.3176499307155609,0.01710422709584236
1732873431568439600,2.224439453125,-1.4245377779006958,-0.18387043476104736,0.09957103431224823
1732873431578470000,2.234469970703125,-1.3096951246261597,-0.01466076634824276,0.11728613078594208
1732873431588428300,2.24442822265625,-1.2516628503799438,0.04337143152952194,0.0708603709936142
1732873431598457300,2.254457275390625,-1.2082914113998413,0.05864306539297104,-0.00366519158706069
1732873431608446700,2.26444677734375,-1.1801916360855103,0.04153883829712868,-0.08124507963657379
1732873431618477300,2.274477294921875,-1.1551461219787598,-0.021991148591041565,-0.14538592100143433
1732873431628436000,2.28443603515625,-1.1349875926971436,-0.1160643994808197,-0.20097467303276062
1732873431638466600,2.294466552734375,-1.1129964590072632,-0.21074850857257843,-0.24984388053417206
1732873431648455400,2.304455322265625,-1.0610729455947876,-0.32681289315223694,-0.31581732630729675
1732873431658455600,2.31445556640625,-1.0085384845733643,-0.3732386529445648,-0.3390302062034607
1732873431668444700,2.324444580078125,-0.9450085163116455,-0.38606682419776917,-0.3194825351238251
1732873431678475000,2.33447509765625,-0.8655960559844971,-0.35552358627319336,-0.26022860407829285
1732873431688433700,2.34443359375,-0.7776314616203308,-0.2828305959701538,-0.1618792861700058
1732873431698466000,2.354466064453125,-0.6902777552604675,-0.20097467303276062,-0.031154127791523933
1732873431708454000,2.364453857421875,-0.6133087277412415,-0.14905111491680145,0.11362093687057495
1732873431718455300,2.374455322265625,-0.5229006409645081,-0.13255776464939117,0.2816088795661926
1732873431728443100,2.384443115234375,-0.4764748811721802,-0.13011430203914642,0.33658674359321594
1732873431738473200,2.39447314453125,-0.4440990388393402,-0.12217304855585098,0.34758231043815613
1732873431748432000,2.404431884765625,-0.413555771112442,-0.11972958594560623,0.3292563557624817
1732873431758462500,2.41446240234375,-0.38667771220207214,-0.12828169763088226,0.2822197377681732
1732873431768451300,2.424451416015625,-0.3628539443016052,-0.12034045159816742,0.21074850857257843
1732873431778452000,2.434451904296875,-0.3390302062034607,-0.1007927656173706,0.13500121235847473
1732873431788440600,2.444440673828125,-0.3090978264808655,-0.07024950534105301,0.05803219974040985
1732873431798471700,2.4544716796875,-0.26083946228027344,-0.03420845419168472,-0.033597588539123535
1732873431808429600,2.4644296875,-0.2382374405860901,-0.031154127791523933,-0.06169738993048668
1732873431818460700,2.474460693359375,-0.22052235901355743,-0.03481931984424591,-0.06414084881544113
1732873431828449300,2.48444921875,-0.19853121042251587,-0.04092797264456749,-0.060475658625364304
1732873431838450000,2.494449951171875,-0.17837265133857727,-0.04948008432984352,-0.0659734457731247
1732873431848438000,2.50443798828125,-0.16310101747512817,-0.060475658625364304,-0.08429940044879913
1732873431858468900,2.51446875,-0.15332718193531036,-0.07330382615327835,-0.11056660860776901
1732873431868457700,2.524457763671875,-0.14844025671482086,-0.10445795953273773,-0.15943582355976105
1732873431878457900,2.534457763671875,-0.15454891324043274,-0.1368338167667389,-0.18814650177955627
1732873431888446500,2.544446533203125,-0.16920967400074005,-0.1814269721508026,-0.20463985204696655
1732873431898477600,2.5544775390625,-0.18387043476104736,-0.22540926933288574,-0.20952677726745605
1732873431908435700,2.564435791015625,-0.19486601650714874,-0.25045475363731384,-0.19853121042251587
1732873431918466800,2.574466796875,-0.20036379992961884,-0.26145032048225403,-0.17776179313659668
1732873431928483300,2.5844833984375,-0.19853121042251587,-0.2541199326515198,-0.14782938361167908
1732873431938455800,2.594455810546875,-0.18997909128665924,-0.1875356286764145,-0.09651670604944229
1732873431948444200,2.604444091796875,-0.16737708449363708,-0.1062905490398407,-0.05742133408784866
1732873431958475300,2.614475341796875,-0.14416420459747314,-0.031154127791523933,-0.024434609338641167
1732873431968433200,2.62443310546875,-0.13988813757896423,0.031154127791523933,0.005497787147760391
1732873431978464500,2.634464599609375,-0.1466076523065567,0.08124507963657379,0.029932396486401558
1732873431988452600,2.64445263671875,-0.1563815027475357,0.08796459436416626,0.04764748737215996
1732873431998453200,2.654453369140625,-0.19058994948863983,0.006719517521560192,0.06841690838336945
1732873432008441600,2.664441650390625,-0.25473082065582275,-0.06658431142568588,0.08429940044879913
1732873432018473000,2.674472900390625,-0.31581732630729675,-0.08918632566928864,0.08429940044879913
1732873432028430800,2.684430908203125,-0.3396410644054413,0.025656340643763542,0.0757472887635231
1732873432038462000,2.6944619140625,-0.3176499307155609,0.12217304855585098,0.07330382615327835
1732873432048450300,2.7044501953125,-0.2370157092809677,0.0555887371301651,0.025656340643763542
1732873432058451000,2.714450927734375,-0.21991148591041565,-0.04703662544488907,-0.06230825558304787
1732873432068439300,2.724439208984375,-0.26145032048225403,-0.14966198801994324,-0.12461651116609573
1732873432078470400,2.734470458984375,-0.2785545587539673,-0.19975294172763824,-0.12950342893600464
1732873432088428300,2.74442822265625,-0.2883284091949463,-0.1667662113904953,-0.05803219974040985
1732873432098459400,2.75445947265625,-0.28955012559890747,-0.1459967941045761,0.010995574295520782
1732873432108447700,2.76444775390625,-0.2718350291252136,-0.10934487730264664,0.06414084881544113
1732873432118478800,2.774478759765625,-0.24923302233219147,-0.059864792972803116,0.09651670604944229
1732873432128437000,2.78443701171875,-0.23151792585849762,0,0.10262536257505417
1732873432138468000,2.794468017578125,-0.2223549485206604,0.04764748737215996,0.09040805697441101
1732873432148456400,2.80445654296875,-0.21319197118282318,0.06780604273080826,0.07208210229873657
1732873432158457300,2.814457275390625,-0.2064724564552307,0.04092797264456749,0.04886921867728233
1732873432168445400,2.824445556640625,-0.19792033731937408,0.004886921960860491,0.0403171069920063
1732873432178476300,2.834476318359375,-0.18875735998153687,-0.031154127791523933,0.0403171069920063
1732873432188434400,2.844434326171875,-0.17959438264369965,-0.05009094998240471,0.04886921867728233
1732873432198465500,2.854465576171875,-0.16859880089759827,-0.0507018156349659,0.05925392732024193
1732873432208454000,2.864453857421875,-0.15882496535778046,-0.03481931984424591,0.06230825558304787
1732873432218454500,2.87445458984375,-0.15577064454555511,-0.021380282938480377,0.059864792972803116
1732873432228443000,2.88444287109375,-0.15393804013729095,-0.01466076634824276,0.04886921867728233
1732873432238474200,2.89447412109375,-0.1466076523065567,-0.0024434609804302454,-0.0024434609804302454
1732873432248431900,2.904431884765625,-0.14233160018920898,0.004886921960860491,-0.0507018156349659
1732873432258463000,2.914462890625,-0.1368338167667389,0.004886921960860491,-0.09651670604944229
1732873432268451600,2.92445166015625,-0.13255776464939117,-0.00366519158706069,-0.1215621829032898
1732873432278452000,2.934451904296875,-0.12889257073402405,-0.021380282938480377,-0.12034045159816742
1732873432288440600,2.944440673828125,-0.1319468915462494,-0.04886921867728233,-0.09285151958465576
1732873432298471700,2.9544716796875,-0.13866640627384186,-0.0806342139840126,-0.039095375686883926
1732873432308429600,2.9644296875,-0.14355333149433136,-0.12767083942890167,0.06169738993048668
1732873432318460700,2.974460693359375,-0.13805554807186127,-0.13255776464939117,0.11362093687057495
1732873432328449300,2.98444921875,-0.11239920556545258,-0.10384709388017654,0.14355333149433136
1732873432338449400,2.994449462890625,-0.07330382615327835,-0.048258353024721146,0.1459967941045761
1732873432348438000,3.00443798828125,-0.02382374368607998,0.021380282938480377,0.1160643994808197
1732873432358468900,3.01446875,0.016493361443281174,0.06719517707824707,0.05619960278272629
1732873432368457700,3.024457763671875,0.03176499158143997,0.05314527451992035,-0.02076941914856434
1732873432378458600,3.034458740234375,0.018936822190880775,-0.07330382615327835,-0.11484266817569733
1732873432388446500,3.044446533203125,-0.004886921960860491,-0.17409659922122955,-0.14538592100143433
1732873432398478000,3.05447802734375,-0.04092797264456749,-0.26572638750076294,-0.12095131725072861
1732873432408435700,3.064435791015625,-0.07024950534105301,-0.33475416898727417,-0.02687807008624077
1732873432418467300,3.07446728515625,-0.08491026610136032,-0.36163222789764404,0.12522737681865692
1732873432428455400,3.084455322265625,-0.07635815441608429,-0.3445279896259308,0.30482175946235657
1732873432438456300,3.094456298828125,-0.05009094998240471,-0.2938261926174164,0.4691445231437683
1732873432448444200,3.104444091796875,-0.007941247895359993,-0.2076941877603531,0.5943718552589417
1732873432458475800,3.114475830078125,0.06841690838336945,-0.0806342139840126,0.6951646208763123
1732873432468433400,3.124433349609375,0.10690141469240189,-0.00427605677396059,0.7079927921295166
1732873432478464000,3.134464111328125,0.1362229436635971,0.036041051149368286,0.6963863968849182
1732873432488452900,3.144452880859375,0.15882496535778046,0.042760565876960754,0.6768386960029602
1732873432498453200,3.154453369140625,0.1771509200334549,0.033597588539123535,0.6475171446800232
1732873432508441900,3.16444189453125,0.18997909128665924,0.025045474991202354,0.6017022728919983
1732873432518472200,3.17447216796875,0.2021963894367218,0.013439035043120384,0.5418374538421631
1732873432528431000,3.18443115234375,0.22357667982578278,0.03848451003432274,0.4098905920982361
1732873432538461200,3.194461181640625,0.23335053026676178,0.10323622822761536,0.2834414839744568
1732873432548450600,3.204450439453125,0.24129177629947662,0.17592918872833252,0.12767083942890167
1732873432558450400,3.214450439453125,0.24068090319633484,0.22968533635139465,-0.06291911751031876
1732873432568439600,3.224439453125,0.22479841113090515,0.24129177629947662,-0.2816088795661926
1732873432578470000,3.234469970703125,0.1869247704744339,0.20891591906547546,-0.5076290369033813
1732873432588428500,3.244428466796875,0.11728613078594208,0.1411098688840866,-0.7122688889503479
1732873432598458000,3.2544580078125,-0.007941247895359993,-0.025656340643763542,-0.9321803450584412
1732873432608447000,3.264447021484375,-0.08002334833145142,-0.15027284622192383,-0.9841039180755615
1732873432618478300,3.274478271484375,-0.13988813757896423,-0.2785545587539673,-0.9352346658706665
1732873432628436000,3.28443603515625,-0.1875356286764145,-0.37751471996307373,-0.7770205736160278
1732873432638467600,3.294467529296875,-0.2174680233001709,-0.43127086758613586,-0.5277875661849976
1732873432648455400,3.304455322265625,-0.2223549485206604,-0.4202753007411957,-0.23335053026676178
1732873432658455800,3.314455810546875,-0.21624629199504852,-0.33719760179519653,0.04214970022439957
1732873432668444700,3.324444580078125,-0.19364428520202637,-0.21502456068992615,0.24068090319633484
1732873432678475800,3.334475830078125,-0.13744467496871948,-0.06719517707824707,0.3701843321323395
1732873432688433700,3.34443359375,-0.10751228034496307,-0.01160643994808197,0.36590829491615295
1732873432698465300,3.35446533203125,-0.08185594528913498,0.029932396486401558,0.30482175946235657
1732873432708454000,3.364453857421875,-0.05192354694008827,0.0708603709936142,0.19914206862449646
1732873432718454500,3.37445458984375,-0.022602014243602753,0.10445795953273773,0.0659734457731247
1732873432728443000,3.38444287109375,-0.00427605677396059,0.12522737681865692,-0.07452555745840073
1732873432738473700,3.3944736328125,0.013439035043120384,0.11667526513338089,-0.19608774781227112
1732873432748432000,3.404431884765625,0.036651913076639175,0.039095375686883926,-0.3066543638706207
1732873432758462700,3.414462646484375,0.025656340643763542,-0.04948008432984352,-0.3176499307155609
1732873432768451300,3.424451416015625,0.003054326167330146,-0.13988813757896423,-0.2877175211906433
1732873432778452000,3.434451904296875,-0.012828170321881771,-0.21502456068992615,-0.24007004499435425
1732873432788440300,3.4444404296875,-0.03298672288656235,-0.2669481039047241,-0.19486601650714874
1732873432798471400,3.454471435546875,-0.05619960278272629,-0.28588494658470154,-0.16554448008537292
1732873432808429600,3.4644296875,-0.09896016865968704,-0.2938261926174164,-0.16798794269561768
1732873432818460400,3.47446044921875,-0.16065755486488342,-0.2730567753314972,-0.20891591906547546
1732873432828449000,3.484448974609375,-0.1820378452539444,-0.27061331272125244,-0.20097467303276062
1732873432838449400,3.494449462890625,-0.17287486791610718,-0.27122417092323303,-0.14294247329235077
1732873432848438300,3.504438232421875,-0.14049901068210602,-0.24373523890972137,-0.04398229718208313
1732873432858468900,3.51446875,-0.10384709388017654,-0.14966198801994324,0.07941248267889023
1732873432868457500,3.52445751953125,-0.07452555745840073,-0.015882495790719986,0.21013765037059784
1732873432878457900,3.534457763671875,-0.051312681287527084,0.08124507963657379,0.3243694305419922
1732873432888446500,3.544446533203125,-0.04642575979232788,0.11239920556545258,0.4050036668777466
1732873432898477300,3.554477294921875,-0.05803219974040985,0.08674286305904388,0.4282165467739105
1732873432908435700,3.564435791015625,-0.0757472887635231,0.06658431142568588,0.3897320330142975
1732873432918466600,3.574466552734375,-0.10506882518529892,0.025656340643763542,0.31581732630729675
1732873432928455200,3.584455078125,-0.15821409225463867,-0.00733038317412138,0.2174680233001709
1732873432938455600,3.59445556640625,-0.22602014243602753,-0.025045474991202354,0.11423180252313614
1732873432948444200,3.604444091796875,-0.2932153046131134,-0.02626720629632473,0.027488935738801956
1732873432958475300,3.614475341796875,-0.3445279896259308,-0.02321287989616394,-0.021380282938480377
1732873432968433200,3.62443310546875,-0.38117989897727966,0,-0.013439035043120384
1732873432978464000,3.634464111328125,-0.37629300355911255,0.06291911751031876,0.01710422709584236
1732873432988452600,3.64445263671875,-0.3549126982688904,0.1508837193250656,0.02382374368607998
1732873432998454000,3.6544541015625,-0.32498031854629517,0.2376265823841095,-0.025656340643763542
1732873433008441900,3.66444189453125,-0.28955012559890747,0.2767219543457031,-0.12095131725072861
1732873433018473700,3.6744736328125,-0.26450464129447937,0.2535090744495392,-0.22663100063800812
1732873433028430800,3.684430908203125,-0.2480112910270691,0.1661553531885147,-0.2736676335334778
1732873433038462200,3.694462158203125,-0.22113321721553802,0.015271631069481373,-0.036041051149368286
1732873433048450300,3.7044501953125,-0.20952677726745605,-0.06658431142568588,0.36224308609962463
1732873433058451500,3.714451416015625,-0.21135938167572021,-0.07452555745840073,0.836885392665863
1732873433068439000,3.72443896484375,-0.19792033731937408,-0.036041051149368286,1.2431107759475708
1732873433078470700,3.734470703125,-0.1667662113904953,0.01160643994808197,1.5125023126602173
1732873433088428300,3.74442822265625,-0.12339477986097336,0.04764748737215996,1.626123309135437
1732873433098458600,3.754458740234375,-0.11545353382825851,0.08185594528913498,1.5943583250045776
1732873433108448000,3.764447998046875,-0.11667526513338089,0.12339477986097336,1.4049900770187378
1732873433118480400,3.77448046875,-0.09651670604944229,0.2070833146572113,0.8827002644538879
1732873433128437000,3.78443701171875,-0.11423180252313614,0.27122417092323303,0.4386012554168701
1732873433138467000,3.794467041015625,-0.1661553531885147,0.30604347586631775,-0.04153883829712868
1732873433148456400,3.80445654296875,-0.22540926933288574,0.2926044464111328,-0.5180137157440186
1732873433158457300,3.814457275390625,-0.24862214922904968,0.16982053220272064,-0.9199630618095398
1732873433168445200,3.824445068359375,-0.28588494658470154,-0.05803219974040985,-1.2198978662490845
1732873433178476800,3.834476806640625,-0.30482175946235657,-0.28099802136421204,-1.3994922637939453
1732873433188434400,3.844434326171875,-0.30543261766433716,-0.5167919993400574,-1.3842206001281738
1732873433198465800,3.8544658203125,-0.30054569244384766,-0.5900958180427551,-1.166752576828003
1732873433208454000,3.864453857421875,-0.28649580478668213,-0.5852088928222656,-0.8258898258209229
1732873433218455000,3.874455078125,-0.2724458873271942,-0.49846604466438293,-0.4349360466003418
1732873433228443000,3.88444287109375,-0.26939156651496887,-0.33108896017074585,-0.09040805697441101
1732873433238473700,3.8944736328125,-0.25961771607398987,-0.13927727937698364,0.14905111491680145
1732873433248431900,3.904431884765625,-0.2590068578720093,0.04459316283464432,0.2736676335334778
1732873433258462700,3.914462646484375,-0.2816088795661926,0.18387043476104736,0.2981022298336029
1732873433268451300,3.924451416015625,-0.3017674386501312,0.21135938167572021,0.24007004499435425
1732873433278452000,3.934451904296875,-0.3194825351238251,0.20586158335208893,0.1612684279680252
1732873433288440600,3.944440673828125,-0.32498031854629517,0.17043140530586243,0.09346238523721695
1732873433298471700,3.9544716796875,-0.3182607889175415,0.11301007121801376,0.04398229718208313
1732873433308429600,3.9644296875,-0.2981022298336029,0.0555887371301651,0.01160643994808197
1732873433318460700,3.974460693359375,-0.27000242471694946,0.00733038317412138,-0.00855211354792118
1732873433328449000,3.984448974609375,-0.242513507604599,-0.025045474991202354,-0.024434609338641167
1732873433338450000,3.994449951171875,-0.20525072515010834,-0.04948008432984352,-0.02932153269648552
1732873433348438300,4.004438232421875,-0.19547687470912933,-0.06658431142568588,-0.01710422709584236
1732873433358469000,4.01446923828125,-0.19792033731937408,-0.08307767659425735,-0.004886921960860491
1732873433368457700,4.024457763671875,-0.20402899384498596,-0.09651670604944229,-0.00366519158706069
1732873433378458000,4.0344580078125,-0.2174680233001709,-0.11911872029304504,-0.004886921960860491
1732873433388446700,4.04444677734375,-0.23457226157188416,-0.15271630883216858,0.0006108652451075613
1732873433398477600,4.0544775390625,-0.242513507604599,-0.1765400618314743,0.006108652334660292
1732873433408435700,4.064435791015625,-0.22968533635139465,-0.15943582355976105,0.03237585723400116
1732873433418466800,4.074466796875,-0.21135938167572021,-0.09346238523721695,0.06902777403593063
1732873433428455400,4.084455322265625,-0.19425514340400696,-0.00733038317412138,0.09834930300712585
1732873433438455800,4.094455810546875,-0.18387043476104736,0.06352998316287994,0.09712757170200348
1732873433448444200,4.104444091796875,-0.17837265133857727,0.0861319974064827,0.060475658625364304
1732873433458475800,4.114475830078125,-0.18325957655906677,0.06352998316287994,0.0006108652451075613
1732873433468433200,4.12443310546875,-0.1973094791173935,0.009773843921720982,-0.07330382615327835
1732873433478464000,4.134464111328125,-0.23273965716362,-0.06352998316287994,-0.19058994948863983
1732873433488452900,4.144452880859375,-0.2632829248905182,-0.10262536257505417,-0.24373523890972137
1732873433498453200,4.154453369140625,-0.3023782968521118,-0.13744467496871948,-0.2730567753314972
1732873433508441900,4.16444189453125,-0.34147366881370544,-0.15821409225463867,-0.2675589919090271
1732873433518473700,4.1744736328125,-0.3677408695220947,-0.16982053220272064,-0.21868975460529327
1732873433528430800,4.184430908203125,-0.3628539443016052,-0.15454891324043274,-0.12400564551353455
1732873433538462000,4.1944619140625,-0.32620203495025635,-0.08979719132184982,0.00855211354792118
1732873433548450600,4.204450439453125,-0.26145032048225403,0.016493361443281174,0.1417207419872284
1732873433558451700,4.21445166015625,-0.12828169763088226,0.24129177629947662,0.22296582162380219
1732873433568439600,4.224439453125,-0.04398229718208313,0.35735616087913513,0.19303341209888458
1732873433578471000,4.234470947265625,0.004886921960860491,0.34697145223617554,0.10995574295520782
1732873433588428500,4.244428466796875,0.006719517521560192,0.1667662113904953,0.00733038317412138
1732873433598458000,4.2544580078125,-0.03420845419168472,-0.16798794269561768,-0.033597588539123535
1732873433608447000,4.264447021484375,-0.10018189996480942,-0.5436700582504272,0.06780604273080826
1732873433618478300,4.274478271484375,-0.13072516024112701,-0.7941248416900635,0.32131510972976685
1732873433628436000,4.28443603515625,-0.10018189996480942,-0.7580837607383728,0.846659243106842
1732873433638467600,4.294467529296875,-0.060475658625364304,-0.484416127204895,1.1985175609588623
1732873433648455400,4.304455322265625,-0.025656340643763542,-0.10018189996480942,1.4844025373458862
1732873433658455300,4.314455322265625,0.025045474991202354,0.35185837745666504,1.6493362188339233
1732873433668444700,4.324444580078125,0.10934487730264664,0.759305477142334,1.6548339128494263
1732873433678474800,4.334474853515625,0.15943582355976105,1.0659598112106323,1.508837103843689
1732873433688433700,4.34443359375,0.15271630883216858,1.2034045457839966,1.228450059890747
1732873433698464500,4.354464599609375,0.059864792972803116,1.017701506614685,0.5632177591323853
1732873433708454000,4.364453857421875,-0.07696902006864548,0.6774495840072632,-0.006108652334660292
1732873433718456000,4.3744560546875,-0.1661553531885147,0.3805690407752991,-0.6102544069290161
1732873433728443100,4.384443115234375,-0.1270599663257599,-0.009773843921720982,-1.179580807685852
1732873433738474200,4.39447412109375,-0.14294247329235077,-0.5552765130996704,-1.6120734214782715
1732873433748432000,4.404431884765625,-0.21624629199504852,-0.9902125597000122,-1.853365182876587
1732873433758463500,4.41446337890625,-0.29016098380088806,-1.2754865884780884,-1.8668042421340942
1732873433768451300,4.424451416015625,-0.34636059403419495,-1.3200798034667969,-1.626123309135437
1732873433778452500,4.434452392578125,-0.31581732630729675,-0.9547823667526245,-0.9034696817398071
1732873433788440600,4.444440673828125,-0.23518311977386475,-0.5198463201522827,-0.3530801236629486
1732873433798471400,4.454471435546875,-0.16554448008537292,-0.06108652427792549,0.12400564551353455
1732873433808429600,4.4644296875,-0.11911872029304504,0.3433062732219696,0.4404338300228119
1732873433818460400,4.47446044921875,-0.08246681094169617,0.5760459303855896,0.5687155723571777
1732873433828449300,4.48444921875,-0.06902777403593063,0.6389650702476501,0.5387831330299377
1732873433838449400,4.494449462890625,-0.1007927656173706,0.513737678527832,0.41233405470848083
1732873433848438300,4.504438232421875,-0.16004669666290283,0.16982053220272064,0.17959438264369965
1732873433858469000,4.51446923828125,-0.18936823308467865,-0.04398229718208313,0.04764748737215996
1732873433868457500,4.52445751953125,-0.21319197118282318,-0.19058994948863983,-0.03237585723400116
1732873433878458000,4.5344580078125,-0.2168571650981903,-0.26145032048225403,-0.054367005825042725
1732873433888446700,4.54444677734375,-0.20463985204696655,-0.2724458873271942,-0.02626720629632473
1732873433898477600,4.5544775390625,-0.1966986060142517,-0.2431243658065796,0.03787364438176155
1732873433908435700,4.564435791015625,-0.19608774781227112,-0.16249015927314758,0.11667526513338089
1732873433918466800,4.574466796875,-0.2015855312347412,-0.04153883829712868,0.24068090319633484
1732873433928483600,4.584483642578125,-0.18936823308467865,-0.0006108652451075613,0.2889392673969269
1732873433938454800,4.594454833984375,-0.16737708449363708,0.012217304669320583,0.30543261766433716
1732873433948444200,4.604444091796875,-0.16737708449363708,-0.00427605677396059,0.29077184200286865
1732873433958475300,4.614475341796875,-0.1875356286764145,-0.016493361443281174,0.24862214922904968
1732873433968433200,4.62443310546875,-0.21991148591041565,-0.03176499158143997,0.1973094791173935
1732873433978464300,4.63446435546875,-0.2480112910270691,-0.08796459436416626,0.14966198801994324
1732873433988452600,4.64445263671875,-0.28649580478668213,-0.14966198801994324,0.09285151958465576
1732873433998453200,4.654453369140625,-0.342695415019989,-0.16493362188339233,-0.006719517521560192
1732873434008441600,4.664441650390625,-0.3481931984424591,-0.13500121235847473,-0.06841690838336945
1732873434018473000,4.674472900390625,-0.32559117674827576,-0.07880161702632904,-0.10567969083786011
1732873434028557300,4.684557373046875,-0.28955012559890747,-0.012828170321881771,-0.09346238523721695
1732873434038588200,4.694588134765625,-0.2583959996700287,0.0555887371301651,-0.030543262138962746
1732873434048576800,4.70457666015625,-0.23579397797584534,0.10445795953273773,0.04703662544488907
1732873434058578000,4.714577880859375,-0.2278527319431305,0.11423180252313614,0.12767083942890167
1732873434068565800,4.724565673828125,-0.28588494658470154,0.02015855349600315,0.24984388053417206
1732873434078596900,4.734596923828125,-0.3433062732219696,-0.06841690838336945,0.30970868468284607
1732873434088554800,4.7445546875,-0.3842342495918274,-0.17348572611808777,0.3170390725135803
1732873434098585900,4.7545859375,-0.4184426963329315,-0.29626965522766113,0.27611109614372253
1732873434108574200,4.76457421875,-0.43127086758613586,-0.36590829491615295,0.19792033731937408
1732873434118605600,4.77460546875,-0.42210787534713745,-0.34636059403419495,0.10995574295520782
1732873434128563500,4.7845634765625,-0.3744603991508484,-0.2431243658065796,0.018936822190880775
1732873434138595000,4.794594970703125,-0.2736676335334778,0.022602014243602753,-0.17348572611808777
1732873434148583000,4.8045830078125,-0.2431243658065796,0.12400564551353455,-0.3274237811565399
1732873434158584000,4.814583984375,-0.27550023794174194,0.06291911751031876,-0.42638394236564636
1732873434168572000,4.824572021484375,-0.3530801236629486,-0.1508837193250656,-0.384845107793808
1732873434178603300,4.834603271484375,-0.40194934606552124,-0.4251621961593628,-0.1459967941045761
1732873434188561000,4.844560791015625,-0.4404338300228119,-0.6053674817085266,0.2632829248905182
1732873434198592300,4.85459228515625,-0.47280970215797424,-0.646906316280365,0.7024950385093689
1732873434208580400,4.864580322265625,-0.4948008358478546,-0.543059229850769,1.036027431488037
1732873434218580700,4.874580810546875,-0.4343251883983612,-0.24495697021484375,1.2736539840698242
1732873434228569600,4.884569580078125,-0.38606682419776917,-0.00366519158706069,1.2095131874084473
1732873434238599700,4.894599609375,-0.36651915311813354,0.2119702398777008,0.969443142414093
1732873434248558300,4.904558349609375,-0.3836233615875244,0.323147714138031,0.6047565937042236
1732873434258588700,4.914588623046875,-0.4288274049758911,0.2767219543457031,0.14477506279945374
1732873434268578000,4.924578125,-0.4893030524253845,0.12889257073402405,-0.3689626157283783
1732873434278579000,4.934578857421875,-0.5418374538421631,-0.07391469180583954,-0.8399397134780884
1732873434288567000,4.944567138671875,-0.5876523852348328,-0.45753806829452515,-1.2687671184539795
1732873434298598400,4.954598388671875,-0.5833762884140015,-0.6310238242149353,-1.3182471990585327
1732873434308556000,4.96455615234375,-0.5760459303855896,-0.7049384713172913,-1.2003501653671265
1732873434318587400,4.97458740234375,-0.5674937963485718,-0.6646214127540588,-0.9468411207199097
1732873434328575700,4.98457568359375,-0.5540547966957092,-0.5259549617767334,-0.6163630485534668
1732873434338576400,4.994576416015625,-0.5497786998748779,-0.3274237811565399,-0.2993239760398865
1732873434348564500,5.004564453125,-0.5381723046302795,-0.12400564551353455,-0.07208210229873657
1732873434358596000,5.01459619140625,-0.5424483418464661,0.09651670604944229,0.07147123664617538
1732873434368584000,5.024583984375,-0.5571091175079346,0.1459967941045761,0.07024950534105301
1732873434378584000,5.034583984375,-0.5803219676017761,0.14049901068210602,0.018936822190880775
1732873434388573000,5.044572998046875,-0.607200026512146,0.08796459436416626,-0.05009094998240471
1732873434398604000,5.05460400390625,-0.6414085030555725,0.021991148591041565,-0.10201449692249298
1732873434408562200,5.064562255859375,-0.6646214127540588,-0.025656340643763542,-0.1215621829032898
1732873434418593300,5.07459326171875,-0.6676757335662842,-0.0555887371301651,-0.11484266817569733
1732873434428582000,5.084581787109375,-0.6585127115249634,-0.06291911751031876,-0.08857546001672745
1732873434438582300,5.094582275390625,-0.626747727394104,-0.045204028487205505,-0.016493361443281174
1732873434448570600,5.104570556640625,-0.6096435189247131,-0.00427605677396059,0.033597588539123535
1732873434458602500,5.1146025390625,-0.6023131608963013,0.04092797264456749,0.06414084881544113
1732873434468559600,5.1245595703125,-0.6059783101081848,0.07941248267889023,0.07391469180583954
1732873434478591500,5.134591552734375,-0.6230825781822205,0.09346238523721695,0.07452555745840073
1732873434488579000,5.1445791015625,-0.6536257863044739,0.07880161702632904,0.07635815441608429
1732873434498580500,5.15458056640625,-0.6914994716644287,0.039095375686883926,0.0861319974064827
1732873434508568300,5.164568359375,-0.7635815739631653,-0.022602014243602753,0.12461651116609573
1732873434518600000,5.174599853515625,-0.8118399381637573,-0.04886921867728233,0.15943582355976105
1732873434528557600,5.1845576171875,-0.8533787727355957,-0.05253441259264946,0.1869247704744339
1732873434538589000,5.1945888671875,-0.8906415104866028,-0.054367005825042725,0.19608774781227112
1732873434548577000,5.204576904296875,-0.9205739498138428,-0.060475658625364304,0.1869247704744339
1732873434558578000,5.214577880859375,-0.941343367099762,-0.08368854224681854,0.1771509200334549
1732873434568566000,5.22456591796875,-0.950506329536438,-0.10018189996480942,0.17287486791610718
1732873434578597600,5.23459765625,-0.941343367099762,-0.08674286305904388,0.15454891324043274
1732873434588555000,5.244554931640625,-0.9376781582832336,-0.06230825558304787,0.1411098688840866
1732873434598584800,5.254584716796875,-0.9352346658706665,-0.02871066704392433,0.13377949595451355
1732873434608573400,5.264573486328125,-0.9382890462875366,-0.0024434609804302454,0.13805554807186127
1732873434618604800,5.274604736328125,-0.9443976879119873,0.03420845419168472,0.1459967941045761
1732873434628562400,5.2845625,-0.9450085163116455,0.11545353382825851,0.14294247329235077
1732873434638594300,5.29459423828125,-0.9364564418792725,0.23457226157188416,0.11789698898792267
1732873434648582000,5.304581787109375,-0.9260717034339905,0.34574973583221436,0.06414084881544113
1732873434658583000,5.3145830078125,-0.9346238374710083,0.384845107793808,-0.03237585723400116
1732873434668571100,5.324571044921875,-0.979827880859375,0.23640485107898712,-0.05925392732024193
1732873434678602800,5.334602783203125,-1.0525208711624146,-0.09773843735456467,0.013439035043120384
1732873434688560000,5.34456005859375,-1.171028733253479,-0.5204572081565857,0.19486601650714874
1732873434698592300,5.35459228515625,-1.2797627449035645,-0.7965682744979858,0.42088615894317627
1732873434708580400,5.364580322265625,-1.3390166759490967,-0.8778133392333984,0.6285803318023682
1732873434718581500,5.37458154296875,-1.3457361459732056,-0.8002334833145142,0.8014551997184753
1732873434728569600,5.384569580078125,-1.282817006111145,-0.48258355259895325,0.9553932547569275
1732873434738600700,5.3946005859375,-1.2229522466659546,-0.17409659922122955,0.959669291973114
1732873434748558300,5.404558349609375,-1.186300277709961,0.11239920556545258,0.8765916228294373
1732873434758589700,5.414589599609375,-1.1789699792861938,0.3084869384765625,0.7165449261665344
1732873434768577800,5.424577880859375,-1.1887437105178833,0.3677408695220947,0.49785518646240234
1732873434778578400,5.434578369140625,-1.1911872625350952,0.304210901260376,0.24129177629947662
1732873434788567000,5.444567138671875,-1.1746938228607178,0.14844025671482086,-0.028099801391363144
1732873434798598100,5.45459814453125,-1.1423180103302002,-0.22540926933288574,-0.41661009192466736
1732873434808556000,5.46455615234375,-1.1612548828125,-0.4990769028663635,-0.656680166721344
1732873434818587600,5.474587646484375,-1.228450059890747,-0.7470881938934326,-0.8570439219474792
1732873434828575500,5.484575439453125,-1.299310326576233,-0.9419541954994202,-0.9999864101409912
1732873434838577000,5.494576904296875,-1.3561208248138428,-1.0488556623458862,-1.0751228332519531
1732873434848564700,5.504564697265625,-1.4043792486190796,-1.053742527961731,-1.0580185651779175
1732873434858596400,5.514596435546875,-1.441641926765442,-0.9706648588180542,-0.9297369122505188
1732873434868584000,5.524583984375,-1.4636331796646118,-0.7922922372817993,-0.7012733221054077
1732873434878585300,5.53458544921875,-1.4508049488067627,-0.4202753007411957,-0.23884831368923187
1732873434888573000,5.544572998046875,-1.4202617406845093,-0.19547687470912933,0.07330382615327835
1732873434898604800,5.554604736328125,-1.4098769426345825,-0.06291911751031876,0.30482175946235657
1732873434908562200,5.564562255859375,-1.4220943450927734,-0.0024434609804302454,0.42577308416366577
1732873434918593000,5.574593017578125,-1.4300355911254883,-0.03176499158143997,0.4599815309047699
1732873434928581600,5.58458154296875,-1.4422528743743896,-0.11972958594560623,0.42760565876960754
1732873434938582500,5.59458251953125,-1.4501941204071045,-0.2125810980796814,0.3439171314239502
1732873434948570600,5.604570556640625,-1.4453071355819702,-0.3219259977340698,0.17409659922122955
1732873434958601700,5.614601806640625,-1.4428637027740479,-0.35552358627319336,0.05803219974040985
1732873434968559600,5.6245595703125,-1.4367550611495972,-0.342695415019989,-0.04764748737215996
1732873434978590500,5.634590576171875,-1.4227051734924316,-0.30054569244384766,-0.12767083942890167
1732873434988579000,5.6445791015625,-1.4147639274597168,-0.24862214922904968,-0.18081611394882202
1732873434998580500,5.65458056640625,-1.4110987186431885,-0.21502456068992615,-0.20952677726745605
1732873435008568300,5.664568359375,-1.4074335098266602,-0.2076941877603531,-0.21380282938480377
1732873435018600200,5.67460009765625,-1.380555510520935,-0.23335053026676178,-0.17837265133857727
1732873435028557300,5.684557373046875,-1.3322970867156982,-0.26022860407829285,-0.1411098688840866
1732873435038587600,5.694587646484375,-1.2736539840698242,-0.2822197377681732,-0.09957103431224823
1732873435048576800,5.70457666015625,-1.2150110006332397,-0.3029891550540924,-0.05925392732024193
1732873435058576600,5.71457666015625,-1.160033106803894,-0.31093040108680725,-0.025656340643763542
1732873435068565500,5.7245654296875,-1.1166616678237915,-0.3090978264808655,-0.007941247895359993
1732873435078597400,5.734597412109375,-1.0897835493087769,-0.3084869384765625,-0.009162978269159794
1732873435088554800,5.7445546875,-1.076344609260559,-0.3139847218990326,-0.02871066704392433
1732873435098586400,5.75458642578125,-1.0543533563613892,-0.3439171314239502,-0.09712757170200348
1732873435108574500,5.764574462890625,-1.053742527961731,-0.37140607833862305,-0.1472185254096985
1732873435118605800,5.774605712890625,-1.0653489828109741,-0.4080579876899719,-0.1820378452539444
1732873435128563200,5.784563232421875,-1.0775662660598755,-0.42638394236564636,-0.19425514340400696
1732873435138595000,5.794594970703125,-1.0793988704681396,-0.413555771112442,-0.17898350954055786
1732873435148582700,5.804582763671875,-1.0769554376602173,-0.394008070230484,-0.12767083942890167
1732873435158584000,5.814583984375,-1.0726794004440308,-0.38240164518356323,-0.04581489413976669
1732873435168571600,5.824571533203125,-1.0677924156188965,-0.3591887652873993,0.08979719132184982
1732873435178603800,5.834603759765625,-1.0769554376602173,-0.3286454975605011,0.16249015927314758
1732873435188561000,5.844560791015625,-1.0934487581253052,-0.2816088795661926,0.19853121042251587
1732873435198592500,5.854592529296875,-1.112385630607605,-0.22968533635139465,0.19853121042251587
1732873435208580400,5.864580322265625,-1.1227703094482422,-0.17287486791610718,0.15882496535778046
1732873435218581500,5.87458154296875,-1.1239920854568481,-0.1508837193250656,0.10323622822761536
1732873435228569300,5.8845693359375,-1.1325441598892212,-0.17043140530586243,0.045204028487205505
1732873435238601000,5.89460107421875,-1.1704177856445312,-0.2565633952617645,0.01038470957428217
1732873435248558300,5.904558349609375,-1.1948524713516235,-0.3280346393585205,0.0555887371301651
1732873435258590200,5.914590087890625,-1.2260065078735352,-0.3695734739303589,0.1618792861700058
1732873435268577800,5.924577880859375,-1.253495454788208,-0.3445279896259308,0.30482175946235657
1732873435278579500,5.934579345703125,-1.273043155670166,-0.2632829248905182,0.4495968222618103
1732873435288567000,5.944567138671875,-1.2736539840698242,-0.14416420459747314,0.5552765130996704
1732873435298598400,5.954598388671875,-1.2620476484298706,-0.02321287989616394,0.6041457056999207
1732873435308556000,5.96455615234375,-1.2602150440216064,0.01038470957428217,0.6041457056999207
1732873435318587600,5.974587646484375,-1.301142930984497,-0.09957103431224823,0.5503895878791809
1732873435328575500,5.984575439453125,-1.3347405195236206,-0.22968533635139465,0.5119050741195679
1732873435338576600,5.99457666015625,-1.3622294664382935,-0.3500257730484009,0.484416127204895
1732873435348564500,6.004564453125,-1.3897184133529663,-0.4349360466003418,0.47280970215797424
1732873435358596400,6.014596435546875,-1.405600905418396,-0.45814892649650574,0.46242499351501465
1732873435368584200,6.024584228515625,-1.406822681427002,-0.4086688458919525,0.4349360466003418
1732873435378584300,6.034584228515625,-1.3921618461608887,-0.303600013256073,0.37690386176109314
1732873435388573000,6.044572998046875,-1.3475687503814697,-0.06291911751031876,0.19608774781227112
1732873435398604000,6.05460400390625,-1.320690631866455,0.07024950534105301,0.015882495790719986
1732873435408562200,6.064562255859375,-1.303586483001709,0.12889257073402405,-0.1875356286764145
1732873435418593800,6.07459375,-1.2889256477355957,0.10812314599752426,-0.384845107793808
1732873435428582000,6.084581787109375,-1.2712105512619019,0.02015855349600315,-0.5424483418464661
1732873435438582800,6.094582763671875,-1.2473868131637573,-0.11850785464048386,-0.6401867866516113
1732873435448570600,6.104570556640625,-1.215621829032898,-0.26145032048225403,-0.6682865619659424
1732873435458602500,6.1146025390625,-1.169806957244873,-0.4306600093841553,-0.5528330206871033
1732873435468560000,6.124559814453125,-1.13926362991333,-0.5027421116828918,-0.3799581825733185
1732873435478591500,6.134591552734375,-1.1099421977996826,-0.513126790523529,-0.1814269721508026
1732873435488579000,6.1445791015625,-1.076344609260559,-0.47280970215797424,-0.00366519158706069
1732873435498580500,6.15458056640625,-1.0476338863372803,-0.4043927788734436,0.12034045159816742
1732873435508568300,6.164568359375,-1.0201449394226074,-0.32620203495025635,0.18936823308467865
1732873435518599400,6.174599365234375,-0.9993755221366882,-0.2565633952617645,0.22418753802776337
1732873435528557300,6.184557373046875,-0.9834930300712585,-0.19058994948863983,0.24068090319633484
1732873435538588700,6.194588623046875,-0.9663888216018677,-0.14355333149433136,0.23457226157188416
1732873435548577000,6.204576904296875,-0.9523389339447021,-0.15393804013729095,0.21868975460529327
1732873435558577400,6.214577392578125,-0.9266825914382935,-0.17409659922122955,0.19547687470912933
1732873435568566000,6.22456591796875,-0.8833111524581909,-0.182648703455925,0.16920967400074005
1732873435578596400,6.234596435546875,-0.7874053120613098,-0.12767083942890167,0.12767083942890167
1732873435588554800,6.2445546875,-0.6792821288108826,-0.10751228034496307,0.06475171446800232
1732873435598584300,6.254584228515625,-0.6102544069290161,-0.10201449692249298,-0.016493361443281174
1732873435608573200,6.2645732421875,-0.5516113042831421,-0.10934487730264664,-0.14905111491680145
1732873435618604300,6.274604248046875,-0.5320636034011841,-0.08246681094169617,-0.2125810980796814
1732873435628562400,6.2845625,-0.5326744914054871,-0.016493361443281174,-0.23090706765651703
1732873435638593300,6.29459326171875,-0.5442809462547302,0.06536258012056351,-0.20891591906547546
1732873435648582000,6.304581787109375,-0.5571091175079346,0.10445795953273773,-0.1716531366109848
1732873435658582500,6.31458251953125,-0.5656611919403076,0.10506882518529892,-0.1319468915462494
1732873435668571100,6.324571044921875,-0.5619960427284241,0.056810468435287476,-0.09712757170200348
1732873435678602200,6.334602294921875,-0.5192354321479797,-0.059864792972803116,-0.06658431142568588
1732873435688560000,6.34456005859375,-0.475253164768219,-0.12278391420841217,-0.04337143152952194
1732873435698592000,6.354592041015625,-0.41722095012664795,-0.1319468915462494,-0.012217304669320583
1732873435708580400,6.364580322265625,-0.3695734739303589,-0.09346238523721695,0.02687807008624077
1732873435718581000,6.3745810546875,-0.3335324227809906,-0.022602014243602753,0.060475658625364304
1732873435728569300,6.3845693359375,-0.3072652220726013,0.05742133408784866,0.07391469180583954
1732873435738600700,6.3946005859375,-0.28466320037841797,0.1270599663257599,0.060475658625364304
1732873435748558300,6.404558349609375,-0.23640485107898712,0.1411098688840866,0.03481931984424591
1732873435758589400,6.41458935546875,-0.1563815027475357,0.1459967941045761,-0.005497787147760391
1732873435768577800,6.424577880859375,-0.14294247329235077,0.12461651116609573,0
1732873435778578400,6.434578369140625,-0.13072516024112701,0.13255776464939117,0.019547687843441963
1732873435788567000,6.444567138671875,-0.12095131725072861,0.12950342893600464,0.05314527451992035
1732873435798598100,6.45459814453125,-0.11178833991289139,0.09957103431224823,0.11728613078594208
1732873435808556000,6.46455615234375,-0.1014036312699318,0.09285151958465576,0.17531833052635193
1732873435818587100,6.474587158203125,-0.06841690838336945,0.08552113175392151,0.2064724564552307
1732873435828575500,6.484575439453125,-0.03787364438176155,-0.00855211354792118,0.1814269721508026
1732873435838576600,6.49457666015625,-0.021380282938480377,-0.1111774742603302,0.12095131725072861
1732873435848564500,6.504564453125,0.02382374368607998,-0.22479841113090515,0.07391469180583954
1732873435858596000,6.51459619140625,0.06414084881544113,-0.34636059403419495,0.08368854224681854
1732873435868584000,6.524583984375,0.07941248267889023,-0.4502076804637909,0.1722639948129654
1732873435878585000,6.534585205078125,0.06841690838336945,-0.5106833577156067,0.3323107063770294
1732873435888573200,6.5445732421875,0.04214970022439957,-0.5119050741195679,0.5229006409645081
1732873435898604500,6.5546044921875,-0.00733038317412138,-0.3897320330142975,0.7745771408081055
1732873435908562200,6.564562255859375,-0.04214970022439957,-0.24434609711170197,0.901637077331543
1732873435918593500,6.574593505859375,-0.021380282938480377,-0.08368854224681854,0.9773843884468079
1732873435928610000,6.584610107421875,0.018936822190880775,0.048258353024721146,1.0067058801651
1732873435938582500,6.59458251953125,-0.00366519158706069,0.1368338167667389,0.9859365224838257
1732873435948570600,6.604570556640625,-0.036651913076639175,0.17959438264369965,0.9169087409973145
1732873435958601000,6.61460107421875,-0.039706241339445114,0.21441370248794556,0.8148942589759827
1732873435968559600,6.6245595703125,-0.0024434609804302454,0.242513507604599,0.6921103000640869
1732873435978590000,6.63458984375,0.09224065393209457,0.23518311977386475,0.48258355259895325
1732873435988579000,6.6445791015625,0.16249015927314758,0.18936823308467865,0.32131510972976685
1732873435998579000,6.654578857421875,0.2382374405860901,0.1014036312699318,0.13439035415649414
1732873436008568000,6.664568115234375,0.28649580478668213,-0.02626720629632473,-0.07757988572120667
1732873436018600000,6.674599853515625,0.2382374405860901,-0.21074850857257843,-0.2889392673969269
1732873436028557300,6.684557373046875,0.15943582355976105,-0.37079519033432007,-0.48685958981513977
1732873436038589000,6.6945888671875,0.08491026610136032,-0.48319441080093384,-0.6322455406188965
1732873436048576800,6.70457666015625,-0.012828170321881771,-0.5491678714752197,-0.7104362845420837
1732873436058578000,6.714577880859375,-0.04337143152952194,-0.5094616413116455,-0.6609562039375305
1732873436068565500,6.7245654296875,-0.060475658625364304,-0.41172316670417786,-0.5351179838180542
1732873436078597000,6.73459716796875,-0.07513642311096191,-0.2632829248905182,-0.3646865487098694
1732873436088554800,6.7445546875,-0.06841690838336945,-0.09529497474431992,-0.192422553896904
1732873436098585600,6.754585693359375,-0.04764748737215996,0.060475658625364304,-0.04948008432984352
1732873436108574200,6.76457421875,-0.025656340643763542,0.1820378452539444,0.03848451003432274
1732873436118605300,6.774605224609375,0.016493361443281174,0.25595253705978394,0.05925392732024193
1732873436128563500,6.7845634765625,0.025045474991202354,0.22907446324825287,0.015882495790719986
1732873436138594300,6.79459423828125,0.031154127791523933,0.16737708449363708,-0.05497787147760391
1732873436148583000,6.8045830078125,0.039706241339445114,0.08307767659425735,-0.13988813757896423
1732873436158583300,6.814583251953125,0.04703662544488907,0.01466076634824276,-0.22968533635139465
1732873436168571600,6.824571533203125,0.060475658625364304,-0.02382374368607998,-0.313373863697052
1732873436178602800,6.834602783203125,0.07757988572120667,-0.0403171069920063,-0.3793473243713379
1732873436188561000,6.844560791015625,0.09285151958465576,-0.06658431142568588,-0.42638394236564636
1732873436198591700,6.854591796875,0.11789698898792267,-0.08246681094169617,-0.4386012554168701
1732873436208580400,6.864580322265625,0.13561208546161652,-0.08246681094169617,-0.39645153284072876
1732873436218580700,6.874580810546875,0.14049901068210602,-0.07147123664617538,-0.32070425152778625
1732873436228569300,6.8845693359375,0.1258382350206375,-0.04764748737215996,-0.22602014243602753
1732873436238600200,6.89460009765625,0.09834930300712585,-0.028099801391363144,-0.1270599663257599
1732873436248558300,6.904558349609375,0.05803219974040985,-0.03726277872920036,-0.04337143152952194
1732873436258589700,6.914589599609375,0.04214970022439957,-0.06902777403593063,0.01160643994808197
1732873436268577800,6.924577880859375,0.04337143152952194,-0.10995574295520782,0.056810468435287476
1732873436278578400,6.934578369140625,0.04764748737215996,-0.10506882518529892,0.0861319974064827
1732873436288566800,6.94456689453125,0.04764748737215996,-0.06719517707824707,0.12767083942890167
1732873436298598100,6.95459814453125,0.0507018156349659,-0.015271631069481373,0.16920967400074005
1732873436308556000,6.96455615234375,0.04948008432984352,0.0354301854968071,0.19608774781227112
1732873436318587100,6.974587158203125,0.04886921867728233,0.06352998316287994,0.20402899384498596
1732873436328575500,6.984575439453125,0.03726277872920036,0.03848451003432274,0.19364428520202637
1732873436338576000,6.994575927734375,0.042760565876960754,-0.003054326167330146,0.14844025671482086
1732873436348564500,7.004564453125,0.0403171069920063,-0.01710422709584236,0.09468411654233932
1732873436358595600,7.014595703125,0.04092797264456749,-0.00366519158706069,0.022602014243602753
1732873436368584000,7.024583984375,0.03298672288656235,0.030543262138962746,-0.06291911751031876
1732873436378584300,7.034584228515625,0.02382374368607998,0.05619960278272629,-0.14355333149433136
1732873436388573000,7.044572998046875,0.013439035043120384,0.04214970022439957,-0.2070833146572113
1732873436398604000,7.05460400390625,-0.0006108652451075613,-0.00427605677396059,-0.2474004179239273
1732873436408562200,7.064562255859375,-0.009773843921720982,-0.06352998316287994,-0.2681698501110077
1732873436418593500,7.074593505859375,-0.012828170321881771,-0.07513642311096191,-0.2932153046131134
1732873436428582000,7.084581787109375,-0.009162978269159794,-0.005497787147760391,-0.3323107063770294
1732873436438582500,7.09458251953125,-0.019547687843441963,0.06963863968849182,-0.3836233615875244
1732873436448570600,7.104570556640625,-0.06841690838336945,0.09834930300712585,-0.4031710624694824
1732873436458602200,7.114602294921875,-0.1563815027475357,0.03237585723400116,-0.34025195240974426
1732873436468560000,7.124559814453125,-0.2834414839744568,-0.1160643994808197,-0.18631389737129211
1732873436478591500,7.134591552734375,-0.45326200127601624,-0.30543261766433716,0.07513642311096191
1732873436488579000,7.1445791015625,-0.6114761233329773,-0.4599815309047699,0.608421802520752
1732873436498580500,7.15458056640625,-0.5968153476715088,-0.42760565876960754,0.9859365224838257
1732873436508568300,7.164568359375,-0.5650503635406494,-0.30604347586631775,1.3005321025848389
1732873436518599400,7.174599365234375,-0.5400048494338989,-0.14477506279945374,1.482569932937622
1732873436528557300,7.184557373046875,-0.5186246037483215,0.019547687843441963,1.4850133657455444
1732873436538589700,7.194589599609375,-0.49846604466438293,0.1618792861700058,1.2944234609603882
1732873436548577000,7.204576904296875,-0.4911356568336487,0.29016098380088806,0.9138544201850891
1732873436558576600,7.21457666015625,-0.50335294008255,0.39767327904701233,0.08796459436416626
1732873436568566000,7.22456591796875,-0.5375614166259766,0.3787364661693573,-0.4960225820541382
1732873436578597600,7.23459765625,-0.5668829679489136,0.2382374405860901,-0.9773843884468079
1732873436588554800,7.2445546875,-0.5803219676017761,0.025656340643763542,-1.289536476135254
1732873436598584600,7.25458447265625,-0.5766568183898926,-0.1716531366109848,-1.4257594347000122
1732873436608573200,7.2645732421875,-0.5571091175079346,-0.3121521472930908,-1.3854423761367798
1732873436618604800,7.274604736328125,-0.5161811113357544,-0.4080579876899719,-1.1753047704696655
1732873436628562400,7.2845625,-0.4398229718208313,-0.4434881806373596,-0.8362745046615601
1732873436638593800,7.29459375,-0.2938261926174164,-0.342695415019989,-0.21563543379306793
1732873436648582000,7.304581787109375,-0.21991148591041565,-0.19547687470912933,0.1514945775270462
1732873436658583000,7.3145830078125,-0.14355333149433136,-0.039095375686883926,0.38117989897727966
1732873436668571100,7.324571044921875,-0.08124507963657379,0.07269296050071716,0.4703662395477295
1732873436678602000,7.33460205078125,-0.05009094998240471,0.11728613078594208,0.4502076804637909
1732873436688559900,7.344559814453125,-0.04948008432984352,0.13805554807186127,0.3481931984424591
1732873436698591700,7.354591796875,-0.06841690838336945,0.14966198801994324,0.20525072515010834
1732873436708580400,7.364580322265625,-0.09896016865968704,0.12767083942890167,0.022602014243602753
1732873436718581000,7.3745810546875,-0.10445795953273773,0.07757988572120667,-0.025656340643763542
1732873436728569300,7.3845693359375,-0.10323622822761536,0.028099801391363144,-0.013439035043120384
1732873436738600700,7.3946005859375,-0.10323622822761536,0.006719517521560192,0.04092797264456749
1732873436748558300,7.404558349609375,-0.09346238523721695,-0.004886921960860491,0.10873401165008545
1732873436758589200,7.414589111328125,-0.07696902006864548,-0.01038470957428217,0.16310101747512817
1732873436768577800,7.424577880859375,-0.05864306539297104,-0.013439035043120384,0.19975294172763824
1732873436778578200,7.434578125,-0.03787364438176155,-0.001832595793530345,0.2021963894367218
1732873436788566800,7.44456689453125,-0.01771509274840355,0.015271631069481373,0.16004669666290283
1732873436798598000,7.454597900390625,0.0006108652451075613,0.019547687843441963,0.10751228034496307
1732873436808556000,7.46455615234375,0.0012217304902151227,0.021380282938480377,0.07880161702632904
1732873436818587100,7.474587158203125,0.0024434609804302454,0.02626720629632473,0.07513642311096191
1732873436828575700,7.48457568359375,-0.006719517521560192,0.051312681287527084,0.08429940044879913
1732873436838576600,7.49457666015625,-0.012217304669320583,0.12217304855585098,0.09162978827953339
1732873436848564500,7.504564453125,-0.015882495790719986,0.1722639948129654,0.10262536257505417
1732873436858596000,7.51459619140625,-0.00733038317412138,0.24495697021484375,0.10873401165008545
1732873436868584000,7.524583984375,0.006108652334660292,0.2382374405860901,0.08674286305904388
1732873436878585000,7.534585205078125,0.012217304669320583,0.16065755486488342,0.04948008432984352
1732873436888573000,7.544572998046875,0.01466076634824276,0.03481931984424591,0.003054326167330146
1732873436898604500,7.5546044921875,0.01038470957428217,-0.09957103431224823,-0.04337143152952194
1732873436908562200,7.564562255859375,0.009773843921720982,-0.22296582162380219,-0.06414084881544113
1732873436918592800,7.5745927734375,0.02382374368607998,-0.32009339332580566,-0.05742133408784866
1732873436928582000,7.584581787109375,0.05009094998240471,-0.3237585723400116,-0.02382374368607998
1732873436938582000,7.59458203125,0.08368854224681854,-0.24190263450145721,0.005497787147760391
1732873436948570600,7.604570556640625,0.13316862285137177,-0.12767083942890167,0.022602014243602753
1732873436958601700,7.614601806640625,0.1918116807937622,0.013439035043120384,0.018936822190880775
1732873436968559600,7.6245595703125,0.24434609711170197,0.14905111491680145,-0.0507018156349659
1732873436978590000,7.63458984375,0.2669481039047241,0.24068090319633484,-0.1973094791173935
1732873436988579000,7.6445791015625,0.26083946228027344,0.2168571650981903,-0.3701843321323395
1732873436998580000,7.654580078125,0.13988813757896423,-0.1417207419872284,-0.50335294008255
1732873437008568000,7.664568115234375,0.02871066704392433,-0.5167919993400574,-0.43615779280662537
1732873437018599700,7.674599609375,-0.051312681287527084,-0.8912523984909058,-0.17531833052635193
1732873437028557300,7.684557373046875,-0.08246681094169617,-1.1074986457824707,0.26511552929878235
1732873437038588700,7.694588623046875,-0.04764748737215996,-1.084285855293274,0.7605272531509399
1732873437048576800,7.70457666015625,0.01160643994808197,-0.8161159753799438,1.2131783962249756
1732873437058576400,7.714576416015625,0.10262536257505417,-0.36590829491615295,1.5564846992492676
1732873437068565800,7.724565673828125,0.22052235901355743,0.13561208546161652,1.7244726419448853
1732873437078598100,7.73459814453125,0.37629300355911255,0.8032878041267395,1.566258430480957
1732873437088554800,7.7445546875,0.43188172578811646,1.0891727209091187,1.215621829032898
1732873437098587400,7.75458740234375,0.4605923891067505,1.1954632997512817,0.7446447610855103
1732873437108574500,7.764574462890625,0.46792277693748474,1.074512004852295,0.23518311977386475
1732873437118604300,7.774604248046875,0.4355469346046448,0.7648032903671265,-0.25045475363731384
1732873437128563500,7.7845634765625,0.3878994286060333,0.34636059403419495,-0.6670648455619812
1732873437138593500,7.794593505859375,0.3274237811565399,-0.12217304855585098,-0.9950994849205017
1732873437148583000,7.8045830078125,0.20463985204696655,-0.7018841505050659,-1.264491081237793
1732873437158583800,7.814583740234375,0.14233160018920898,-0.9254608750343323,-1.2608258724212646
1732873437168572000,7.824572021484375,0.09834930300712585,-1.0238101482391357,-1.1166616678237915
1732873437178603300,7.834603271484375,0.06475171446800232,-1.0170906782150269,-0.8613200187683105
1732873437188561000,7.844560791015625,0.06291911751031876,-0.8680394887924194,-0.5540547966957092
1732873437198592300,7.85459228515625,0.10445795953273773,-0.5815436840057373,-0.2431243658065796
1732873437208580400,7.864580322265625,0.16859880089759827,-0.2382374405860901,0.04581489413976669
1732873437218581000,7.8745810546875,0.23884831368923187,0.2370157092809677,0.3530801236629486
1732873437228569300,7.8845693359375,0.2565633952617645,0.40072759985923767,0.44715335965156555
1732873437238600400,7.894600341796875,0.23640485107898712,0.4294382631778717,0.45326200127601624
1732873437248558300,7.904558349609375,0.1966986060142517,0.3640756905078888,0.39095374941825867
1732873437258589400,7.91458935546875,0.15332718193531036,0.23335053026676178,0.2791654169559479
1732873437268577800,7.924577880859375,0.11484266817569733,0.0757472887635231,0.13744467496871948
1732873437278578400,7.934578369140625,0.08735372871160507,-0.06841690838336945,-0.009773843921720982
1732873437288567000,7.944567138671875,0.07208210229873657,-0.16065755486488342,-0.1313360333442688
1732873437298598000,7.954597900390625,0.07269296050071716,-0.1918116807937622,-0.21930062770843506
1732873437308556000,7.96455615234375,0.08429940044879913,-0.15515977144241333,-0.21319197118282318
1732873437318587400,7.97458740234375,0.1007927656173706,-0.09834930300712585,-0.16310101747512817
1732873437328575500,7.984575439453125,0.11728613078594208,-0.029932396486401558,-0.08429940044879913
1732873437338576000,7.994575927734375,0.1313360333442688,0.04214970022439957,0.01160643994808197
1732873437348564500,8.004564453125,0.13744467496871948,0.10506882518529892,0.11423180252313614
1732873437358595800,8.014595947265626,0.1417207419872284,0.15271630883216858,0.2064724564552307
1732873437368584200,8.024584228515625,0.12217304855585098,0.1918116807937622,0.2926044464111328
1732873437378584300,8.034584228515625,0.09712757170200348,0.17959438264369965,0.2974913716316223
1732873437388573000,8.044572998046876,0.05803219974040985,0.1313360333442688,0.24862214922904968
1732873437398604000,8.05460400390625,0.016493361443281174,0.05803219974040985,0.16249015927314758
1732873437408562200,8.064562255859375,-0.027488935738801956,-0.03848451003432274,0.06780604273080826
1732873437418593500,8.074593505859376,-0.06230825558304787,-0.13500121235847473,-0.012828170321881771
1732873437428581600,8.08458154296875,-0.09162978827953339,-0.21868975460529327,-0.06841690838336945
1732873437438582800,8.094582763671875,-0.11911872029304504,-0.29016098380088806,-0.0757472887635231
1732873437448571000,8.10457080078125,-0.12278391420841217,-0.2919935882091522,-0.027488935738801956
1732873437458601500,8.1146015625,-0.10445795953273773,-0.2541199326515198,0.03176499158143997
1732873437468560000,8.124559814453125,-0.08552113175392151,-0.18081611394882202,0.05925392732024193
1732873437478590700,8.1345908203125,-0.07330382615327835,-0.10812314599752426,0.03420845419168472
1732873437488579000,8.1445791015625,-0.06841690838336945,-0.03848451003432274,-0.04948008432984352
1732873437498580200,8.154580322265625,-0.07269296050071716,0.018325956538319588,-0.18570303916931152
1732873437508568300,8.164568359375,-0.09651670604944229,0.045204028487205505,-0.3439171314239502
1732873437518599700,8.174599609375,-0.1569923609495163,-0.012828170321881771,-0.5418374538421631
1732873437528557300,8.184557373046875,-0.18325957655906677,-0.1007927656173706,-0.5894849896430969
1732873437538589000,8.1945888671875,-0.1973094791173935,-0.23945917189121246,-0.5161811113357544
1732873437548577000,8.204576904296875,-0.19303341209888458,-0.35063666105270386,-0.28038713335990906
1732873437558578000,8.214577880859375,-0.17959438264369965,-0.3836233615875244,0.10323622822761536
1732873437568566000,8.22456591796875,-0.17043140530586243,-0.2889392673969269,0.5485569834709167
1732873437578597400,8.234597412109375,-0.14355333149433136,-0.11239920556545258,0.9205739498138428
1732873437588554800,8.2445546875,-0.08552113175392151,0.16798794269561768,1.2467759847640991
1732873437598584300,8.254584228515625,-0.07330382615327835,0.3066543638706207,1.2681562900543213
1732873437608573400,8.264573486328125,-0.07452555745840073,0.4043927788734436,1.1264355182647705
1732873437618604300,8.274604248046876,-0.0861319974064827,0.46547931432724,0.8381071090698242
1732873437628562400,8.2845625,-0.11056660860776901,0.46547931432724,0.44593164324760437
1732873437638593500,8.294593505859375,-0.1472185254096985,0.3903428912162781,0.006108652334660292
1732873437648582000,8.304581787109376,-0.19058994948863983,0.24617868661880493,-0.42699480056762695
1732873437658582800,8.314582763671876,-0.26450464129447937,-0.056810468435287476,-0.9224064946174622
1732873437668571100,8.324571044921875,-0.2938261926174164,-0.251676470041275,-1.10139000415802
1732873437678602500,8.3346025390625,-0.29077184200286865,-0.3805690407752991,-1.1539244651794434
1732873437688559900,8.344559814453126,-0.26572638750076294,-0.44287729263305664,-1.06351637840271
1732873437698592300,8.35459228515625,-0.22846360504627228,-0.45326200127601624,-0.8442157506942749
1732873437708580400,8.364580322265626,-0.18325957655906677,-0.3982841372489929,-0.5528330206871033
1732873437718581500,8.37458154296875,-0.1459967941045761,-0.26450464129447937,-0.2376265823841095
1732873437728569300,8.3845693359375,-0.10445795953273773,-0.0861319974064827,0.04764748737215996
1732873437738601000,8.39460107421875,-0.033597588539123535,0.17104226350784302,0.32681289315223694
1732873437748558300,8.404558349609376,-0.001832595793530345,0.26083946228027344,0.42149701714515686
1732873437758589200,8.414589111328125,0.01038470957428217,0.2785545587539673,0.4495968222618103
1732873437768577800,8.424577880859376,0.015882495790719986,0.24862214922904968,0.41661009192466736
1732873437778578200,8.434578125,0.025045474991202354,0.20036379992961884,0.33047810196876526
1732873437788566800,8.44456689453125,0.02932153269648552,0.14844025671482086,0.22113321721553802
1732873437798598000,8.454597900390626,0.03298672288656235,0.1007927656173706,0.1062905490398407
1732873437808556000,8.46455615234375,0.05192354694008827,0.059864792972803116,-0.060475658625364304
1732873437818587000,8.4745869140625,0.0659734457731247,0.06352998316287994,-0.1417207419872284
1732873437828575500,8.484575439453126,0.08368854224681854,0.08124507963657379,-0.19547687470912933
1732873437838575900,8.494575927734376,0.10690141469240189,0.09712757170200348,-0.2321287989616394
1732873437848564500,8.504564453125,0.13072516024112701,0.1014036312699318,-0.2638937830924988
1732873437858596000,8.51459619140625,0.1472185254096985,0.07330382615327835,-0.2932153046131134
1732873437868584000,8.524583984375,0.15515977144241333,0.05742133408784866,-0.3182607889175415
1732873437878585000,8.534585205078125,0.17776179313659668,0.012217304669320583,-0.3378084897994995
1732873437888573200,8.5445732421875,0.18814650177955627,-0.018936822190880775,-0.33536502718925476
1732873437898604500,8.5546044921875,0.1875356286764145,-0.04214970022439957,-0.3127630054950714
1732873437908562200,8.564562255859375,0.1966986060142517,-0.03420845419168472,-0.26083946228027344
1732873437918593500,8.574593505859376,0.2125810980796814,-0.006719517521560192,-0.18081611394882202
1732873437928610000,8.584610107421875,0.23518311977386475,0.02076941914856434,-0.08796459436416626
1732873437938582800,8.594582763671875,0.2583959996700287,0.029932396486401558,-0.0006108652451075613
1732873437948570600,8.604570556640626,0.28588494658470154,0.025045474991202354,0.06658431142568588
1732873437958602200,8.614602294921875,0.32498031854629517,-0.02687807008624077,0.10262536257505417
1732873437968559600,8.6245595703125,0.3445279896259308,-0.06963863968849182,0.07452555745840073
1732873437978590700,8.6345908203125,0.3640756905078888,-0.10812314599752426,0.025045474991202354
1732873437988579000,8.6445791015625,0.3927863538265228,-0.13500121235847473,-0.025656340643763542
1732873437998579500,8.654579345703125,0.41722095012664795,-0.13744467496871948,-0.06902777403593063
1732873438008568000,8.664568115234376,0.43615779280662537,-0.1270599663257599,-0.09285151958465576
1732873438018599200,8.67459912109375,0.4349360466003418,-0.1569923609495163,-0.09651670604944229
1732873438028557300,8.684557373046875,0.3885102868080139,-0.23090706765651703,-0.08246681094169617
1732873438038588400,8.69458837890625,0.35246923565864563,-0.22052235901355743,-0.05375614017248154
1732873438048576800,8.70457666015625,0.31520646810531616,-0.1472185254096985,0.003054326167330146
1732873438058577400,8.714577392578125,0.3078760802745819,-0.04092797264456749,0.06230825558304787
1732873438068565500,8.7245654296875,0.32498031854629517,0.056810468435287476,0.09957103431224823
1732873438078596600,8.7345966796875,0.35246923565864563,0.09407325088977814,0.10567969083786011
1732873438088554800,8.7445546875,0.3732386529445648,0.07941248267889023,0.06536258012056351
1732873438098585600,8.754585693359376,0.40744712948799133,-0.010995574295520782,-0.06963863968849182
1732873438108574500,8.764574462890625,0.4508185386657715,-0.09529497474431992,-0.1875356286764145
1732873438118605800,8.774605712890626,0.49846604466438293,-0.16065755486488342,-0.2993239760398865
1732873438128563200,8.784563232421876,0.5369505286216736,-0.15271630883216858,-0.3683517575263977
1732873438138595000,8.794594970703125,0.5412266254425049,-0.05803219974040985,-0.35063666105270386
1732873438148583000,8.8045830078125,0.5198463201522827,0.09224065393209457,-0.23640485107898712
1732873438158583000,8.8145830078125,0.5088507533073425,0.2620611786842346,-0.06902777403593063
1732873438168571600,8.824571533203125,0.5174028873443604,0.41233405470848083,0.0806342139840126
1732873438178603800,8.834603759765624,0.5467243790626526,0.4966334402561188,0.16554448008537292
1732873438188561000,8.844560791015626,0.5540547966957092,0.4288274049758911,0.08979719132184982
1732873438198591200,8.85459130859375,0.5662720799446106,0.2535090744495392,-0.09712757170200348
1732873438208580400,8.864580322265626,0.6041457056999207,-0.00366519158706069,-0.36713001132011414
1732873438218581500,8.87458154296875,0.6304129362106323,-0.25595253705978394,-0.6615670323371887
1732873438228569600,8.884569580078125,0.598647952079773,-0.5375614166259766,-0.8808676600456238
1732873438238601000,8.89460107421875,0.49235737323760986,-0.8332201838493347,-0.9615018963813782
1732873438248558300,8.904558349609376,0.21380282938480377,-1.1215485334396362,-0.7971791625022888
1732873438258588700,8.914588623046875,0.01771509274840355,-1.1343767642974854,-0.5479460954666138
1732873438268577800,8.924577880859376,-0.13866640627384186,-1.0122036933898926,-0.24129177629947662
1732873438278579000,8.934578857421876,-0.21563543379306793,-0.7367035150527954,0.0708603709936142
1732873438288567000,8.944567138671875,-0.18448130786418915,-0.403781920671463,0.35124751925468445
1732873438298598000,8.954597900390626,-0.09407325088977814,-0.08796459436416626,0.5699372887611389
1732873438308556000,8.96455615234375,-0.00855211354792118,0.19364428520202637,0.7159340381622314
1732873438318587100,8.974587158203125,0.02626720629632473,0.5448917746543884,0.7812966704368591
1732873438328575500,8.984575439453126,-0.019547687843441963,0.7257078886032104,0.7373143434524536
1732873438338576000,8.994575927734376,-0.06291911751031876,0.7721336483955383,0.637132465839386
1732873438348564500,9.004564453125,-0.06230825558304787,0.6493497490882874,0.48685958981513977
1732873438358595600,9.014595703125,-0.001832595793530345,0.44226643443107605,0.31581732630729675
1732873438368584200,9.024584228515625,0.027488935738801956,0.2125810980796814,0.20463985204696655
1732873438378584600,9.03458447265625,-0.033597588539123535,-0.03420845419168472,0.18631389737129211
1732873438388573000,9.044572998046876,-0.14782938361167908,-0.19547687470912933,0.24129177629947662
1732873438398606300,9.0546064453125,-0.10812314599752426,0.001832595793530345,0.1918116807937622
1732873438408562200,9.064562255859375,0.021991148591041565,0.32681289315223694,-0.021380282938480377
1732873438418592300,9.07459228515625,0.1472185254096985,0.5540547966957092,-0.27000242471694946
1732873438428581600,9.08458154296875,0.26083946228027344,0.588263213634491,-0.4440990388393402
1732873438438581500,9.09458154296875,0.323147714138031,0.3628539443016052,-0.4642575979232788
1732873438448571000,9.10457080078125,0.34697145223617554,0.0555887371301651,-0.3805690407752991
1732873438458601000,9.11460107421875,0.35552358627319336,-0.2767219543457031,-0.2620611786842346
1732873438468559600,9.1245595703125,0.32559117674827576,-0.7544185519218445,-0.15577064454555511
1732873438478590000,9.13458984375,0.22113321721553802,-0.9059131741523743,-0.1771509200334549
1732873438488579300,9.144579345703125,0.1313360333442688,-0.8124507665634155,-0.3182607889175415
1732873438498580200,9.154580322265625,0.08429940044879913,-0.49846604466438293,-0.513126790523529
1732873438508568300,9.164568359375,0.031154127791523933,-0.16920967400074005,-0.5858197808265686
1732873438518598700,9.1745986328125,-0.04092797264456749,0.02932153269648552,-0.47342056035995483
1732873438528557300,9.184557373046875,-0.1270599663257599,0.09224065393209457,-0.2278527319431305
1732873438538587600,9.194587646484376,-0.17531833052635193,-0.060475658625364304,0.25473082065582275
1732873438548577000,9.204576904296875,-0.16737708449363708,-0.20341812074184418,0.5119050741195679
1732873438558576600,9.21457666015625,-0.152105450630188,-0.2681698501110077,0.6017022728919983
1732873438568565800,9.224565673828126,-0.11239920556545258,-0.26022860407829285,0.5448917746543884
1732873438578596400,9.234596435546875,-0.039706241339445114,-0.18875735998153687,0.3604104816913605
1732873438588554800,9.2445546875,-0.00366519158706069,-0.06780604273080826,0.07513642311096191
1732873438598584600,9.25458447265625,-0.03726277872920036,0.051312681287527084,-0.2577851414680481
1732873438608573200,9.2645732421875,-0.13439035415649414,0.12522737681865692,-0.5638286471366882
1732873438618604800,9.274604736328126,-0.3604104816913605,0.07452555745840073,-0.7635815739631653
1732873438628562200,9.284562255859376,-0.5155702829360962,-0.07391469180583954,-0.7391469478607178
1732873438638593800,9.29459375,-0.627358615398407,-0.2632829248905182,-0.6224716901779175
1732873438648582000,9.304581787109376,-0.7092145681381226,-0.48380526900291443,-0.4605923891067505
1732873438658583000,9.3145830078125,-0.759916365146637,-0.616973876953125,-0.33719760179519653
1732873438668571100,9.324571044921875,-0.8087855577468872,-0.588263213634491,-0.2565633952617645
1732873438678602200,9.334602294921876,-0.808174729347229,-0.4349360466003418,-0.19975294172763824
1732873438688560000,9.34456005859375,-0.6792821288108826,-0.07024950534105301,-0.12767083942890167
1732873438698591700,9.354591796875,-0.5821545720100403,0.1722639948129654,-0.11911872029304504
1732873438708580400,9.364580322265626,-0.49235737323760986,0.40683624148368835,-0.15943582355976105
1732873438718581500,9.37458154296875,-0.39217549562454224,0.5259549617767334,-0.19792033731937408
1732873438728569300,9.3845693359375,-0.2724458873271942,0.4648684561252594,-0.2223549485206604
1732873438738601000,9.39460107421875,-0.1466076523065567,0.25534167885780334,-0.2791654169559479
1732873438748558300,9.404558349609376,-0.0659734457731247,0.030543262138962746,-0.3799581825733185
1732873438758590000,9.41458984375,-0.04948008432984352,-0.1111774742603302,-0.4489859640598297
1732873438768577800,9.424577880859376,-0.10751228034496307,-0.042760565876960754,-0.39217549562454224
1732873438778579000,9.434578857421876,-0.19792033731937408,0.07024950534105301,-0.23396138846874237
1732873438788567000,9.444567138671875,-0.3090978264808655,0.11056660860776901,0.02626720629632473
1732873438798598700,9.4545986328125,-0.44593164324760437,0.0507018156349659,0.32009339332580566
1732873438808556000,9.46455615234375,-0.5729916095733643,-0.10262536257505417,0.5613851547241211
1732873438818587600,9.474587646484375,-0.665232241153717,-0.3225368559360504,0.675616979598999
1732873438828575500,9.484575439453126,-0.7293730974197388,-0.5222898125648499,0.6499606370925903
1732873438838577000,9.494576904296874,-0.7770205736160278,-0.655458390712738,0.4086688458919525
1732873438848564500,9.504564453125,-0.7727445363998413,-0.6719517707824707,0.1722639948129654
1732873438858595800,9.514595947265626,-0.759916365146637,-0.6499606370925903,-0.056810468435287476
1732873438868584200,9.524584228515625,-0.7617489695549011,-0.5546656250953674,-0.2119702398777008
1732873438878583800,9.534583740234375,-0.7745771408081055,-0.35185837745666504,-0.2816088795661926
1732873438888573000,9.544572998046876,-0.7751879692077637,-0.09651670604944229,-0.24923302233219147
1732873438898603800,9.554603759765625,-0.7367035150527954,0.12217304855585098,-0.12278391420841217
1732873438908562200,9.564562255859375,-0.617584764957428,0.28955012559890747,0.18570303916931152
1732873438918592300,9.57459228515625,-0.5338962078094482,0.28527405858039856,0.38117989897727966
1732873438928582000,9.584581787109375,-0.4337143301963806,0.21013765037059784,0.47708576917648315
1732873438938582000,9.59458203125,-0.33658674359321594,0.08979719132184982,0.43615779280662537
1732873438948570600,9.604570556640626,-0.22968533635139465,-0.060475658625364304,0.28466320037841797
1732873438958601500,9.6146015625,-0.15393804013729095,-0.20586158335208893,0.04153883829712868
1732873438968559600,9.6245595703125,-0.14233160018920898,-0.28099802136421204,-0.2583959996700287
1732873438978591200,9.63459130859375,-0.25595253705978394,-0.13072516024112701,-0.6359107494354248
1732873438988579000,9.6445791015625,-0.3243694305419922,0.05375614017248154,-0.7086036801338196
1732873438998580200,9.654580322265625,-0.36590829491615295,0.251676470041275,-0.6530149579048157
1732873439008568300,9.664568359375,-0.37568211555480957,0.43799036741256714,-0.5180137157440186
1732873439018599700,9.674599609375,-0.34513887763023376,0.5699372887611389,-0.3543018400669098
1732873439028557300,9.684557373046875,-0.28588494658470154,0.6579018831253052,-0.1966986060142517
1732873439038589000,9.6945888671875,-0.22357667982578278,0.7006624341011047,-0.05925392732024193
1732873439048576800,9.70457666015625,-0.16554448008537292,0.7153232097625732,0.01466076634824276
1732873439058578000,9.714577880859375,-0.08735372871160507,0.7232644557952881,0.02687807008624077
1732873439068565500,9.7245654296875,-0.04153883829712868,0.7269296646118164,0.005497787147760391
1732873439078597000,9.73459716796875,-0.013439035043120384,0.7629706859588623,-0.033597588539123535
1732873439088554800,9.7445546875,-0.04337143152952194,0.8582656979560852,-0.07208210229873657
1732873439098586400,9.75458642578125,-0.13988813757896423,1.0140362977981567,-0.07696902006864548
1732873439108574500,9.764574462890625,-0.2620611786842346,1.1258246898651123,-0.04459316283464432
1732873439118605800,9.774605712890626,-0.3787364661693573,1.1301007270812988,0.00427605677396059
1732873439128563500,9.7845634765625,-0.4807509481906891,0.9065240025520325,0.10506882518529892
1732873439138593300,9.79459326171875,-0.47769662737846375,0.5943718552589417,0.18020524084568024
1732873439148583000,9.8045830078125,-0.4147774875164032,0.16493362188339233,0.23396138846874237
1732873439158582800,9.814582763671876,-0.31581732630729675,-0.23518311977386475,0.2278527319431305
1732873439168572000,9.824572021484375,-0.2119702398777008,-0.5564982295036316,0.18570303916931152
1732873439178602200,9.834602294921876,-0.12522737681865692,-0.7800748944282532,0.16554448008537292
1732873439188561000,9.844560791015626,-0.0659734457731247,-0.8594874143600464,0.17043140530586243
1732873439198592300,9.85459228515625,-0.05619960278272629,-0.6762278079986572,0.19792033731937408
1732873439208580400,9.864580322265626,-0.07147123664617538,-0.3982841372489929,0.19792033731937408
1732873439218581200,9.874581298828126,-0.08979719132184982,-0.07635815441608429,0.1722639948129654
1732873439228569600,9.884569580078125,-0.10018189996480942,0.19058994948863983,0.1215621829032898
1732873439238601000,9.89460107421875,-0.1007927656173706,0.33597588539123535,0.039706241339445114
1732873439248558300,9.904558349609376,-0.10751228034496307,0.3396410644054413,-0.06169738993048668
1732873439258590200,9.914590087890625,-0.12400564551353455,0.22907446324825287,-0.1459967941045761
1732873439268577800,9.924577880859376,-0.13805554807186127,0.039706241339445114,-0.19853121042251587
1732873439278579000,9.934578857421876,-0.16920967400074005,-0.2535090744495392,-0.2217440903186798
1732873439288567000,9.944567138671875,-0.2064724564552307,-0.36224308609962463,-0.20952677726745605
1732873439298598700,9.9545986328125,-0.2571742534637451,-0.3604104816913605,-0.17898350954055786
1732873439308556000,9.96455615234375,-0.2981022298336029,-0.27611109614372253,-0.14782938361167908
1732873439318587600,9.974587646484375,-0.31031954288482666,-0.1765400618314743,-0.1258382350206375
1732873439328575500,9.984575439453126,-0.2889392673969269,-0.1258382350206375,-0.1062905490398407
1732873439338575400,9.994575439453126,-0.22846360504627228,-0.15271630883216858,-0.09224065393209457
1732873439348564500,10.004564453125,-0.09529497474431992,-0.30970868468284607,-0.0861319974064827
1732873439358596000,10.01459619140625,-0.015882495790719986,-0.4202753007411957,-0.08124507963657379
1732873439368584200,10.024584228515625,0.03176499158143997,-0.47219884395599365,-0.06230825558304787
1732873439378585000,10.034585205078125,0.039095375686883926,-0.4709770977497101,-0.022602014243602753
1732873439388573000,10.044572998046876,0.02076941914856434,-0.44654250144958496,0.015882495790719986
1732873439398604800,10.054604736328125,-0.0006108652451075613,-0.4031710624694824,0.03848451003432274
1732873439408562200,10.064562255859375,-0.01160643994808197,-0.3335324227809906,0.056810468435287476
1732873439418593500,10.074593505859376,-0.01771509274840355,-0.19975294172763824,0.10873401165008545
1732873439428581600,10.08458154296875,0.001832595793530345,-0.14049901068210602,0.1472185254096985
1732873439438582800,10.094582763671875,0.04337143152952194,-0.12339477986097336,0.16920967400074005
1732873439448571000,10.10457080078125,0.10323622822761536,-0.1716531366109848,0.16004669666290283
1732873439458602200,10.114602294921875,0.1661553531885147,-0.2474004179239273,0.10812314599752426
1732873439468560000,10.124559814453125,0.20525072515010834,-0.3188716471195221,0.003054326167330146
1732873439478591200,10.13459130859375,0.2119702398777008,-0.39095374941825867,-0.12889257073402405
1732873439488579000,10.1445791015625,0.18997909128665924,-0.4495968222618103,-0.24923302233219147
1732873439498580200,10.154580322265625,0.1313360333442688,-0.5070181488990784,-0.3738495409488678
1732873439508568300,10.164568359375,0.10201449692249298,-0.49785518646240234,-0.43188172578811646
1732873439518599700,10.174599609375,0.1062905490398407,-0.44104471802711487,-0.5094616413116455
1732873439528557600,10.1845576171875,0.152105450630188,-0.3683517575263977,-0.637132465839386
1732873439538589000,10.1945888671875,0.22357667982578278,-0.31642818450927734,-0.8093964457511902
1732873439548577000,10.204576904296875,0.25534167885780334,-0.2834414839744568,-0.9547823667526245
1732873439558578000,10.214577880859375,0.2015855312347412,-0.24007004499435425,-0.9993755221366882
1732873439568566000,10.22456591796875,-0.08124507963657379,-0.06291911751031876,-0.8344419002532959
1732873439578597600,10.23459765625,-0.36529740691185,-0.045204028487205505,-0.5375614166259766
1732873439588554800,10.2445546875,-0.6065891981124878,-0.08368854224681854,-0.09529497474431992
1732873439598585000,10.254585205078126,-0.7434229850769043,-0.152105450630188,0.3897320330142975
1732873439608573400,10.264573486328125,-0.7470881938934326,-0.16249015927314758,0.8020660877227783
1732873439618603800,10.274603759765625,-0.6414085030555725,-0.06902777403593063,1.045190453529358
1732873439628562400,10.2845625,-0.4648684561252594,0.02871066704392433,1.073290228843689
1732873439638594800,10.2945947265625,-0.08185594528913498,0.21013765037059784,0.7202101349830627
1732873439648582000,10.304581787109376,0.17348572611808777,0.2840523421764374,0.32986724376678467
1732873439658581800,10.314581787109375,0.3494149148464203,0.252287358045578,-0.08002334833145142
1732873439668571100,10.324571044921875,0.4294382631778717,0.16065755486488342,-0.38240164518356323
1732873439678602800,10.334602783203126,0.41111230850219727,0.06963863968849182,-0.48808133602142334
1732873439688560000,10.34456005859375,0.30970868468284607,0.012217304669320583,-0.38728857040405273
1732873439698592300,10.35459228515625,0.1814269721508026,-0.04459316283464432,-0.13805554807186127
1732873439708580400,10.364580322265626,0.0555887371301651,-0.12217304855585098,0.17592918872833252
1732873439718579700,10.374579833984376,-0.06352998316287994,-0.22846360504627228,0.5607742667198181
1732873439728569300,10.3845693359375,-0.03176499158143997,-0.21930062770843506,0.645684540271759
1732873439738599700,10.394599609375,0.08368854224681854,-0.16859880089759827,0.5827654600143433
1732873439748558300,10.404558349609376,0.24190263450145721,-0.13439035415649414,0.4288274049758911
1732873439758588700,10.414588623046875,0.3903428912162781,-0.11972958594560623,0.23396138846874237
1732873439768577800,10.424577880859376,0.4862487316131592,-0.0861319974064827,0.04337143152952194
1732873439778579200,10.4345791015625,0.5283984541893005,-0.04153883829712868,-0.10384709388017654
1732873439788567000,10.444567138671875,0.5424483418464661,-0.029932396486401558,-0.2583959996700287
1732873439798598700,10.4545986328125,0.5412266254425049,-0.04214970022439957,-0.34697145223617554
1732873439808556000,10.46455615234375,0.5106833577156067,-0.08002334833145142,-0.40683624148368835
1732873439818587600,10.474587646484375,0.44104471802711487,-0.14355333149433136,-0.4098905920982361
1732873439828575500,10.484575439453126,0.3341432809829712,-0.22479841113090515,-0.3481931984424591
1732873439838576600,10.49457666015625,0.21380282938480377,-0.2981022298336029,-0.242513507604599
1732873439848564700,10.504564697265625,0.1111774742603302,-0.35552358627319336,-0.12034045159816742
1732873439858596000,10.51459619140625,0.04153883829712868,-0.3854559659957886,0.045204028487205505
1732873439868584200,10.524584228515625,0.001832595793530345,-0.37140607833862305,0.11728613078594208
1732873439878585300,10.53458544921875,-0.007941247895359993,-0.323147714138031,0.1618792861700058
1732873439888573000,10.544572998046876,-0.02076941914856434,-0.24617868661880493,0.17837265133857727
1732873439898604500,10.5546044921875,-0.0507018156349659,-0.15882496535778046,0.1716531366109848
1732873439908562200,10.564562255859375,-0.07513642311096191,-0.08124507963657379,0.1563815027475357
1732873439918593300,10.57459326171875,-0.09040805697441101,-0.01160643994808197,0.13255776464939117
1732873439928609800,10.58460986328125,-0.12095131725072861,0.06475171446800232,0.10323622822761536
1732873439938582800,10.594582763671875,-0.18936823308467865,0.1313360333442688,0.06658431142568588
1732873439948570600,10.604570556640626,-0.25106561183929443,0.1007927656173706,0.042760565876960754
1732873439958602500,10.6146025390625,-0.3335324227809906,0.01771509274840355,0.014049900695681572
1732873439968559900,10.624559814453125,-0.40622538328170776,-0.07635815441608429,-0.01710422709584236
1732873439978591500,10.634591552734374,-0.4306600093841553,-0.1264491081237793,-0.04398229718208313
1732873439988579000,10.6445791015625,-0.39767327904701233,-0.12400564551353455,-0.05192354694008827
1732873439998580200,10.654580322265625,-0.3176499307155609,-0.07880161702632904,-0.04214970022439957
1732873440008568300,10.664568359375,-0.18325957655906677,0.02382374368607998,-0.03848451003432274
1732873440018600000,10.674599853515625,-0.14233160018920898,0.08796459436416626,-0.05375614017248154
1732873440028557300,10.684557373046875,-0.1466076523065567,0.1417207419872284,-0.0806342139840126
1732873440038589000,10.6945888671875,-0.1820378452539444,0.20036379992961884,-0.1160643994808197
1732873440048576800,10.70457666015625,-0.2217440903186798,0.27611109614372253,-0.16859880089759827
1732873440058577700,10.71457763671875,-0.25106561183929443,0.36224308609962463,-0.2321287989616394
1732873440068565500,10.7245654296875,-0.26939156651496887,0.42760565876960754,-0.2877175211906433
1732873440078597000,10.73459716796875,-0.29016098380088806,0.4202753007411957,-0.30054569244384766
1732873440088554800,10.7445546875,-0.3591887652873993,0.2626720666885376,-0.16065755486488342
1732873440098586400,10.75458642578125,-0.4202753007411957,0.08429940044879913,0.04153883829712868
1732873440108574200,10.76457421875,-0.48197266459465027,-0.07208210229873657,0.29504790902137756
1732873440118605800,10.774605712890626,-0.5216789245605469,-0.13988813757896423,0.5155702829360962
1732873440128563500,10.7845634765625,-0.5271766781806946,-0.10018189996480942,0.6389650702476501
1732873440138595000,10.794594970703125,-0.49296826124191284,0.00427605677396059,0.6688974499702454
1732873440148582700,10.804582763671876,-0.4202753007411957,0.11850785464048386,0.6120869517326355
1732873440158583800,10.814583740234376,-0.2785545587539673,0.3176499307155609,0.37568211555480957
1732873440168571600,10.824571533203125,-0.17592918872833252,0.3701843321323395,0.1667662113904953
1732873440178603300,10.834603271484376,-0.10506882518529892,0.3225368559360504,-0.03298672288656235
1732873440188561000,10.844560791015626,-0.07330382615327835,0.20463985204696655,-0.1820378452539444
1732873440198592300,10.85459228515625,-0.10384709388017654,0.027488935738801956,-0.24862214922904968
1732873440208580600,10.86458056640625,-0.18875735998153687,-0.1514945775270462,-0.2431243658065796
1732873440218581200,10.874581298828126,-0.31093040108680725,-0.2816088795661926,-0.17348572611808777
1732873440228569600,10.884569580078125,-0.485027015209198,-0.3781255781650543,0.015271631069481373
1732873440238601200,10.894601318359374,-0.5564982295036316,-0.3830125033855438,0.1466076523065567
1732873440248558600,10.90455859375,-0.5650503635406494,-0.3433062732219696,0.23151792585849762
1732873440258590200,10.914590087890625,-0.5192354321479797,-0.2773328125476837,0.2626720666885376
1732873440268577800,10.924577880859376,-0.4495968222618103,-0.20402899384498596,0.2687807083129883
1732873440278579200,10.9345791015625,-0.35735616087913513,-0.1368338167667389,0.28955012559890747
1732873440288566800,10.94456689453125,-0.26572638750076294,-0.08002334833145142,0.31642818450927734
1732873440298598400,10.954598388671876,-0.19792033731937408,-0.028099801391363144,0.34513887763023376
1732873440308556000,10.96455615234375,-0.16859880089759827,0.02015855349600315,0.35735616087913513
1732873440318587000,10.9745869140625,-0.16249015927314758,0.04214970022439957,0.31093040108680725
1732873440328575500,10.984575439453126,-0.1459967941045761,0.039095375686883926,0.21624629199504852
1732873440338575600,10.99457568359375,-0.11728613078594208,0.01038470957428217,0.08368854224681854
1732873440348564700,11.004564697265625,-0.07635815441608429,-0.03420845419168472,-0.06536258012056351
1732873440358596000,11.01459619140625,-0.024434609338641167,-0.05253441259264946,-0.20036379992961884
1732873440368584200,11.024584228515625,0.033597588539123535,-0.030543262138962746,-0.29504790902137756
1732873440378585000,11.034585205078125,0.10812314599752426,0.01710422709584236,-0.32498031854629517
1732873440388573000,11.044572998046876,0.14355333149433136,0.02932153269648552,-0.2840523421764374
1732873440398604800,11.054604736328125,0.1618792861700058,0.03848451003432274,-0.22113321721553802
1732873440408562200,11.064562255859375,0.1368338167667389,0.02382374368607998,-0.1264491081237793
1732873440418593800,11.07459375,0.09285151958465576,-0.014049900695681572,-0.007941247895359993
1732873440428582000,11.084581787109375,0.045204028487205505,-0.04581489413976669,0.10262536257505417
1732873440438582800,11.094582763671875,-0.001832595793530345,-0.06169738993048668,0.1722639948129654
1732873440448571000,11.10457080078125,0.009773843921720982,-0.07635815441608429,0.15821409225463867
1732873440458602200,11.114602294921875,0.07269296050071716,-0.08796459436416626,0.0555887371301651
1732873440468560000,11.124559814453125,0.16004669666290283,-0.1007927656173706,-0.11545353382825851
1732873440478591500,11.134591552734374,0.24984388053417206,-0.12889257073402405,-0.3084869384765625
1732873440488579300,11.144579345703125,0.31642818450927734,-0.20891591906547546,-0.45692721009254456
1732873440498580000,11.154580078125,0.32559117674827576,-0.32131510972976685,-0.5125159621238708
1732873440508568300,11.164568359375,0.27122417092323303,-0.4453207552433014,-0.45326200127601624
1732873440518600000,11.174599853515625,0.1771509200334549,-0.5393940210342407,-0.3029891550540924
1732873440528557300,11.184557373046875,0.048258353024721146,-0.5247332453727722,-0.06475171446800232
1732873440538589000,11.1945888671875,0.0354301854968071,-0.39645153284072876,0.00855211354792118
1732873440548577000,11.204576904296875,0.09834930300712585,-0.1771509200334549,-0.036651913076639175
1732873440558577400,11.214577392578125,0.1918116807937622,0.060475658625364304,-0.16371189057826996
1732873440568565800,11.224565673828126,0.2840523421764374,0.1973094791173935,-0.3017674386501312
1732873440578596600,11.2345966796875,0.32070425152778625,0.18081611394882202,-0.3787364661693573
1732873440588554800,11.2445546875,0.25961771607398987,0.0403171069920063,-0.3323107063770294
1732873440598584000,11.254583984375,0.01771509274840355,-0.24068090319633484,0.013439035043120384
1732873440608573200,11.2645732421875,-0.18509216606616974,-0.34208452701568604,0.3530801236629486
1732873440618604300,11.274604248046876,-0.37568211555480957,-0.31581732630729675,0.6762278079986572
1732873440628562200,11.284562255859376,-0.5247332453727722,-0.19425514340400696,0.9077457785606384
1732873440638592800,11.2945927734375,-0.6261368989944458,-0.04581489413976669,1.0311405658721924
1732873440648582000,11.304581787109376,-0.6664539575576782,0.054367005825042725,1.0427470207214355
1732873440658584000,11.314583984375,-0.6291912198066711,0.07330382615327835,0.940732479095459
1732873440668571100,11.324571044921875,-0.44837507605552673,0,0.608421802520752
1732873440678603300,11.334603271484376,-0.2736676335334778,-0.08918632566928864,0.33719760179519653
1732873440688560000,11.34456005859375,-0.08124507963657379,-0.19608774781227112,0.08552113175392151
1732873440698591200,11.35459130859375,0.12095131725072861,-0.2620611786842346,-0.12095131725072861
1732873440708580400,11.364580322265626,0.30970868468284607,-0.2370157092809677,-0.26939156651496887
1732873440718581500,11.37458154296875,0.4642575979232788,-0.1313360333442688,-0.3488040566444397
1732873440728569300,11.3845693359375,0.5607742667198181,0.015882495790719986,-0.37079519033432007
1732873440738601000,11.39460107421875,0.6047565937042236,0.16065755486488342,-0.37079519033432007
1732873440748558600,11.40455859375,0.5864306092262268,0.3445279896259308,-0.3995058834552765
1732873440758590200,11.414590087890625,0.5308418869972229,0.43737950921058655,-0.4660901725292206
1732873440768577800,11.424577880859376,0.46670106053352356,0.49724429845809937,-0.5778785347938538
1732873440778579000,11.434578857421876,0.4105014503002167,0.5057964324951172,-0.7122688889503479
1732873440788567000,11.444567138671875,0.36102136969566345,0.46731191873550415,-0.8411614298820496
1732873440798598700,11.4545986328125,0.29565876722335815,0.3903428912162781,-0.9279043078422546
1732873440808556000,11.46455615234375,0.19975294172763824,0.25595253705978394,-0.9376781582832336
1732873440818587400,11.47458740234375,-0.014049900695681572,0.02076941914856434,-0.788016140460968
1732873440828575500,11.484575439453126,-0.17104226350784302,-0.11728613078594208,-0.588874101638794
1732873440838576600,11.49457666015625,-0.31520646810531616,-0.21380282938480377,-0.3433062732219696
1732873440848564700,11.504564697265625,-0.42149701714515686,-0.25534167885780334,-0.10201449692249298
1732873440858596400,11.514596435546874,-0.485027015209198,-0.2217440903186798,0.08796459436416626
1732873440868584200,11.524584228515625,-0.5119050741195679,-0.1270599663257599,0.2021963894367218
1732873440878585300,11.53458544921875,-0.5210680365562439,0.009773843921720982,0.2718350291252136
1732873440888573000,11.544572998046876,-0.5210680365562439,0.1508837193250656,0.38117989897727966
1732873440898604800,11.554604736328125,-0.5412266254425049,0.14294247329235077,0.46731191873550415
1732873440908562200,11.564562255859375,-0.5754350423812866,0.07635815441608429,0.5406157374382019
1732873440918593800,11.57459375,-0.607810914516449,-0.016493361443281174,0.5815436840057373
1732873440928581600,11.58458154296875,-0.6322455406188965,-0.09773843735456467,0.5913175344467163
1732873440938581500,11.59458154296875,-0.6334672570228577,-0.15271630883216858,0.5736024379730225
1732873440948570600,11.604570556640626,-0.6188064813613892,-0.192422553896904,0.5277875661849976
1732873440958602200,11.614602294921875,-0.5803219676017761,-0.1973094791173935,0.4538728892803192
1732873440968559600,11.6245595703125,-0.48380526900291443,-0.14782938361167908,0.32070425152778625
1732873440978591500,11.634591552734374,-0.41722095012664795,-0.08857546001672745,0.22663100063800812
1732873440988579000,11.6445791015625,-0.3836233615875244,-0.045204028487205505,0.13805554807186127
1732873440998580500,11.65458056640625,-0.39584067463874817,-0.03176499158143997,0.06719517707824707
1732873441008568300,11.664568359375,-0.4337143301963806,-0.06963863968849182,0.025045474991202354
1732873441018599700,11.674599609375,-0.4758640229701996,-0.1563815027475357,0.003054326167330146
1732873441028557300,11.684557373046875,-0.47769662737846375,-0.23335053026676178,-0.02015855349600315
1732873441038589000,11.6945888671875,-0.38606682419776917,-0.24129177629947662,-0.09773843735456467
1732873441048576800,11.70457666015625,-0.28527405858039856,-0.17287486791610718,-0.15271630883216858
1732873441058578200,11.714578125,-0.16371189057826996,-0.07819075137376785,-0.19547687470912933
1732873441068565800,11.724565673828126,-0.04642575979232788,0.009162978269159794,-0.22418753802776337
1732873441078597000,11.73459716796875,0.03176499158143997,0.039706241339445114,-0.20586158335208893
1732873441088554800,11.7445546875,0.03298672288656235,-0.015882495790719986,-0.11484266817569733
1732873441098586400,11.75458642578125,-0.04642575979232788,-0.13561208546161652,0.03420845419168472
1732873441108574200,11.76457421875,-0.24434609711170197,-0.28955012559890747,0.2779437005519867
1732873441118605800,11.774605712890626,-0.3683517575263977,-0.33108896017074585,0.3891211748123169
1732873441128563200,11.784563232421876,-0.46853363513946533,-0.33475416898727417,0.4294382631778717
1732873441138595000,11.794594970703125,-0.5351179838180542,-0.3194825351238251,0.41172316670417786
1732873441148582700,11.804582763671876,-0.523511528968811,-0.31031954288482666,0.3335324227809906
1732873441158582500,11.81458251953125,-0.43188172578811646,-0.2974913716316223,0.19547687470912933
1732873441168571600,11.824571533203125,-0.2736676335334778,-0.2840523421764374,0.01466076634824276
1732873441178602200,11.834602294921876,-0.08735372871160507,-0.26450464129447937,-0.1814269721508026
1732873441188561000,11.844560791015626,0.16004669666290283,-0.1918116807937622,-0.42638394236564636
1732873441198592300,11.85459228515625,0.23090706765651703,-0.15027284622192383,-0.49296826124191284
1732873441208580400,11.864580322265626,0.2278527319431305,-0.1215621829032898,-0.48380526900291443
1732873441218581200,11.874581298828126,0.18814650177955627,-0.10445795953273773,-0.41722095012664795
1732873441228569300,11.8845693359375,0.1313360333442688,-0.0861319974064827,-0.3194825351238251
1732873441238601000,11.89460107421875,0.07635815441608429,-0.04886921867728233,-0.2070833146572113
1732873441248558300,11.904558349609376,0.039706241339445114,0.001832595793530345,-0.10690141469240189
1732873441258590200,11.914590087890625,0.042760565876960754,0.08368854224681854,-0.016493361443281174
1732873441268577800,11.924577880859376,0.07452555745840073,0.1313360333442688,0.006108652334660292
1732873441278579000,11.934578857421876,0.11667526513338089,0.15943582355976105,0.021380282938480377
1732873441288567000,11.944567138671875,0.1417207419872284,0.15515977144241333,0.03787364438176155
1732873441298598400,11.954598388671876,0.13927727937698364,0.1264491081237793,0.06841690838336945
1732873441308556000,11.96455615234375,0.10812314599752426,0.08918632566928864,0.10751228034496307
1732873441318587100,11.974587158203125,0.06352998316287994,0.05253441259264946,0.1472185254096985
1732873441328575500,11.984575439453126,0.01466076634824276,0.02076941914856434,0.17043140530586243
1732873441338576400,11.994576416015626,0.013439035043120384,0.019547687843441963,0.13805554807186127
1732873441348564700,12.004564697265625,0.039095375686883926,0.031154127791523933,0.05925392732024193
1732873441358596000,12.01459619140625,0.08307767659425735,0.03787364438176155,-0.05375614017248154
1732873441368584200,12.024584228515625,0.14966198801994324,0.01160643994808197,-0.17470745742321014
1732873441378585000,12.034585205078125,0.22540926933288574,-0.04092797264456749,-0.28038713335990906
1732873441388573000,12.044572998046876,0.2926044464111328,-0.09224065393209457,-0.3488040566444397
1732873441398604800,12.054604736328125,0.33169981837272644,-0.12828169763088226,-0.3683517575263977
1732873441408562200,12.064562255859375,0.3237585723400116,-0.14477506279945374,-0.31642818450927734
1732873441418593500,12.074593505859376,0.2724458873271942,-0.1368338167667389,-0.2571742534637451
1732873441428582000,12.084581787109375,0.20036379992961884,-0.12339477986097336,-0.20402899384498596
1732873441438582800,12.094582763671875,0.12522737681865692,-0.10018189996480942,-0.17592918872833252
1732873441448570600,12.104570556640626,0.06414084881544113,-0.0757472887635231,-0.1765400618314743
1732873441458602200,12.114602294921875,0.025656340643763542,-0.059864792972803116,-0.1918116807937622
1732873441468560000,12.124559814453125,0.0012217304902151227,-0.045204028487205505,-0.19853121042251587
1732873441478591000,12.134591064453126,-0.02321287989616394,-0.04642575979232788,-0.16798794269561768
1732873441488579000,12.1445791015625,-0.01710422709584236,-0.06902777403593063,-0.11545353382825851
1732873441498580200,12.154580322265625,0.014049900695681572,-0.0861319974064827,-0.0403171069920063
1732873441508568300,12.164568359375,0.05864306539297104,-0.07696902006864548,0.04703662544488907
1732873441518600000,12.174599853515625,0.10812314599752426,-0.04337143152952194,0.12950342893600464
1732873441528557600,12.1845576171875,0.15515977144241333,-0.007941247895359993,0.19303341209888458
1732873441538588700,12.194588623046876,0.17470745742321014,0.004886921960860491,0.24190263450145721
1732873441548577000,12.204576904296875,0.13377949595451355,-0.0354301854968071,0.3029891550540924
1732873441558578000,12.214577880859375,0.06719517707824707,-0.045204028487205505,0.35063666105270386
1732873441568566000,12.22456591796875,-0.01160643994808197,-0.08674286305904388,0.4147774875164032
1732873441578597600,12.23459765625,-0.09285151958465576,-0.1368338167667389,0.47280970215797424
1732873441588555000,12.244554931640625,-0.19058994948863983,-0.18509216606616974,0.5051855444908142
1732873441598584600,12.25458447265625,-0.2828305959701538,-0.22540926933288574,0.4917465150356293
1732873441608573200,12.2645732421875,-0.3433062732219696,-0.2376265823841095,0.4196644127368927
1732873441618603800,12.274603759765625,-0.3390302062034607,-0.22052235901355743,0.28466320037841797
1732873441628562400,12.2845625,-0.2223549485206604,-0.182648703455925,-0.019547687843441963
1732873441638593000,12.294593017578125,-0.11178833991289139,-0.15515977144241333,-0.27550023794174194
1732873441648582000,12.304581787109376,-0.0012217304902151227,-0.13500121235847473,-0.5400048494338989
1732873441658582800,12.314582763671876,0.08796459436416626,-0.12950342893600464,-0.7623597979545593
1732873441668571100,12.324571044921875,0.13805554807186127,-0.14233160018920898,-0.9059131741523743
1732873441678602500,12.3346025390625,0.15577064454555511,-0.1508837193250656,-0.9566149711608887
1732873441688559900,12.344559814453126,0.13988813757896423,-0.13377949595451355,-0.9352346658706665
1732873441698592300,12.35459228515625,0.06780604273080826,-0.05742133408784866,-0.7953465580940247
1732873441708580400,12.364580322265626,-0.007941247895359993,0.027488935738801956,-0.6407976150512695
1732873441718581200,12.374581298828126,-0.0910189226269722,0.12461651116609573,-0.4453207552433014
1732873441728569300,12.3845693359375,-0.17592918872833252,0.20891591906547546,-0.22846360504627228
1732873441738601000,12.39460107421875,-0.23884831368923187,0.29016098380088806,-0.014049900695681572
