time,seconds_elapsed,z,y,x
1732873429508191700,0.164191650390625,-0.15821409225463867,-0.17592918872833252,-0.23029619455337524
1732873429517978400,0.173978271484375,-0.15027284622192383,-0.15454891324043274,-0.17959438264369965
1732873429528390100,0.18439013671875,-0.10934487730264664,-0.10445795953273773,-0.08124507963657379
1732873429538390800,0.194390869140625,-0.07513642311096191,-0.07941248267889023,-0.039706241339445114
1732873429548379400,0.20437939453125,-0.04642575979232788,-0.06230825558304787,-0.025045474991202354
1732873429558380300,0.21438037109375,-0.03176499158143997,-0.06230825558304787,-0.03298672288656235
1732873429568368400,0.224368408203125,-0.024434609338641167,-0.07452555745840073,-0.05009094998240471
1732873429578399700,0.234399658203125,-0.025045474991202354,-0.0910189226269722,-0.06536258012056351
1732873429588357400,0.244357421875,-0.031154127791523933,-0.1007927656173706,-0.07269296050071716
1732873429598388000,0.254387939453125,-0.0403171069920063,-0.10201449692249298,-0.06780604273080826
1732873429608376300,0.264376220703125,-0.04214970022439957,-0.0959058403968811,-0.05742133408784866
1732873429618407700,0.27440771484375,-0.04092797264456749,-0.08735372871160507,-0.04886921867728233
1732873429628365300,0.284365234375,-0.03787364438176155,-0.07391469180583954,-0.039095375686883926
1732873429638397000,0.29439697265625,-0.03787364438176155,-0.056810468435287476,-0.028099801391363144
1732873429648385000,0.304385009765625,-0.03787364438176155,-0.03298672288656235,-0.025045474991202354
1732873429658386200,0.31438623046875,-0.0354301854968071,-0.0024434609804302454,-0.02932153269648552
1732873429668374000,0.3243740234375,-0.02015855349600315,0.02871066704392433,-0.04092797264456749
1732873429678405600,0.334405517578125,-0.009773843921720982,0.03787364438176155,-0.039706241339445114
1732873429688362800,0.34436279296875,-0.00427605677396059,0.03237585723400116,-0.021991148591041565
1732873429698395100,0.35439501953125,-0.01038470957428217,0.018936822190880775,0.00427605677396059
1732873429708382700,0.3643828125,-0.02076941914856434,0.001832595793530345,0.02932153269648552
1732873429718383900,0.3743837890625,-0.02932153269648552,-0.02076941914856434,0.03848451003432274
1732873429728372000,0.3843720703125,-0.03176499158143997,-0.03848451003432274,0.029932396486401558
1732873429738402800,0.39440283203125,-0.024434609338641167,-0.054367005825042725,0.00427605677396059
1732873429748361000,0.40436083984375,-0.012217304669320583,-0.05314527451992035,-0.007941247895359993
1732873429758391600,0.4143916015625,0.0006108652451075613,-0.04398229718208313,-0.01466076634824276
1732873429768380400,0.42438037109375,0.01160643994808197,-0.02076941914856434,-0.022602014243602753
1732873429778381300,0.43438134765625,0.02321287989616394,0.004886921960860491,-0.02321287989616394
1732873429788369400,0.444369384765625,0.03848451003432274,0.02626720629632473,-0.015882495790719986
1732873429798401000,0.454401123046875,0.0507018156349659,0.025045474991202354,0.0006108652451075613
1732873429808358400,0.4643583984375,0.0507018156349659,0.021991148591041565,0.024434609338641167
1732873429818389800,0.4743896484375,0.04337143152952194,0.01771509274840355,0.04886921867728233
1732873429828377900,0.4843779296875,0.03481931984424591,0.018325956538319588,0.04948008432984352
1732873429838378800,0.494378662109375,0.02871066704392433,0.009773843921720982,0.04459316283464432
1732873429848366800,0.504366943359375,0.02687807008624077,0.0006108652451075613,0.033597588539123535
1732873429858398500,0.5143984375,0.02626720629632473,-0.003054326167330146,0.02687807008624077
1732873429868386600,0.524386474609375,0.029932396486401558,-0.00427605677396059,0.02321287989616394
1732873429878387700,0.5343876953125,0.036041051149368286,0.0012217304902151227,0.025656340643763542
1732873429888375600,0.54437548828125,0.0403171069920063,0.02321287989616394,0.03787364438176155
1732873429898407000,0.554406982421875,0.04092797264456749,0.029932396486401558,0.04642575979232788
1732873429908364500,0.564364501953125,0.04214970022439957,0.03787364438176155,0.04948008432984352
1732873429918396000,0.57439599609375,0.04764748737215996,0.036041051149368286,0.039706241339445114
1732873429928411000,0.584410888671875,0.0507018156349659,0.02076941914856434,0.021380282938480377
1732873429938385000,0.594385009765625,0.05009094998240471,0.004886921960860491,0.00855211354792118
1732873429948373200,0.604373291015625,0.048258353024721146,-0.01160643994808197,0.012217304669320583
1732873429958404400,0.614404296875,0.04581489413976669,-0.02321287989616394,0.04459316283464432
1732873429968362200,0.6243623046875,0.04214970022439957,-0.018936822190880775,0.06536258012056351
1732873429978393600,0.6343935546875,0.039706241339445114,-0.00733038317412138,0.07391469180583954
1732873429988382000,0.6443818359375,0.036041051149368286,0.003054326167330146,0.07147123664617538
1732873429998382600,0.654382568359375,0.03787364438176155,0.009162978269159794,0.05925392732024193
1732873430008370700,0.66437060546875,0.04153883829712868,0.02076941914856434,0.04153883829712868
1732873430018402300,0.67440234375,0.03726277872920036,0.031154127791523933,0.028099801391363144
1732873430028359700,0.684359619140625,0.03481931984424591,0.03298672288656235,0.02321287989616394
1732873430038391000,0.69439111328125,0.04092797264456749,0.02076941914856434,0.036651913076639175
1732873430048379100,0.704379150390625,0.04703662544488907,0.007941247895359993,0.045204028487205505
1732873430058380000,0.714380126953125,0.05192354694008827,-0.0006108652451075613,0.04948008432984352
1732873430068368100,0.7243681640625,0.05864306539297104,0.012828170321881771,0.04642575979232788
1732873430078399700,0.734399658203125,0.06414084881544113,0.030543262138962746,0.0403171069920063
1732873430088357000,0.744357177734375,0.06719517707824707,0.045204028487205505,0.033597588539123535
1732873430098388500,0.754388427734375,0.07330382615327835,0.04948008432984352,0.025045474991202354
1732873430108376600,0.76437646484375,0.0659734457731247,0.033597588539123535,0.015882495790719986
1732873430118407400,0.774407470703125,0.05864306539297104,0.02321287989616394,0.010995574295520782
1732873430128365800,0.78436572265625,0.059864792972803116,0.01710422709584236,0.005497787147760391
1732873430138397200,0.794397216796875,0.059864792972803116,0.01466076634824276,0.0012217304902151227
1732873430148385300,0.80438525390625,0.05803219974040985,0.015882495790719986,0
1732873430158386200,0.81438623046875,0.056810468435287476,0.021991148591041565,0.009162978269159794
1732873430168374300,0.824374267578125,0.054367005825042725,0.015271631069481373,0.02626720629632473
1732873430178406000,0.834406005859375,0.04398229718208313,-0.006719517521560192,0.05009094998240471
1732873430188363300,0.84436328125,0.03176499158143997,-0.01710422709584236,0.06536258012056351
1732873430198395000,0.854394775390625,0.024434609338641167,-0.013439035043120384,0.07147123664617538
1732873430208382700,0.8643828125,0.01710422709584236,0.0006108652451075613,0.07757988572120667
1732873430218383000,0.874383056640625,0.013439035043120384,0.024434609338641167,0.07941248267889023
1732873430228372000,0.8843720703125,0.01466076634824276,0.05619960278272629,0.07941248267889023
1732873430238402800,0.89440283203125,0.015271631069481373,0.07819075137376785,0.06902777403593063
1732873430248361000,0.90436083984375,0.015271631069481373,0.08124507963657379,0.04703662544488907
1732873430258391600,0.9143916015625,0.025045474991202354,0.06108652427792549,-0.007941247895359993
1732873430268380400,0.92438037109375,0.027488935738801956,0.03237585723400116,-0.04214970022439957
1732873430278380800,0.934380859375,0.028099801391363144,0.02076941914856434,-0.06352998316287994
1732873430288369400,0.944369384765625,0.028099801391363144,0.022602014243602753,-0.0708603709936142
1732873430298400300,0.954400146484375,0.030543262138962746,0.04642575979232788,-0.07819075137376785
1732873430308358400,0.9643583984375,0.03237585723400116,0.06230825558304787,-0.08552113175392151
1732873430318389000,0.974388916015625,0.031154127791523933,0.048258353024721146,-0.09468411654233932
1732873430328377900,0.9843779296875,0.003054326167330146,-0.036651913076639175,-0.12950342893600464
1732873430338379000,0.99437890625,-0.04398229718208313,-0.17470745742321014,-0.182648703455925
1732873430348367000,1.0043671875,-0.10323622822761536,-0.32986724376678467,-0.2675589919090271
1732873430358398000,1.01439794921875,-0.10201449692249298,-0.25106561183929443,-0.304210901260376
1732873430368386600,1.024386474609375,-0.042760565876960754,-0.08857546001672745,-0.24007004499435425
1732873430378387500,1.034387451171875,0.012217304669320583,0.01771509274840355,-0.11850785464048386
1732873430388375600,1.04437548828125,0.039706241339445114,0.08124507963657379,-0.0024434609804302454
1732873430398407200,1.0544072265625,0.0403171069920063,0.06841690838336945,0.1160643994808197
1732873430408364500,1.064364501953125,0.021380282938480377,0.027488935738801956,0.15271630883216858
1732873430418396200,1.074396240234375,0.003054326167330146,0.00366519158706069,0.17043140530586243
1732873430428384000,1.084384033203125,-0.013439035043120384,-0.010995574295520782,0.17592918872833252
1732873430438385000,1.094385009765625,-0.018936822190880775,-0.02321287989616394,0.17287486791610718
1732873430448373200,1.104373291015625,-0.019547687843441963,-0.02687807008624077,0.16004669666290283
1732873430458404600,1.114404541015625,-0.018936822190880775,-0.03176499158143997,0.14416420459747314
1732873430468362200,1.1243623046875,-0.01466076634824276,-0.03848451003432274,0.1215621829032898
1732873430478392800,1.134392822265625,-0.00733038317412138,-0.04337143152952194,0.08979719132184982
1732873430488381700,1.144381591796875,-0.00427605677396059,-0.036651913076639175,0.07391469180583954
1732873430498382600,1.154382568359375,-0.006719517521560192,-0.018936822190880775,0.06475171446800232
1732873430508371000,1.164370849609375,-0.00733038317412138,0,0.05925392732024193
1732873430518402300,1.17440234375,-0.010995574295520782,0.009773843921720982,0.054367005825042725
1732873430528359700,1.184359619140625,-0.016493361443281174,0.01710422709584236,0.04642575979232788
1732873430538390800,1.194390869140625,-0.016493361443281174,0.024434609338641167,0.036651913076639175
1732873430548379400,1.20437939453125,-0.013439035043120384,0.02871066704392433,0.021380282938480377
1732873430558379800,1.2143798828125,-0.009773843921720982,0.019547687843441963,0.01038470957428217
1732873430568368400,1.224368408203125,-0.010995574295520782,0.0006108652451075613,-0.0012217304902151227
1732873430578399500,1.2343994140625,-0.01771509274840355,-0.010995574295520782,-0.006108652334660292
1732873430588357400,1.244357421875,-0.02932153269648552,-0.009162978269159794,-0.001832595793530345
1732873430598387500,1.254387451171875,-0.039706241339445114,0.0006108652451075613,0.004886921960860491
1732873430608376300,1.264376220703125,-0.05253441259264946,0.003054326167330146,0.01710422709584236
1732873430618407200,1.2744072265625,-0.06719517707824707,0.006719517521560192,0.03176499158143997
1732873430628365300,1.284365234375,-0.07330382615327835,0.02382374368607998,0.0403171069920063
1732873430638397000,1.29439697265625,-0.0757472887635231,0.04153883829712868,0.05497787147760391
1732873430648385000,1.304385009765625,-0.08368854224681854,0.056810468435287476,0.0757472887635231
1732873430658386200,1.31438623046875,-0.09834930300712585,0.06108652427792549,0.09834930300712585
1732873430668374000,1.3243740234375,-0.11239920556545258,0.051312681287527084,0.11484266817569733
1732873430678404600,1.334404541015625,-0.12767083942890167,0.036041051149368286,0.12034045159816742
1732873430688363000,1.344363037109375,-0.14477506279945374,0.02626720629632473,0.10751228034496307
1732873430698394000,1.35439404296875,-0.16554448008537292,0.021991148591041565,0.07513642311096191
1732873430708382700,1.3643828125,-0.18631389737129211,0.025045474991202354,0.045204028487205505
1732873430718383400,1.37438330078125,-0.21807889640331268,0.03237585723400116,0.01466076634824276
1732873430728371700,1.384371826171875,-0.25106561183929443,0.03481931984424591,-0.015882495790719986
1732873430738402800,1.39440283203125,-0.29993483424186707,0.039095375686883926,-0.03726277872920036
1732873430748361000,1.40436083984375,-0.3494149148464203,0.04459316283464432,-0.04948008432984352
1732873430758391300,1.414391357421875,-0.40133845806121826,0.054367005825042725,-0.06230825558304787
1732873430768380700,1.424380615234375,-0.494189977645874,0.024434609338641167,-0.07513642311096191
1732873430778380300,1.43438037109375,-0.5638286471366882,-0.036651913076639175,-0.07513642311096191
1732873430788369400,1.444369384765625,-0.6346889734268188,-0.11362093687057495,-0.07269296050071716
1732873430798399700,1.454399658203125,-0.7024950385093689,-0.20036379992961884,-0.08002334833145142
1732873430808358400,1.4643583984375,-0.7709119319915771,-0.25595253705978394,-0.1007927656173706
1732873430818389000,1.474388916015625,-0.8246681094169617,-0.2791654169559479,-0.10384709388017654
1732873430828377900,1.4843779296875,-0.8784242272377014,-0.26450464129447937,-0.07513642311096191
1732873430838377700,1.494377685546875,-0.9419541954994202,-0.18997909128665924,-0.04886921867728233
1732873430848366800,1.504366943359375,-0.969443142414093,-0.15332718193531036,-0.06230825558304787
1732873430858397400,1.5143974609375,-1.0018190145492554,-0.13744467496871948,-0.08552113175392151
1732873430868386600,1.524386474609375,-1.043968677520752,-0.1459967941045761,-0.10873401165008545
1732873430878386400,1.534386474609375,-1.1001683473587036,-0.1765400618314743,-0.11789698898792267
1732873430888375600,1.54437548828125,-1.1753047704696655,-0.2076941877603531,-0.08979719132184982
1732873430898406000,1.554406005859375,-1.2479976415634155,-0.22357667982578278,-0.027488935738801956
1732873430908364500,1.564364501953125,-1.3084733486175537,-0.22052235901355743,0.04642575979232788
1732873430918395100,1.57439501953125,-1.3829989433288574,-0.17409659922122955,0.1313360333442688
1732873430928384000,1.584384033203125,-1.433700680732727,-0.14538592100143433,0.16798794269561768
1732873430938384000,1.5943837890625,-1.482569932937622,-0.12278391420841217,0.19120082259178162
1732873430948373000,1.604373046875,-1.5399912595748901,-0.09896016865968704,0.2076941877603531
1732873430958403300,1.6144033203125,-1.5845844745635986,-0.10201449692249298,0.2119702398777008
1732873430968362200,1.6243623046875,-1.6212363243103027,-0.12461651116609573,0.19547687470912933
1732873430978393600,1.6343935546875,-1.651168704032898,-0.15943582355976105,0.1563815027475357
1732873430988381700,1.644381591796875,-1.690264105796814,-0.2583959996700287,0.10751228034496307
1732873430998382800,1.6543828125,-1.711033582687378,-0.32070425152778625,0.10567969083786011
1732873431008370400,1.664370361328125,-1.7159204483032227,-0.35735616087913513,0.13500121235847473
1732873431018402600,1.674402587890625,-1.7073683738708496,-0.3677408695220947,0.18814650177955627
1732873431028359700,1.684359619140625,-1.6896532773971558,-0.34574973583221436,0.26022860407829285
1732873431038391300,1.694391357421875,-1.6725490093231201,-0.304210901260376,0.33658674359321594
1732873431048379100,1.704379150390625,-1.653001308441162,-0.2535090744495392,0.3781255781650543
1732873431058380300,1.71438037109375,-1.6371188163757324,-0.21074850857257843,0.32559117674827576
1732873431068368100,1.7243681640625,-1.643227458000183,-0.23090706765651703,0.22602014243602753
1732873431078400000,1.73439990234375,-1.6688838005065918,-0.2834414839744568,0.12278391420841217
1732873431088357400,1.744357421875,-1.7165313959121704,-0.3689626157283783,0.04337143152952194
1732873431098389000,1.754388916015625,-1.7715091705322266,-0.46731191873550415,-0.0006108652451075613
1732873431108376600,1.76437646484375,-1.822821855545044,-0.5729916095733643,0.0024434609804302454
1732873431118408700,1.77440869140625,-1.8674150705337524,-0.6670648455619812,0.0403171069920063
1732873431128365800,1.78436572265625,-1.8936822414398193,-0.7397578358650208,0.09346238523721695
1732873431138397400,1.7943974609375,-1.8973474502563477,-0.7086036801338196,0.17409659922122955
1732873431148385300,1.80438525390625,-1.8680258989334106,-0.6340781450271606,0.22296582162380219
1732873431158386400,1.814386474609375,-1.825876235961914,-0.5296201705932617,0.25106561183929443
1732873431168374300,1.824374267578125,-1.797776460647583,-0.4288274049758911,0.24678955972194672
1732873431178406000,1.834406005859375,-1.7861700057983398,-0.34208452701568604,0.2125810980796814
1732873431188363300,1.84436328125,-1.7678439617156982,-0.2926044464111328,0.12950342893600464
1732873431198395100,1.85439501953125,-1.748907208442688,-0.2877175211906433,0.006108652334660292
1732873431208382700,1.8643828125,-1.7660114765167236,-0.3500257730484009,-0.18387043476104736
1732873431218384000,1.8743837890625,-1.8038851022720337,-0.4453207552433014,-0.27977627515792847
1732873431228371700,1.884371826171875,-1.8460347652435303,-0.5387831330299377,-0.3433062732219696
1732873431238403300,1.8944033203125,-1.8753563165664673,-0.607810914516449,-0.37201693654060364
1732873431248361000,1.90436083984375,-1.8942930698394775,-0.6120869517326355,-0.3689626157283783
1732873431258392600,1.914392578125,-1.8985692262649536,-0.5473352670669556,-0.3445279896259308
1732873431268380400,1.92438037109375,-1.8979582786560059,-0.4447098970413208,-0.3219259977340698
1732873431278381600,1.934381591796875,-1.9089539051055908,-0.29565876722335815,-0.3170390725135803
1732873431288369400,1.944369384765625,-1.9248363971710205,-0.23396138846874237,-0.33658674359321594
1732873431298401300,1.9544013671875,-1.9462167024612427,-0.19853121042251587,-0.36529740691185
1732873431308358400,1.9643583984375,-1.9633208513259888,-0.18570303916931152,-0.3732386529445648
1732873431318390000,1.97439013671875,-1.968207836151123,-0.17776179313659668,-0.3481931984424591
1732873431328377900,1.9843779296875,-1.95965576171875,-0.16554448008537292,-0.27550023794174194
1732873431338379000,1.99437890625,-1.947438359260559,-0.14966198801994324,-0.14538592100143433
1732873431348367000,2.0043671875,-1.9309450387954712,-0.13927727937698364,0.02015855349600315
1732873431358398700,2.014398681640625,-1.9004018306732178,-0.1411098688840866,0.23273965716362
1732873431368386600,2.024386474609375,-1.8765780925750732,-0.13072516024112701,0.2974913716316223
1732873431378386400,2.034386474609375,-1.8429805040359497,-0.12828169763088226,0.29565876722335815
1732873431388375600,2.04437548828125,-1.8106045722961426,-0.12522737681865692,0.24862214922904968
1732873431398406100,2.05440625,-1.7794504165649414,-0.1319468915462494,0.1765400618314743
1732873431408364500,2.064364501953125,-1.758681058883667,-0.1612684279680252,0.09224065393209457
1732873431418396400,2.074396484375,-1.7550158500671387,-0.22052235901355743,0.00855211354792118
1732873431428384300,2.08438427734375,-1.7611244916915894,-0.34025195240974426,-0.09224065393209457
1732873431438385400,2.094385498046875,-1.7654005289077759,-0.39706242084503174,-0.12950342893600464
1732873431448373200,2.104373291015625,-1.757459282875061,-0.4196644127368927,-0.14355333149433136
1732873431458404900,2.11440478515625,-1.7342463731765747,-0.40744712948799133,-0.14844025671482086
1732873431468362200,2.1243623046875,-1.7049249410629272,-0.3549126982688904,-0.15760323405265808
1732873431478393900,2.134393798828125,-1.673770785331726,-0.2779437005519867,-0.18448130786418915
1732873431488381700,2.144381591796875,-1.6481144428253174,-0.2119702398777008,-0.23335053026676178
1732873431498382800,2.1543828125,-1.624901533126831,-0.19058994948863983,-0.33719760179519653
1732873431508370700,2.16437060546875,-1.624901533126831,-0.24373523890972137,-0.39767327904701233
1732873431518402600,2.174402587890625,-1.6273449659347534,-0.33536502718925476,-0.41599923372268677
1732873431528359700,2.184359619140625,-1.6145168542861938,-0.41599923372268677,-0.3793473243713379
1732873431538391600,2.1943916015625,-1.5778648853302002,-0.44226643443107605,-0.27550023794174194
1732873431548379400,2.20437939453125,-1.5222761631011963,-0.39095374941825867,-0.1313360333442688
1732873431558380500,2.214380615234375,-1.4520267248153687,-0.27488934993743896,-0.0012217304902151227
1732873431568368400,2.224368408203125,-1.3744467496871948,-0.1411098688840866,0.08124507963657379
1732873431578398700,2.234398681640625,-1.2596040964126587,0.028099801391363144,0.09896016865968704
1732873431588357400,2.244357421875,-1.2015719413757324,0.0861319974064827,0.05253441259264946
1732873431598387000,2.254386962890625,-1.1582005023956299,0.1014036312699318,-0.021991148591041565
1732873431608376300,2.264376220703125,-1.1301007270812988,0.08429940044879913,-0.09957103431224823
1732873431618406400,2.274406494140625,-1.1050552129745483,0.02076941914856434,-0.16371189057826996
1732873431628365300,2.284365234375,-1.0848966836929321,-0.07330382615327835,-0.21930062770843506
1732873431638396000,2.29439599609375,-1.0629055500030518,-0.16798794269561768,-0.2681698501110077
1732873431648385000,2.304385009765625,-1.0109820365905762,-0.2840523421764374,-0.3341432809829712
1732873431658384600,2.314384521484375,-0.9584475755691528,-0.33047810196876526,-0.35735616087913513
1732873431668374000,2.3243740234375,-0.8949176073074341,-0.3433062732219696,-0.3378084897994995
1732873431678404400,2.334404296875,-0.8155050873756409,-0.3127630054950714,-0.2785545587539673
1732873431688362800,2.34436279296875,-0.7275404930114746,-0.24007004499435425,-0.18020524084568024
1732873431698395100,2.35439501953125,-0.6401867866516113,-0.15821409225463867,-0.04948008432984352
1732873431708382700,2.3643828125,-0.5632177591323853,-0.1062905490398407,0.09529497474431992
1732873431718384400,2.37438427734375,-0.47280970215797424,-0.08979719132184982,0.2632829248905182
1732873431728371700,2.384371826171875,-0.42638394236564636,-0.08735372871160507,0.3182607889175415
1732873431738402300,2.39440234375,-0.394008070230484,-0.07941248267889023,0.3292563557624817
1732873431748361000,2.40436083984375,-0.3634648323059082,-0.07696902006864548,0.31093040108680725
1732873431758391000,2.41439111328125,-0.33658674359321594,-0.08552113175392151,0.2638937830924988
1732873431768380400,2.42438037109375,-0.3127630054950714,-0.07757988572120667,0.192422553896904
1732873431778381000,2.434381103515625,-0.2889392673969269,-0.05803219974040985,0.11667526513338089
1732873431788369400,2.444369384765625,-0.2590068578720093,-0.027488935738801956,0.039706241339445114
1732873431798400500,2.454400390625,-0.21074850857257843,0.00855211354792118,-0.05192354694008827
1732873431808358400,2.4643583984375,-0.18814650177955627,0.01160643994808197,-0.08002334833145142
1732873431818389500,2.474389404296875,-0.17043140530586243,0.007941247895359993,-0.08246681094169617
1732873431828377900,2.4843779296875,-0.14844025671482086,0.001832595793530345,-0.07880161702632904
1732873431838378800,2.494378662109375,-0.12828169763088226,-0.006719517521560192,-0.08429940044879913
1732873431848366800,2.504366943359375,-0.11301007121801376,-0.01771509274840355,-0.10262536257505417
1732873431858398000,2.51439794921875,-0.10323622822761536,-0.030543262138962746,-0.12889257073402405
1732873431868386600,2.524386474609375,-0.09834930300712585,-0.06169738993048668,-0.17776179313659668
1732873431878386700,2.53438671875,-0.10445795953273773,-0.09407325088977814,-0.2064724564552307
1732873431888375600,2.54437548828125,-0.11911872029304504,-0.13866640627384186,-0.22296582162380219
1732873431898406400,2.554406494140625,-0.13377949595451355,-0.182648703455925,-0.2278527319431305
1732873431908364500,2.564364501953125,-0.14477506279945374,-0.2076941877603531,-0.2168571650981903
1732873431918395600,2.574395751953125,-0.15027284622192383,-0.21868975460529327,-0.19608774781227112
1732873431928412400,2.584412353515625,-0.14844025671482086,-0.21135938167572021,-0.1661553531885147
1732873431938384600,2.594384521484375,-0.13988813757896423,-0.14477506279945374,-0.11484266817569733
1732873431948373000,2.604373046875,-0.11728613078594208,-0.06352998316287994,-0.0757472887635231
1732873431958404400,2.614404296875,-0.09407325088977814,0.01160643994808197,-0.042760565876960754
1732873431968362200,2.6243623046875,-0.08979719132184982,0.07391469180583954,-0.012828170321881771
1732873431978393300,2.634393310546875,-0.09651670604944229,0.12400564551353455,0.01160643994808197
1732873431988381700,2.644381591796875,-0.1062905490398407,0.13072516024112701,0.02932153269648552
1732873431998382000,2.654382080078125,-0.14049901068210602,0.04948008432984352,0.05009094998240471
1732873432008370400,2.664370361328125,-0.20463985204696655,-0.02382374368607998,0.0659734457731247
1732873432018401800,2.67440185546875,-0.26572638750076294,-0.04642575979232788,0.0659734457731247
1732873432028359700,2.684359619140625,-0.28955012559890747,0.06841690838336945,0.05742133408784866
1732873432038390800,2.694390869140625,-0.2675589919090271,0.16493362188339233,0.05497787147760391
1732873432048379100,2.704379150390625,-0.1869247704744339,0.09834930300712585,0.00733038317412138
1732873432058379800,2.7143798828125,-0.16982053220272064,-0.00427605677396059,-0.0806342139840126
1732873432068368100,2.7243681640625,-0.21135938167572021,-0.10690141469240189,-0.14294247329235077
1732873432078399500,2.7343994140625,-0.22846360504627228,-0.1569923609495163,-0.14782938361167908
1732873432088357400,2.744357421875,-0.2382374405860901,-0.12400564551353455,-0.07635815441608429
1732873432098388200,2.75438818359375,-0.23945917189121246,-0.10323622822761536,-0.00733038317412138
1732873432108376600,2.76437646484375,-0.2217440903186798,-0.06658431142568588,0.04581489413976669
1732873432118407700,2.77440771484375,-0.19914206862449646,-0.01710422709584236,0.07819075137376785
1732873432128365800,2.78436572265625,-0.1814269721508026,0.042760565876960754,0.08429940044879913
1732873432138397000,2.79439697265625,-0.1722639948129654,0.09040805697441101,0.07208210229873657
1732873432148385300,2.80438525390625,-0.16310101747512817,0.11056660860776901,0.05375614017248154
1732873432158386200,2.81438623046875,-0.1563815027475357,0.08368854224681854,0.030543262138962746
1732873432168374500,2.82437451171875,-0.14782938361167908,0.04764748737215996,0.021991148591041565
1732873432178405400,2.8344052734375,-0.13866640627384186,0.01160643994808197,0.021991148591041565
1732873432188363300,2.84436328125,-0.12950342893600464,-0.00733038317412138,0.030543262138962746
1732873432198394600,2.85439453125,-0.11850785464048386,-0.007941247895359993,0.04092797264456749
1732873432208382700,2.8643828125,-0.10873401165008545,0.007941247895359993,0.04398229718208313
1732873432218383400,2.87438330078125,-0.10567969083786011,0.021380282938480377,0.04153883829712868
1732873432228371700,2.884371826171875,-0.10384709388017654,0.028099801391363144,0.030543262138962746
1732873432238403000,2.894403076171875,-0.09651670604944229,0.0403171069920063,-0.02076941914856434
1732873432248361000,2.90436083984375,-0.09224065393209457,0.04764748737215996,-0.06902777403593063
1732873432258392000,2.91439208984375,-0.08674286305904388,0.04764748737215996,-0.11484266817569733
1732873432268380700,2.924380615234375,-0.08246681094169617,0.039095375686883926,-0.13988813757896423
1732873432278381000,2.934381103515625,-0.07880161702632904,0.021380282938480377,-0.13866640627384186
1732873432288369400,2.944369384765625,-0.08185594528913498,-0.006108652334660292,-0.1111774742603302
1732873432298400500,2.954400390625,-0.08857546001672745,-0.03787364438176155,-0.05742133408784866
1732873432308358400,2.9643583984375,-0.09346238523721695,-0.08491026610136032,0.04337143152952194
1732873432318389500,2.974389404296875,-0.08796459436416626,-0.08979719132184982,0.09529497474431992
1732873432328377900,2.9843779296875,-0.06230825558304787,-0.06108652427792549,0.12522737681865692
1732873432338378500,2.99437841796875,-0.02321287989616394,-0.005497787147760391,0.12767083942890167
1732873432348366800,3.004366943359375,0.02626720629632473,0.06414084881544113,0.09773843735456467
1732873432358398000,3.01439794921875,0.06658431142568588,0.10995574295520782,0.03787364438176155
1732873432368386600,3.024386474609375,0.08185594528913498,0.0959058403968811,-0.039095375686883926
1732873432378387700,3.0343876953125,0.06902777403593063,-0.030543262138962746,-0.13316862285137177
1732873432388375600,3.04437548828125,0.045204028487205505,-0.1313360333442688,-0.16371189057826996
1732873432398407200,3.0544072265625,0.009162978269159794,-0.22296582162380219,-0.13927727937698364
1732873432408364500,3.064364501953125,-0.02015855349600315,-0.2919935882091522,-0.045204028487205505
1732873432418396400,3.074396484375,-0.03481931984424591,-0.3188716471195221,0.10690141469240189
1732873432428384000,3.084384033203125,-0.02626720629632473,-0.3017674386501312,0.28649580478668213
1732873432438385200,3.09438525390625,0,-0.25106561183929443,0.4508185386657715
1732873432448373200,3.104373291015625,0.04214970022439957,-0.16493362188339233,0.5760459303855896
1732873432458404600,3.114404541015625,0.11850785464048386,-0.03787364438176155,0.6768386960029602
1732873432468362200,3.1243623046875,0.1569923609495163,0.03848451003432274,0.6896668672561646
1732873432478393000,3.13439306640625,0.18631389737129211,0.07880161702632904,0.6780604124069214
1732873432488382000,3.1443818359375,0.20891591906547546,0.08552113175392151,0.6585127115249634
1732873432498382000,3.154382080078125,0.2272418737411499,0.07635815441608429,0.6291912198066711
1732873432508371000,3.164370849609375,0.24007004499435425,0.06780604273080826,0.5833762884140015
1732873432518401000,3.174401123046875,0.252287358045578,0.05619960278272629,0.523511528968811
1732873432528359700,3.184359619140625,0.2736676335334778,0.08124507963657379,0.39156460762023926
1732873432538390000,3.19439013671875,0.2834414839744568,0.1459967941045761,0.26511552929878235
1732873432548379400,3.20437939453125,0.29138273000717163,0.21868975460529327,0.10934487730264664
1732873432558379300,3.214379150390625,0.29077184200286865,0.2724458873271942,-0.08124507963657379
1732873432568368400,3.224368408203125,0.27488934993743896,0.2840523421764374,-0.29993483424186707
1732873432578398700,3.234398681640625,0.2370157092809677,0.251676470041275,-0.5259549617767334
1732873432588357400,3.244357421875,0.16737708449363708,0.18387043476104736,-0.7305948138237
1732873432598388000,3.254387939453125,0.04214970022439957,0.01710422709584236,-0.950506329536438
1732873432608376300,3.264376220703125,-0.029932396486401558,-0.10751228034496307,-1.0024298429489136
1732873432618407700,3.27440771484375,-0.08979719132184982,-0.23579397797584534,-0.9535606503486633
1732873432628365300,3.284365234375,-0.13744467496871948,-0.33475416898727417,-0.7953465580940247
1732873432638397000,3.29439697265625,-0.16737708449363708,-0.3885102868080139,-0.5461135506629944
1732873432648385000,3.304385009765625,-0.1722639948129654,-0.37751471996307373,-0.251676470041275
1732873432658385200,3.31438525390625,-0.1661553531885147,-0.294437050819397,0.02382374368607998
1732873432668374000,3.3243740234375,-0.14355333149433136,-0.1722639948129654,0.2223549485206604
1732873432678404900,3.33440478515625,-0.08735372871160507,-0.024434609338641167,0.35185837745666504
1732873432688362800,3.34436279296875,-0.05742133408784866,0.031154127791523933,0.34758231043815613
1732873432698394000,3.35439404296875,-0.03176499158143997,0.07269296050071716,0.28649580478668213
1732873432708382700,3.3643828125,-0.001832595793530345,0.11362093687057495,0.18081611394882202
1732873432718383400,3.37438330078125,0.027488935738801956,0.1472185254096985,0.04764748737215996
1732873432728371700,3.384371826171875,0.04581489413976669,0.16798794269561768,-0.09285151958465576
1732873432738402800,3.39440283203125,0.06352998316287994,0.15943582355976105,-0.21441370248794556
1732873432748361000,3.40436083984375,0.08674286305904388,0.08185594528913498,-0.32498031854629517
1732873432758391800,3.414391845703125,0.0757472887635231,-0.006719517521560192,-0.33597588539123535
1732873432768380400,3.42438037109375,0.05314527451992035,-0.09712757170200348,-0.30604347586631775
1732873432778380800,3.434380859375,0.03726277872920036,-0.1722639948129654,-0.2583959996700287
1732873432788369400,3.444369384765625,0.01710422709584236,-0.22418753802776337,-0.21319197118282318
1732873432798400300,3.454400146484375,-0.006108652334660292,-0.2431243658065796,-0.18387043476104736
1732873432808358400,3.4643583984375,-0.04886921867728233,-0.25106561183929443,-0.18631389737129211
1732873432818389200,3.47438916015625,-0.11056660860776901,-0.23029619455337524,-0.2272418737411499
1732873432828377900,3.4843779296875,-0.1319468915462494,-0.2278527319431305,-0.21930062770843506
1732873432838378200,3.494378173828125,-0.12278391420841217,-0.22846360504627228,-0.1612684279680252
1732873432848367000,3.5043671875,-0.09040805697441101,-0.20097467303276062,-0.06230825558304787
1732873432858398000,3.51439794921875,-0.05375614017248154,-0.10690141469240189,0.06108652427792549
1732873432868386600,3.524386474609375,-0.024434609338641167,0.02687807008624077,0.1918116807937622
1732873432878387000,3.534386962890625,-0.0012217304902151227,0.12400564551353455,0.30604347586631775
1732873432888375600,3.54437548828125,0.00366519158706069,0.15515977144241333,0.38667771220207214
1732873432898406100,3.55440625,-0.007941247895359993,0.12950342893600464,0.4098905920982361
1732873432908364500,3.564364501953125,-0.025656340643763542,0.10934487730264664,0.37140607833862305
1732873432918395400,3.5743955078125,-0.05497787147760391,0.06841690838336945,0.2974913716316223
1732873432928384000,3.584384033203125,-0.10812314599752426,0.0354301854968071,0.19914206862449646
1732873432938384400,3.59438427734375,-0.17592918872833252,0.01771509274840355,0.0959058403968811
1732873432948373000,3.604373046875,-0.2431243658065796,0.016493361443281174,0.009162978269159794
1732873432958404000,3.614404052734375,-0.294437050819397,0.019547687843441963,-0.039706241339445114
1732873432968362200,3.6243623046875,-0.33108896017074585,0.042760565876960754,-0.03176499158143997
1732873432978392800,3.634392822265625,-0.32620203495025635,0.10567969083786011,-0.0012217304902151227
1732873432988381700,3.644381591796875,-0.30482175946235657,0.19364428520202637,0.005497787147760391
1732873432998382800,3.6543828125,-0.27488934993743896,0.28038713335990906,-0.04398229718208313
1732873433008370400,3.664370361328125,-0.23945917189121246,0.3194825351238251,-0.13927727937698364
1732873433018402600,3.674402587890625,-0.21441370248794556,0.29626965522766113,-0.24495697021484375
1732873433028359700,3.684359619140625,-0.19792033731937408,0.20891591906547546,-0.2919935882091522
1732873433038391000,3.69439111328125,-0.17104226350784302,0.05803219974040985,-0.054367005825042725
1732873433048379100,3.704379150390625,-0.15943582355976105,-0.02382374368607998,0.3439171314239502
1732873433058380300,3.71438037109375,-0.1612684279680252,-0.03176499158143997,0.8185594081878662
1732873433068368100,3.7243681640625,-0.14782938361167908,0.006719517521560192,1.2247848510742188
1732873433078399700,3.734399658203125,-0.11667526513338089,0.054367005825042725,1.4941763877868652
1732873433088357000,3.744357177734375,-0.07330382615327835,0.09040805697441101,1.607797384262085
1732873433098387500,3.754387451171875,-0.06536258012056351,0.12461651116609573,1.576032280921936
1732873433108376600,3.76437646484375,-0.06658431142568588,0.1661553531885147,1.3866641521453857
1732873433118409200,3.7744091796875,-0.04642575979232788,0.24984388053417206,0.8643743395805359
1732873433128365800,3.78436572265625,-0.06414084881544113,0.3139847218990326,0.4202753007411957
1732873433138396200,3.794396240234375,-0.1160643994808197,0.3488040566444397,-0.059864792972803116
1732873433148385300,3.80438525390625,-0.17531833052635193,0.33536502718925476,-0.5363397002220154
1732873433158386200,3.81438623046875,-0.19853121042251587,0.2125810980796814,-0.9382890462875366
1732873433168374300,3.824374267578125,-0.23579397797584534,-0.015271631069481373,-1.238223910331726
1732873433178406000,3.834406005859375,-0.25473082065582275,-0.2382374405860901,-1.4178181886672974
1732873433188363300,3.84436328125,-0.25534167885780334,-0.4740314185619354,-1.4025466442108154
1732873433198395000,3.854394775390625,-0.25045475363731384,-0.5473352670669556,-1.1850786209106445
1732873433208382700,3.8643828125,-0.23640485107898712,-0.5424483418464661,-0.8442157506942749
1732873433218384000,3.8743837890625,-0.2223549485206604,-0.455705463886261,-0.45326200127601624
1732873433228371700,3.884371826171875,-0.21930062770843506,-0.2883284091949463,-0.10873401165008545
1732873433238402600,3.894402587890625,-0.20952677726745605,-0.09651670604944229,0.13072516024112701
1732873433248361000,3.90436083984375,-0.20891591906547546,0.08735372871160507,0.25534167885780334
1732873433258391800,3.914391845703125,-0.23151792585849762,0.22663100063800812,0.27977627515792847
1732873433268380400,3.92438037109375,-0.251676470041275,0.2541199326515198,0.2217440903186798
1732873433278381000,3.934381103515625,-0.26939156651496887,0.24862214922904968,0.14294247329235077
1732873433288369400,3.944369384765625,-0.27488934993743896,0.21319197118282318,0.07513642311096191
1732873433298400500,3.954400390625,-0.2681698501110077,0.15577064454555511,0.025656340643763542
1732873433308358400,3.9643583984375,-0.2480112910270691,0.09834930300712585,-0.006719517521560192
1732873433318389500,3.974389404296875,-0.21991148591041565,0.05009094998240471,-0.02687807008624077
1732873433328377900,3.9843779296875,-0.192422553896904,0.01771509274840355,-0.042760565876960754
1732873433338378500,3.99437841796875,-0.15515977144241333,-0.006719517521560192,-0.04764748737215996
1732873433348366800,4.004366943359375,-0.14538592100143433,-0.02382374368607998,-0.0354301854968071
1732873433358398200,4.014398193359375,-0.14782938361167908,-0.0403171069920063,-0.02321287989616394
1732873433368386600,4.024386474609375,-0.15393804013729095,-0.05375614017248154,-0.021991148591041565
1732873433378387000,4.034386962890625,-0.16737708449363708,-0.07635815441608429,-0.02321287989616394
1732873433388375600,4.04437548828125,-0.18448130786418915,-0.10995574295520782,-0.01771509274840355
1732873433398406400,4.054406494140625,-0.192422553896904,-0.13377949595451355,-0.012217304669320583
1732873433408364500,4.064364501953125,-0.17959438264369965,-0.11667526513338089,0.014049900695681572
1732873433418395600,4.074395751953125,-0.1612684279680252,-0.0507018156349659,0.0507018156349659
1732873433428384000,4.084384033203125,-0.14416420459747314,0.0354301854968071,0.08002334833145142
1732873433438384600,4.094384521484375,-0.13377949595451355,0.1062905490398407,0.07880161702632904
1732873433448373200,4.104373291015625,-0.12828169763088226,0.12889257073402405,0.04214970022439957
1732873433458404400,4.114404296875,-0.13316862285137177,0.1062905490398407,-0.01771509274840355
1732873433468362200,4.1243623046875,-0.1472185254096985,0.05253441259264946,-0.09162978827953339
1732873433478392800,4.134392822265625,-0.182648703455925,-0.02076941914856434,-0.20891591906547546
1732873433488382000,4.1443818359375,-0.21319197118282318,-0.059864792972803116,-0.2620611786842346
1732873433498382000,4.154382080078125,-0.252287358045578,-0.09468411654233932,-0.29138273000717163
1732873433508370700,4.16437060546875,-0.29138273000717163,-0.11545353382825851,-0.28588494658470154
1732873433518402600,4.174402587890625,-0.3176499307155609,-0.1270599663257599,-0.2370157092809677
1732873433528359700,4.184359619140625,-0.3127630054950714,-0.11178833991289139,-0.14233160018920898
1732873433538390800,4.194390869140625,-0.27611109614372253,-0.04703662544488907,-0.009773843921720982
1732873433548379400,4.20437939453125,-0.21135938167572021,0.05925392732024193,0.12339477986097336
1732873433558380300,4.21438037109375,-0.07819075137376785,0.2840523421764374,0.20463985204696655
1732873433568368400,4.224368408203125,0.006108652334660292,0.4001167416572571,0.17470745742321014
1732873433578399700,4.234399658203125,0.05497787147760391,0.3897320330142975,0.09162978827953339
1732873433588357400,4.244357421875,0.056810468435287476,0.20952677726745605,-0.010995574295520782
1732873433598388000,4.254387939453125,0.015882495790719986,-0.12522737681865692,-0.05192354694008827
1732873433608376300,4.264376220703125,-0.05009094998240471,-0.5009095072746277,0.04948008432984352
1732873433618407700,4.27440771484375,-0.0806342139840126,-0.7513642311096191,0.3029891550540924
1732873433628365300,4.284365234375,-0.05009094998240471,-0.7153232097625732,0.8283332586288452
1732873433638397000,4.29439697265625,-0.01038470957428217,-0.44165557622909546,1.1801916360855103
1732873433648385000,4.304385009765625,0.024434609338641167,-0.05742133408784866,1.4660766124725342
1732873433658384600,4.314384521484375,0.07513642311096191,0.394618958234787,1.6310101747512817
1732873433668374000,4.3243740234375,0.15943582355976105,0.8020660877227783,1.6365079879760742
1732873433678404400,4.334404296875,0.20952677726745605,1.1087204217910767,1.490511178970337
1732873433688362800,4.34436279296875,0.2028072625398636,1.246165156364441,1.2101240158081055
1732873433698393600,4.3543935546875,0.10995574295520782,1.0604621171951294,0.5448917746543884
1732873433708382700,4.3643828125,-0.02687807008624077,0.7202101349830627,-0.024434609338641167
1732873433718384600,4.374384521484375,-0.1160643994808197,0.423329621553421,-0.6285803318023682
1732873433728371700,4.384371826171875,-0.07696902006864548,0.03298672288656235,-1.197906732559204
1732873433738403000,4.394403076171875,-0.09285151958465576,-0.5125159621238708,-1.6303993463516235
1732873433748361000,4.40436083984375,-0.1661553531885147,-0.9474520087242126,-1.871691107749939
1732873433758392300,4.414392333984375,-0.24007004499435425,-1.2327260971069336,-1.8851301670074463
1732873433768380400,4.42438037109375,-0.29626965522766113,-1.2773191928863525,-1.644449234008789
1732873433778381300,4.43438134765625,-0.26572638750076294,-0.912021815776825,-0.921795666217804
1732873433788369400,4.444369384765625,-0.18509216606616974,-0.47708576917648315,-0.37140607833862305
1732873433798400300,4.454400146484375,-0.11545353382825851,-0.018325956538319588,0.10567969083786011
1732873433808358700,4.464358642578125,-0.06902777403593063,0.38606682419776917,0.42210787534713745
1732873433818389200,4.47438916015625,-0.03237585723400116,0.6188064813613892,0.5503895878791809
1732873433828377900,4.4843779296875,-0.018936822190880775,0.6817256212234497,0.5204572081565857
1732873433838378500,4.49437841796875,-0.0507018156349659,0.5564982295036316,0.394008070230484
1732873433848366800,4.504366943359375,-0.10995574295520782,0.2125810980796814,0.1612684279680252
1732873433858398000,4.51439794921875,-0.13927727937698364,-0.0012217304902151227,0.02932153269648552
1732873433868386600,4.524386474609375,-0.16310101747512817,-0.14782938361167908,-0.0507018156349659
1732873433878387000,4.534386962890625,-0.1667662113904953,-0.21868975460529327,-0.07269296050071716
1732873433888375600,4.54437548828125,-0.15454891324043274,-0.22968533635139465,-0.04459316283464432
1732873433898406700,4.55440673828125,-0.1466076523065567,-0.20036379992961884,0.019547687843441963
1732873433908364500,4.564364501953125,-0.1459967941045761,-0.11972958594560623,0.09834930300712585
1732873433918395600,4.574395751953125,-0.1514945775270462,0.0012217304902151227,0.2223549485206604
1732873433928412700,4.58441259765625,-0.13927727937698364,0.04214970022439957,0.27061331272125244
1732873433938383600,4.594383544921875,-0.11728613078594208,0.05497787147760391,0.2871066629886627
1732873433948373000,4.604373046875,-0.11728613078594208,0.03848451003432274,0.2724458873271942
1732873433958404000,4.614404052734375,-0.13744467496871948,0.02626720629632473,0.23029619455337524
1732873433968362200,4.6243623046875,-0.16982053220272064,0.010995574295520782,0.17898350954055786
1732873433978393300,4.634393310546875,-0.19792033731937408,-0.045204028487205505,0.1313360333442688
1732873433988381700,4.644381591796875,-0.23640485107898712,-0.10690141469240189,0.07452555745840073
1732873433998382300,4.65438232421875,-0.2926044464111328,-0.12217304855585098,-0.025045474991202354
1732873434008370400,4.664370361328125,-0.2981022298336029,-0.09224065393209457,-0.08674286305904388
1732873434018401800,4.67440185546875,-0.27550023794174194,-0.036041051149368286,-0.12400564551353455
1732873434028486100,4.684486083984375,-0.23945917189121246,0.029932396486401558,-0.11178833991289139
1732873434038517200,4.694517333984375,-0.20830504596233368,0.09834930300712585,-0.04886921867728233
1732873434048505600,4.704505615234375,-0.18570303916931152,0.1472185254096985,0.02871066704392433
1732873434058506800,4.7145068359375,-0.17776179313659668,0.1569923609495163,0.10934487730264664
1732873434068494800,4.724494873046875,-0.23579397797584534,0.06291911751031876,0.23151792585849762
1732873434078526000,4.73452587890625,-0.2932153046131134,-0.025656340643763542,0.29138273000717163
1732873434088483600,4.744483642578125,-0.3341432809829712,-0.13072516024112701,0.2987131178379059
1732873434098514700,4.7545146484375,-0.3683517575263977,-0.2535090744495392,0.2577851414680481
1732873434108503000,4.7645029296875,-0.38117989897727966,-0.323147714138031,0.17959438264369965
1732873434118534400,4.774534423828125,-0.37201693654060364,-0.303600013256073,0.09162978827953339
1732873434128492300,4.7844921875,-0.3243694305419922,-0.20036379992961884,0.0006108652451075613
1732873434138524000,4.79452392578125,-0.22357667982578278,0.06536258012056351,-0.1918116807937622
1732873434148511700,4.80451171875,-0.19303341209888458,0.1667662113904953,-0.34574973583221436
1732873434158513000,4.814512939453125,-0.22540926933288574,0.10567969083786011,-0.4447098970413208
1732873434168500700,4.824500732421875,-0.3029891550540924,-0.10812314599752426,-0.4031710624694824
1732873434178532400,4.834532470703125,-0.35185837745666504,-0.38240164518356323,-0.16432274878025055
1732873434188489700,4.84448974609375,-0.3903428912162781,-0.5626068711280823,0.24495697021484375
1732873434198521000,4.85452099609375,-0.42271876335144043,-0.6041457056999207,0.6841690540313721
1732873434208509200,4.86450927734375,-0.4447098970413208,-0.5002986192703247,1.017701506614685
1732873434218509600,4.874509521484375,-0.3842342495918274,-0.2021963894367218,1.2553280591964722
1732873434228498400,4.88449853515625,-0.33597588539123535,0.039095375686883926,1.1911872625350952
1732873434238528500,4.894528564453125,-0.31642818450927734,0.25473082065582275,0.9511171579360962
1732873434248487400,4.9044873046875,-0.3335324227809906,0.36590829491615295,0.5864306092262268
1732873434258517500,4.914517578125,-0.3787364661693573,0.3194825351238251,0.1264491081237793
1732873434268507000,4.9245068359375,-0.4392121136188507,0.1716531366109848,-0.38728857040405273
1732873434278508000,4.934508056640625,-0.4917465150356293,-0.031154127791523933,-0.8582656979560852
1732873434288495900,4.944495849609375,-0.5375614166259766,-0.4147774875164032,-1.2870930433273315
1732873434298527500,4.954527587890625,-0.53328537940979,-0.588263213634491,-1.3365731239318848
1732873434308484900,4.96448486328125,-0.5259549617767334,-0.6621779203414917,-1.218676209449768
1732873434318516500,4.9745166015625,-0.5174028873443604,-0.6218608021736145,-0.9651671051979065
1732873434328504600,4.984504638671875,-0.503963828086853,-0.48319441080093384,-0.6346889734268188
1732873434338505200,4.994505126953125,-0.4996877610683441,-0.28466320037841797,-0.3176499307155609
1732873434348493300,5.004493408203125,-0.48808133602142334,-0.08124507963657379,-0.09040805697441101
1732873434358525000,5.01452490234375,-0.49235737323760986,0.13927727937698364,0.05314527451992035
1732873434368513000,5.024512939453125,-0.5070181488990784,0.18875735998153687,0.05192354694008827
1732873434378513000,5.034512939453125,-0.5302310585975647,0.18325957655906677,0.0006108652451075613
1732873434388502000,5.044501953125,-0.5571091175079346,0.13072516024112701,-0.06841690838336945
1732873434398532900,5.054532958984375,-0.5913175344467163,0.06475171446800232,-0.12034045159816742
1732873434408491000,5.064490966796875,-0.6145304441452026,0.01710422709584236,-0.13988813757896423
1732873434418522000,5.074522216796875,-0.617584764957428,-0.012828170321881771,-0.13316862285137177
1732873434428510500,5.084510498046875,-0.608421802520752,-0.02015855349600315,-0.10690141469240189
1732873434438511000,5.094510986328125,-0.5766568183898926,-0.0024434609804302454,-0.03481931984424591
1732873434448499700,5.104499755859375,-0.5595525503158569,0.03848451003432274,0.015271631069481373
1732873434458531000,5.114531005859375,-0.5522221922874451,0.08368854224681854,0.04581489413976669
1732873434468488700,5.12448876953125,-0.5558874011039734,0.12217304855585098,0.0555887371301651
1732873434478520300,5.134520263671875,-0.5729916095733643,0.1362229436635971,0.05619960278272629
1732873434488508200,5.144508056640625,-0.6035348773002625,0.1215621829032898,0.05803219974040985
1732873434498509300,5.15450927734375,-0.6414085030555725,0.08185594528913498,0.06780604273080826
1732873434508497200,5.1644970703125,-0.7134906053543091,0.02015855349600315,0.1062905490398407
1732873434518529000,5.174529052734375,-0.7617489695549011,-0.006108652334660292,0.1411098688840866
1732873434528486100,5.184486083984375,-0.8032878041267395,-0.009773843921720982,0.16859880089759827
1732873434538517800,5.194517822265625,-0.8405506014823914,-0.01160643994808197,0.17776179313659668
1732873434548505600,5.204505615234375,-0.8704829812049866,-0.01771509274840355,0.16859880089759827
1732873434558506800,5.2145068359375,-0.8912523984909058,-0.04092797264456749,0.15882496535778046
1732873434568494800,5.224494873046875,-0.9004153609275818,-0.05742133408784866,0.15454891324043274
1732873434578526500,5.2345263671875,-0.8912523984909058,-0.04398229718208313,0.1362229436635971
1732873434588483800,5.24448388671875,-0.8875871896743774,-0.019547687843441963,0.12278391420841217
1732873434598514400,5.254514404296875,-0.8851437568664551,0.014049900695681572,0.11545353382825851
1732873434608502800,5.264502685546875,-0.8881980776786804,0.0403171069920063,0.11972958594560623
1732873434618534100,5.2745341796875,-0.8943067193031311,0.07696902006864548,0.12767083942890167
1732873434628491800,5.28449169921875,-0.8949176073074341,0.15821409225463867,0.12461651116609573
1732873434638523400,5.2945234375,-0.8863654732704163,0.2773328125476837,0.09957103431224823
1732873434648511500,5.304511474609375,-0.8759807348251343,0.3885102868080139,0.04581489413976669
1732873434658512600,5.3145126953125,-0.8845328688621521,0.42760565876960754,-0.0507018156349659
1732873434668500500,5.32450048828125,-0.9297369122505188,0.2791654169559479,-0.07757988572120667
1732873434678532000,5.334531982421875,-1.0024298429489136,-0.05497787147760391,-0.004886921960860491
1732873434688489200,5.3444892578125,-1.120937705039978,-0.47769662737846375,0.1765400618314743
1732873434698521300,5.354521240234375,-1.2296717166900635,-0.7538077235221863,0.40256020426750183
1732873434708509200,5.36450927734375,-1.2889256477355957,-0.8350527882575989,0.6102544069290161
1732873434718510300,5.37451025390625,-1.2956452369689941,-0.7574729323387146,0.7831292152404785
1732873434728498400,5.38449853515625,-1.2327260971069336,-0.4398229718208313,0.9370672702789307
1732873434738529500,5.394529541015625,-1.1728612184524536,-0.1313360333442688,0.941343367099762
1732873434748487400,5.4044873046875,-1.1362093687057495,0.15515977144241333,0.8582656979560852
1732873434758518500,5.4145185546875,-1.1288789510726929,0.35124751925468445,0.6982190012931824
1732873434768507000,5.4245068359375,-1.1386528015136719,0.4105014503002167,0.4795292317867279
1732873434778507500,5.434507568359375,-1.1410962343215942,0.34697145223617554,0.22296582162380219
1732873434788496000,5.444495849609375,-1.1246029138565063,0.19120082259178162,-0.04642575979232788
1732873434798527000,5.45452685546875,-1.0922271013259888,-0.182648703455925,-0.4349360466003418
1732873434808484900,5.46448486328125,-1.111163854598999,-0.45631635189056396,-0.675006091594696
1732873434818516500,5.4745166015625,-1.178359031677246,-0.7043276429176331,-0.8753699064254761
1732873434828504300,5.48450439453125,-1.2492194175720215,-0.8991936445236206,-1.0183123350143433
1732873434838505700,5.494505615234375,-1.3060299158096313,-1.006095051765442,-1.0934487581253052
1732873434848493600,5.50449365234375,-1.3542882204055786,-1.0109820365905762,-1.076344609260559
1732873434858525200,5.514525146484375,-1.3915510177612305,-0.9279043078422546,-0.9480628371238708
1732873434868513000,5.524512939453125,-1.4135421514511108,-0.749531626701355,-0.7195992469787598
1732873434878514200,5.53451416015625,-1.4007140398025513,-0.37751471996307373,-0.2571742534637451
1732873434888502000,5.544501953125,-1.3701707124710083,-0.15271630883216858,0.05497787147760391
1732873434898533600,5.55453369140625,-1.359786033630371,-0.02015855349600315,0.28649580478668213
1732873434908491000,5.564490966796875,-1.3720033168792725,0.0403171069920063,0.40744712948799133
1732873434918521900,5.57452197265625,-1.3799445629119873,0.010995574295520782,0.44165557622909546
1732873434928510500,5.584510498046875,-1.3921618461608887,-0.07696902006864548,0.4092797040939331
1732873434938511400,5.594511474609375,-1.4001030921936035,-0.16982053220272064,0.32559117674827576
1732873434948499500,5.60449951171875,-1.3952162265777588,-0.2791654169559479,0.15577064454555511
1732873434958530800,5.61453076171875,-1.3927727937698364,-0.3127630054950714,0.039706241339445114
1732873434968488700,5.62448876953125,-1.3866641521453857,-0.29993483424186707,-0.0659734457731247
1732873434978519600,5.63451953125,-1.3726142644882202,-0.2577851414680481,-0.1459967941045761
1732873434988508200,5.644508056640625,-1.3646728992462158,-0.20586158335208893,-0.19914206862449646
1732873434998509300,5.65450927734375,-1.361007809638977,-0.1722639948129654,-0.2278527319431305
1732873435008497000,5.664496826171875,-1.3573426008224487,-0.16493362188339233,-0.2321287989616394
1732873435018529000,5.674529052734375,-1.330464482307434,-0.19058994948863983,-0.1966986060142517
1732873435028486100,5.684486083984375,-1.2822061777114868,-0.2174680233001709,-0.15943582355976105
1732873435038516500,5.6945166015625,-1.2235630750656128,-0.23945917189121246,-0.11789698898792267
1732873435048505600,5.704505615234375,-1.1649199724197388,-0.26022860407829285,-0.07757988572120667
1732873435058505500,5.71450537109375,-1.1099421977996826,-0.2681698501110077,-0.04398229718208313
1732873435068494800,5.724494873046875,-1.06657075881958,-0.26633724570274353,-0.02626720629632473
1732873435078526200,5.734526123046875,-1.0396926403045654,-0.26572638750076294,-0.027488935738801956
1732873435088483600,5.744483642578125,-1.026253581047058,-0.27122417092323303,-0.04703662544488907
1732873435098515500,5.754515380859375,-1.0042624473571777,-0.30115658044815063,-0.11545353382825851
1732873435108503300,5.76450341796875,-1.0036516189575195,-0.3286454975605011,-0.16554448008537292
1732873435118535000,5.774534912109375,-1.0152580738067627,-0.36529740691185,-0.20036379992961884
1732873435128492000,5.784491943359375,-1.027475357055664,-0.3836233615875244,-0.2125810980796814
1732873435138524000,5.79452392578125,-1.0293079614639282,-0.37079519033432007,-0.1973094791173935
1732873435148511700,5.80451171875,-1.0268645286560059,-0.35124751925468445,-0.1459967941045761
1732873435158513000,5.814512939453125,-1.0225883722305298,-0.3396410644054413,-0.06414084881544113
1732873435168500700,5.824500732421875,-1.017701506614685,-0.31642818450927734,0.07147123664617538
1732873435178532400,5.834532470703125,-1.0268645286560059,-0.28588494658470154,0.14416420459747314
1732873435188489700,5.84448974609375,-1.0433578491210938,-0.23884831368923187,0.18020524084568024
1732873435198521600,5.854521484375,-1.062294602394104,-0.1869247704744339,0.18020524084568024
1732873435208509200,5.86450927734375,-1.0726794004440308,-0.13011430203914642,0.14049901068210602
1732873435218510300,5.87451025390625,-1.0739010572433472,-0.10812314599752426,0.08491026610136032
1732873435228498200,5.884498291015625,-1.0824532508850098,-0.12767083942890167,0.02687807008624077
1732873435238529800,5.89452978515625,-1.1203268766403198,-0.21380282938480377,-0.007941247895359993
1732873435248487400,5.9044873046875,-1.1447614431381226,-0.28527405858039856,0.03726277872920036
1732873435258519000,5.91451904296875,-1.1759155988693237,-0.32681289315223694,0.14355333149433136
1732873435268507000,5.9245068359375,-1.2034045457839966,-0.3017674386501312,0.28649580478668213
1732873435278508000,5.934508056640625,-1.2229522466659546,-0.22052235901355743,0.43127086758613586
1732873435288495900,5.944495849609375,-1.2235630750656128,-0.1014036312699318,0.5369505286216736
1732873435298527500,5.954527587890625,-1.2119566202163696,0.019547687843441963,0.5858197808265686
1732873435308484900,5.96448486328125,-1.2101240158081055,0.05314527451992035,0.5858197808265686
1732873435318516500,5.9745166015625,-1.2510520219802856,-0.056810468435287476,0.5320636034011841
1732873435328504300,5.98450439453125,-1.2846496105194092,-0.1869247704744339,0.49357911944389343
1732873435338505500,5.99450537109375,-1.312138557434082,-0.3072652220726013,0.4660901725292206
1732873435348493600,6.00449365234375,-1.3396275043487549,-0.39217549562454224,0.4544837474822998
1732873435358525000,6.01452490234375,-1.3555099964141846,-0.4153883755207062,0.4440990388393402
1732873435368513300,6.02451318359375,-1.356731653213501,-0.36590829491615295,0.41661009192466736
1732873435378513400,6.034513427734375,-1.3420709371566772,-0.26083946228027344,0.3585779070854187
1732873435388502000,6.044501953125,-1.2974777221679688,-0.02015855349600315,0.17776179313659668
1732873435398532900,6.054532958984375,-1.2705997228622437,0.11301007121801376,-0.0024434609804302454
1732873435408491000,6.064490966796875,-1.253495454788208,0.1716531366109848,-0.20586158335208893
1732873435418522600,6.074522705078125,-1.2388347387313843,0.1508837193250656,-0.4031710624694824
1732873435428510500,6.084510498046875,-1.2211196422576904,0.06291911751031876,-0.5607742667198181
1732873435438511900,6.094511962890625,-1.197295904159546,-0.0757472887635231,-0.6585127115249634
1732873435448499700,6.104499755859375,-1.1655309200286865,-0.21868975460529327,-0.6866125464439392
1732873435458531300,6.11453125,-1.1197160482406616,-0.3878994286060333,-0.5711590051651001
1732873435468488700,6.12448876953125,-1.0891727209091187,-0.4599815309047699,-0.3982841372489929
1732873435478520300,6.134520263671875,-1.0598511695861816,-0.4703662395477295,-0.19975294172763824
1732873435488508200,6.144508056640625,-1.026253581047058,-0.4300491213798523,-0.021991148591041565
1732873435498509300,6.15450927734375,-0.9975429177284241,-0.36163222789764404,0.10201449692249298
1732873435508497200,6.1644970703125,-0.970054030418396,-0.2834414839744568,0.17104226350784302
1732873435518528000,6.174528076171875,-0.9492846131324768,-0.21380282938480377,0.20586158335208893
1732873435528486100,6.184486083984375,-0.9334021210670471,-0.14782938361167908,0.2223549485206604
1732873435538517200,6.194517333984375,-0.9162978529930115,-0.1007927656173706,0.21624629199504852
1732873435548505900,6.204505859375,-0.902247965335846,-0.1111774742603302,0.20036379992961884
1732873435558506500,6.214506591796875,-0.8765916228294373,-0.1313360333442688,0.1771509200334549
1732873435568494800,6.224494873046875,-0.8332201838493347,-0.13988813757896423,0.1508837193250656
1732873435578525200,6.234525146484375,-0.7373143434524536,-0.08491026610136032,0.10934487730264664
1732873435588483800,6.24448388671875,-0.6291912198066711,-0.06475171446800232,0.04642575979232788
1732873435598514000,6.254513916015625,-0.5601634383201599,-0.05925392732024193,-0.03481931984424591
1732873435608502800,6.264502685546875,-0.5015203952789307,-0.06658431142568588,-0.16737708449363708
1732873435618534000,6.274533935546875,-0.48197266459465027,-0.039706241339445114,-0.23090706765651703
1732873435628491800,6.28449169921875,-0.48258355259895325,0.02626720629632473,-0.24923302233219147
1732873435638523000,6.29452294921875,-0.494189977645874,0.10812314599752426,-0.2272418737411499
1732873435648511500,6.304511474609375,-0.5070181488990784,0.1472185254096985,-0.18997909128665924
1732873435658512000,6.314511962890625,-0.5155702829360962,0.14782938361167908,-0.15027284622192383
1732873435668500500,6.32450048828125,-0.5119050741195679,0.09957103431224823,-0.11545353382825851
1732873435678531300,6.33453125,-0.4691445231437683,-0.01710422709584236,-0.08491026610136032
1732873435688489200,6.3444892578125,-0.4251621961593628,-0.08002334833145142,-0.06169738993048668
1732873435698520800,6.354520751953125,-0.36713001132011414,-0.08918632566928864,-0.030543262138962746
1732873435708509200,6.36450927734375,-0.3194825351238251,-0.0507018156349659,0.00855211354792118
1732873435718509800,6.374509765625,-0.2834414839744568,0.02015855349600315,0.04214970022439957
1732873435728498200,6.384498291015625,-0.2571742534637451,0.10018189996480942,0.0555887371301651
1732873435738529500,6.394529541015625,-0.23457226157188416,0.16982053220272064,0.04214970022439957
1732873435748487400,6.4044873046875,-0.18631389737129211,0.18387043476104736,0.016493361443281174
1732873435758518500,6.4145185546875,-0.1062905490398407,0.18875735998153687,-0.02382374368607998
1732873435768507000,6.4245068359375,-0.09285151958465576,0.16737708449363708,-0.018325956538319588
1732873435778507300,6.43450732421875,-0.0806342139840126,0.17531833052635193,0.0012217304902151227
1732873435788496000,6.444495849609375,-0.0708603709936142,0.1722639948129654,0.03481931984424591
1732873435798526700,6.454526611328125,-0.06169738993048668,0.14233160018920898,0.09896016865968704
1732873435808484900,6.46448486328125,-0.051312681287527084,0.13561208546161652,0.1569923609495163
1732873435818516000,6.474515869140625,-0.018325956538319588,0.12828169763088226,0.18814650177955627
1732873435828504300,6.48450439453125,0.012217304669320583,0.03420845419168472,0.16310101747512817
1732873435838505500,6.49450537109375,0.02871066704392433,-0.06841690838336945,0.10262536257505417
1732873435848493600,6.50449365234375,0.07391469180583954,-0.1820378452539444,0.0555887371301651
1732873435858525000,6.51452490234375,0.11423180252313614,-0.303600013256073,0.06536258012056351
1732873435868513000,6.524512939453125,0.12950342893600464,-0.40744712948799133,0.15393804013729095
1732873435878514000,6.534513916015625,0.11850785464048386,-0.46792277693748474,0.3139847218990326
1732873435888502000,6.544501953125,0.09224065393209457,-0.4691445231437683,0.504574716091156
1732873435898533600,6.55453369140625,0.042760565876960754,-0.34697145223617554,0.7562511563301086
1732873435908491000,6.564490966796875,0.007941247895359993,-0.2015855312347412,0.8833111524581909
1732873435918522400,6.5745224609375,0.02871066704392433,-0.04092797264456749,0.9590584635734558
1732873435928539100,6.5845390625,0.06902777403593063,0.0910189226269722,0.988379955291748
1732873435938511400,6.594511474609375,0.04642575979232788,0.17959438264369965,0.9676105380058289
1732873435948499500,6.60449951171875,0.013439035043120384,0.2223549485206604,0.8985827565193176
1732873435958529800,6.61452978515625,0.01038470957428217,0.2571742534637451,0.7965682744979858
1732873435968488700,6.62448876953125,0.04764748737215996,0.28527405858039856,0.6737843751907349
1732873435978518800,6.634518798828125,0.14233160018920898,0.2779437005519867,0.4642575979232788
1732873435988508200,6.644508056640625,0.2125810980796814,0.2321287989616394,0.3029891550540924
1732873435998508000,6.654508056640625,0.2883284091949463,0.14416420459747314,0.1160643994808197
1732873436008497000,6.664496826171875,0.33658674359321594,0.016493361443281174,-0.0959058403968811
1732873436018529000,6.674529052734375,0.2883284091949463,-0.16798794269561768,-0.3072652220726013
1732873436028486100,6.684486083984375,0.20952677726745605,-0.3280346393585205,-0.5051855444908142
1732873436038517500,6.694517578125,0.13500121235847473,-0.4404338300228119,-0.6505714654922485
1732873436048505600,6.704505615234375,0.03726277872920036,-0.5064072608947754,-0.7287622094154358
1732873436058506800,6.7145068359375,0.006719517521560192,-0.46670106053352356,-0.6792821288108826
1732873436068494800,6.724494873046875,-0.01038470957428217,-0.3689626157283783,-0.5534439086914062
1732873436078526200,6.734526123046875,-0.025045474991202354,-0.22052235901355743,-0.3830125033855438
1732873436088483600,6.744483642578125,-0.018325956538319588,-0.05253441259264946,-0.21074850857257843
1732873436098514400,6.754514404296875,0.0024434609804302454,0.10323622822761536,-0.06780604273080826
1732873436108503000,6.7645029296875,0.024434609338641167,0.22479841113090515,0.02015855349600315
1732873436118534100,6.7745341796875,0.06658431142568588,0.2987131178379059,0.04092797264456749
1732873436128492300,6.7844921875,0.07513642311096191,0.2718350291252136,-0.0024434609804302454
1732873436138523100,6.794523193359375,0.08124507963657379,0.21013765037059784,-0.07330382615327835
1732873436148511700,6.80451171875,0.08979719132184982,0.1258382350206375,-0.15821409225463867
1732873436158512000,6.81451220703125,0.09712757170200348,0.05742133408784866,-0.2480112910270691
1732873436168500700,6.824500732421875,0.11056660860776901,0.018936822190880775,-0.33169981837272644
1732873436178531800,6.83453173828125,0.12767083942890167,0.0024434609804302454,-0.39767327904701233
1732873436188489500,6.844489501953125,0.14294247329235077,-0.02382374368607998,-0.4447098970413208
1732873436198520600,6.8545205078125,0.16798794269561768,-0.039706241339445114,-0.45692721009254456
1732873436208509200,6.86450927734375,0.18570303916931152,-0.039706241339445114,-0.4147774875164032
1732873436218509800,6.874509765625,0.19058994948863983,-0.02871066704392433,-0.3390302062034607
1732873436228498200,6.884498291015625,0.17592918872833252,-0.004886921960860491,-0.24434609711170197
1732873436238529300,6.894529296875,0.14844025671482086,0.01466076634824276,-0.14538592100143433
1732873436248487400,6.9044873046875,0.10812314599752426,0.005497787147760391,-0.06169738993048668
1732873436258518500,6.9145185546875,0.09224065393209457,-0.02626720629632473,-0.006719517521560192
1732873436268507000,6.9245068359375,0.09346238523721695,-0.06719517707824707,0.03848451003432274
1732873436278507300,6.93450732421875,0.09773843735456467,-0.06230825558304787,0.06780604273080826
1732873436288495900,6.944495849609375,0.09773843735456467,-0.024434609338641167,0.10934487730264664
1732873436298526700,6.954526611328125,0.1007927656173706,0.027488935738801956,0.1508837193250656
1732873436308484900,6.96448486328125,0.09957103431224823,0.07819075137376785,0.17776179313659668
1732873436318515700,6.974515625,0.09896016865968704,0.1062905490398407,0.18570303916931152
1732873436328504600,6.984504638671875,0.08735372871160507,0.08124507963657379,0.17531833052635193
1732873436338505000,6.9945048828125,0.09285151958465576,0.039706241339445114,0.13011430203914642
1732873436348493600,7.00449365234375,0.09040805697441101,0.025656340643763542,0.07635815441608429
1732873436358524700,7.014524658203125,0.0910189226269722,0.039095375686883926,0.00427605677396059
1732873436368513000,7.024512939453125,0.08307767659425735,0.07330382615327835,-0.08124507963657379
1732873436378513400,7.034513427734375,0.07391469180583954,0.09896016865968704,-0.1618792861700058
1732873436388502000,7.044501953125,0.06352998316287994,0.08491026610136032,-0.22540926933288574
1732873436398532900,7.054532958984375,0.04948008432984352,0.03848451003432274,-0.26572638750076294
1732873436408491000,7.064490966796875,0.0403171069920063,-0.02076941914856434,-0.28649580478668213
1732873436418522000,7.074522216796875,0.03726277872920036,-0.03237585723400116,-0.31154128909111023
1732873436428510500,7.084510498046875,0.04092797264456749,0.03726277872920036,-0.35063666105270386
1732873436438511400,7.094511474609375,0.030543262138962746,0.11239920556545258,-0.40194934606552124
1732873436448499700,7.104499755859375,-0.018325956538319588,0.1411098688840866,-0.42149701714515686
1732873436458531000,7.114531005859375,-0.1062905490398407,0.07513642311096191,-0.3585779070854187
1732873436468488700,7.12448876953125,-0.23335053026676178,-0.07330382615327835,-0.20463985204696655
1732873436478520000,7.13452001953125,-0.4031710624694824,-0.2626720666885376,0.056810468435287476
1732873436488508200,7.144508056640625,-0.5613851547241211,-0.41722095012664795,0.5900958180427551
1732873436498509300,7.15450927734375,-0.5467243790626526,-0.384845107793808,0.9676105380058289
1732873436508497200,7.1644970703125,-0.5149593949317932,-0.2632829248905182,1.2822061777114868
1732873436518528300,7.1745283203125,-0.4899139404296875,-0.10201449692249298,1.46424400806427
1732873436528486100,7.184486083984375,-0.46853363513946533,0.06230825558304787,1.4666874408721924
1732873436538518500,7.1945185546875,-0.44837507605552673,0.20463985204696655,1.2760975360870361
1732873436548505900,7.204505859375,-0.44104471802711487,0.33292156457901,0.8955284357070923
1732873436558505500,7.21450537109375,-0.45326200127601624,0.4404338300228119,0.06963863968849182
1732873436568494800,7.224494873046875,-0.48747047781944275,0.42149701714515686,-0.5143485069274902
1732873436578526500,7.2345263671875,-0.5167919993400574,0.28099802136421204,-0.9957103729248047
1732873436588483800,7.24448388671875,-0.5302310585975647,0.06841690838336945,-1.3078625202178955
1732873436598514400,7.254514404296875,-0.5265658497810364,-0.12889257073402405,-1.4440854787826538
1732873436608502800,7.264502685546875,-0.5070181488990784,-0.26939156651496887,-1.4037683010101318
1732873436618534100,7.2745341796875,-0.4660901725292206,-0.36529740691185,-1.1936306953430176
1732873436628491800,7.28449169921875,-0.3897320330142975,-0.40072759985923767,-0.8546004891395569
1732873436638523400,7.2945234375,-0.24373523890972137,-0.29993483424186707,-0.23396138846874237
1732873436648511500,7.304511474609375,-0.16982053220272064,-0.15271630883216858,0.13316862285137177
1732873436658512600,7.3145126953125,-0.09346238523721695,0.00366519158706069,0.3628539443016052
1732873436668500500,7.32450048828125,-0.031154127791523933,0.11545353382825851,0.45204028487205505
1732873436678531300,7.33453125,0,0.16004669666290283,0.43188172578811646
1732873436688489200,7.3444892578125,0.0006108652451075613,0.18081611394882202,0.32986724376678467
1732873436698520600,7.3545205078125,-0.018325956538319588,0.192422553896904,0.1869247704744339
1732873436708509200,7.36450927734375,-0.04886921867728233,0.17043140530586243,0.00427605677396059
1732873436718509800,7.374509765625,-0.054367005825042725,0.12034045159816742,-0.04398229718208313
1732873436728498200,7.384498291015625,-0.05314527451992035,0.0708603709936142,-0.03176499158143997
1732873436738529500,7.394529541015625,-0.05314527451992035,0.04948008432984352,0.022602014243602753
1732873436748487400,7.4044873046875,-0.04337143152952194,0.03787364438176155,0.09040805697441101
1732873436758518300,7.414518310546875,-0.02687807008624077,0.03237585723400116,0.14477506279945374
1732873436768507000,7.4245068359375,-0.00855211354792118,0.02932153269648552,0.1814269721508026
1732873436778507300,7.43450732421875,0.012217304669320583,0.04092797264456749,0.18387043476104736
1732873436788496000,7.444495849609375,0.03237585723400116,0.05803219974040985,0.1417207419872284
1732873436798526700,7.454526611328125,0.0507018156349659,0.06230825558304787,0.08918632566928864
1732873436808484900,7.46448486328125,0.051312681287527084,0.06414084881544113,0.060475658625364304
1732873436818516000,7.474515869140625,0.05253441259264946,0.06902777403593063,0.056810468435287476
1732873436828504300,7.48450439453125,0.04337143152952194,0.09407325088977814,0.0659734457731247
1732873436838505500,7.49450537109375,0.03787364438176155,0.16493362188339233,0.07330382615327835
1732873436848493600,7.50449365234375,0.03420845419168472,0.21502456068992615,0.08429940044879913
1732873436858525000,7.51452490234375,0.042760565876960754,0.2877175211906433,0.09040805697441101
1732873436868513000,7.524512939453125,0.05619960278272629,0.28099802136421204,0.06841690838336945
1732873436878514000,7.534513916015625,0.06230825558304787,0.20341812074184418,0.031154127791523933
1732873436888502000,7.544501953125,0.06475171446800232,0.07757988572120667,-0.015271631069481373
1732873436898533600,7.55453369140625,0.060475658625364304,-0.056810468435287476,-0.06169738993048668
1732873436908491000,7.564490966796875,0.059864792972803116,-0.18020524084568024,-0.08246681094169617
1732873436918521600,7.574521484375,0.07391469180583954,-0.2773328125476837,-0.0757472887635231
1732873436928510500,7.584510498046875,0.10018189996480942,-0.28099802136421204,-0.04214970022439957
1732873436938511000,7.594510986328125,0.13377949595451355,-0.19914206862449646,-0.012828170321881771
1732873436948499500,7.60449951171875,0.18325957655906677,-0.08491026610136032,0.00427605677396059
1732873436958530800,7.61453076171875,0.24190263450145721,0.05619960278272629,0.0006108652451075613
1732873436968488700,7.62448876953125,0.294437050819397,0.1918116807937622,-0.06902777403593063
1732873436978518800,7.634518798828125,0.3170390725135803,0.2834414839744568,-0.21563543379306793
1732873436988508200,7.644508056640625,0.31093040108680725,0.25961771607398987,-0.3885102868080139
1732873436998509000,7.654509033203125,0.18997909128665924,-0.09896016865968704,-0.5216789245605469
1732873437008497000,7.664496826171875,0.07880161702632904,-0.4740314185619354,-0.4544837474822998
1732873437018528800,7.67452880859375,-0.0012217304902151227,-0.8484918475151062,-0.19364428520202637
1732873437028486100,7.684486083984375,-0.03237585723400116,-1.064738154411316,0.24678955972194672
1732873437038517500,7.694517578125,0.0024434609804302454,-1.0415252447128296,0.7422012686729431
1732873437048505600,7.704505615234375,0.06169738993048668,-0.7733554244041443,1.1948524713516235
1732873437058505500,7.71450537109375,0.15271630883216858,-0.323147714138031,1.538158655166626
1732873437068494800,7.724494873046875,0.27061331272125244,0.17837265133857727,1.7061465978622437
1732873437078527000,7.73452685546875,0.42638394236564636,0.8460483551025391,1.547932505607605
1732873437088483600,7.744483642578125,0.48197266459465027,1.131933331489563,1.197295904159546
1732873437098516000,7.754515869140625,0.5106833577156067,1.238223910331726,0.7263187766075134
1732873437108503000,7.7645029296875,0.5180137157440186,1.1172724962234497,0.2168571650981903
1732873437118533600,7.77453369140625,0.4856378734111786,0.807563841342926,-0.2687807083129883
1732873437128492300,7.7844921875,0.43799036741256714,0.3891211748123169,-0.685390830039978
1732873437138522600,7.794522705078125,0.37751471996307373,-0.07941248267889023,-1.0134254693984985
1732873437148511700,7.80451171875,0.25473082065582275,-0.6591235995292664,-1.282817006111145
1732873437158512600,7.8145126953125,0.192422553896904,-0.8827002644538879,-1.2791517972946167
1732873437168500700,7.824500732421875,0.14844025671482086,-0.9810495972633362,-1.1349875926971436
1732873437178532400,7.834532470703125,0.11484266817569733,-0.9743300676345825,-0.8796459436416626
1732873437188489700,7.84448974609375,0.11301007121801376,-0.8252789378166199,-0.5723807215690613
1732873437198521300,7.854521240234375,0.15454891324043274,-0.5387831330299377,-0.26145032048225403
1732873437208509200,7.86450927734375,0.21868975460529327,-0.19547687470912933,0.027488935738801956
1732873437218509800,7.874509765625,0.2889392673969269,0.27977627515792847,0.33475416898727417
1732873437228498200,7.884498291015625,0.3066543638706207,0.4434881806373596,0.4288274049758911
1732873437238529300,7.894529296875,0.28649580478668213,0.47219884395599365,0.4349360466003418
1732873437248487400,7.9044873046875,0.24678955972194672,0.40683624148368835,0.37262779474258423
1732873437258518500,7.9145185546875,0.20341812074184418,0.27611109614372253,0.26083946228027344
1732873437268507000,7.9245068359375,0.16493362188339233,0.11850785464048386,0.11911872029304504
1732873437278507500,7.934507568359375,0.13744467496871948,-0.025656340643763542,-0.028099801391363144
1732873437288495900,7.944495849609375,0.12217304855585098,-0.11789698898792267,-0.14966198801994324
1732873437298526700,7.954526611328125,0.12278391420841217,-0.14905111491680145,-0.2376265823841095
1732873437308484900,7.96448486328125,0.13439035415649414,-0.11239920556545258,-0.23151792585849762
1732873437318516500,7.9745166015625,0.1508837193250656,-0.0555887371301651,-0.1814269721508026
1732873437328504300,7.98450439453125,0.16737708449363708,0.012828170321881771,-0.10262536257505417
1732873437338505000,7.9945048828125,0.1814269721508026,0.08491026610136032,-0.006719517521560192
1732873437348493600,8.00449365234375,0.1875356286764145,0.14782938361167908,0.0959058403968811
1732873437358524700,8.014524658203126,0.1918116807937622,0.19547687470912933,0.18814650177955627
1732873437368513000,8.024512939453125,0.1722639948129654,0.23457226157188416,0.2742784917354584
1732873437378513400,8.034513427734375,0.1472185254096985,0.2223549485206604,0.2791654169559479
1732873437388502000,8.044501953125,0.10812314599752426,0.17409659922122955,0.23029619455337524
1732873437398532900,8.054532958984375,0.06658431142568588,0.1007927656173706,0.14416420459747314
1732873437408491000,8.064490966796875,0.022602014243602753,0.00427605677396059,0.04948008432984352
1732873437418522400,8.0745224609375,-0.012217304669320583,-0.09224065393209457,-0.031154127791523933
1732873437428510500,8.084510498046875,-0.04153883829712868,-0.17592918872833252,-0.08674286305904388
1732873437438511600,8.09451171875,-0.06902777403593063,-0.2474004179239273,-0.09407325088977814
1732873437448499700,8.104499755859376,-0.07269296050071716,-0.24923302233219147,-0.04581489413976669
1732873437458530600,8.114530517578125,-0.054367005825042725,-0.21135938167572021,0.013439035043120384
1732873437468488700,8.12448876953125,-0.0354301854968071,-0.13805554807186127,0.04092797264456749
1732873437478519600,8.13451953125,-0.02321287989616394,-0.06536258012056351,0.015882495790719986
1732873437488508200,8.144508056640625,-0.018325956538319588,0.00427605677396059,-0.06780604273080826
1732873437498509300,8.15450927734375,-0.022602014243602753,0.06108652427792549,-0.20402899384498596
1732873437508497200,8.1644970703125,-0.04642575979232788,0.08796459436416626,-0.36224308609962463
1732873437518528500,8.174528564453125,-0.10690141469240189,0.029932396486401558,-0.5601634383201599
1732873437528486100,8.184486083984375,-0.13316862285137177,-0.05803219974040985,-0.607810914516449
1732873437538517800,8.194517822265626,-0.1472185254096985,-0.1966986060142517,-0.5345070958137512
1732873437548505900,8.204505859375,-0.14294247329235077,-0.3078760802745819,-0.2987131178379059
1732873437558506800,8.2145068359375,-0.12950342893600464,-0.34086281061172485,0.08491026610136032
1732873437568494800,8.224494873046876,-0.12034045159816742,-0.24617868661880493,0.5302310585975647
1732873437578526200,8.234526123046875,-0.09346238523721695,-0.06963863968849182,0.902247965335846
1732873437588483800,8.24448388671875,-0.0354301854968071,0.21074850857257843,1.228450059890747
1732873437598514000,8.254513916015625,-0.02321287989616394,0.3494149148464203,1.2498302459716797
1732873437608502800,8.264502685546875,-0.024434609338641167,0.44715335965156555,1.1081095933914185
1732873437618534000,8.274533935546875,-0.036041051149368286,0.5082398653030396,0.8197811841964722
1732873437628491800,8.28449169921875,-0.060475658625364304,0.5082398653030396,0.42760565876960754
1732873437638523000,8.29452294921875,-0.09712757170200348,0.4331034719944,-0.012217304669320583
1732873437648511500,8.304511474609376,-0.14049901068210602,0.2889392673969269,-0.4453207552433014
1732873437658512400,8.314512451171876,-0.21441370248794556,-0.014049900695681572,-0.940732479095459
1732873437668500200,8.324500244140625,-0.24373523890972137,-0.20891591906547546,-1.1197160482406616
1732873437678531800,8.33453173828125,-0.24068090319633484,-0.3378084897994995,-1.1722503900527954
1732873437688489200,8.3444892578125,-0.21563543379306793,-0.4001167416572571,-1.081842303276062
1732873437698521300,8.354521240234375,-0.17837265133857727,-0.4105014503002167,-0.8625417351722717
1732873437708509200,8.36450927734375,-0.13316862285137177,-0.35552358627319336,-0.5711590051651001
1732873437718510300,8.37451025390625,-0.0959058403968811,-0.2217440903186798,-0.25595253705978394
1732873437728498200,8.384498291015625,-0.054367005825042725,-0.04337143152952194,0.02932153269648552
1732873437738529800,8.39452978515625,0.016493361443281174,0.21380282938480377,0.3084869384765625
1732873437748487400,8.4044873046875,0.048258353024721146,0.303600013256073,0.4031710624694824
1732873437758518300,8.414518310546875,0.060475658625364304,0.32131510972976685,0.43127086758613586
1732873437768507000,8.4245068359375,0.0659734457731247,0.29138273000717163,0.3982841372489929
1732873437778507300,8.43450732421875,0.07513642311096191,0.2431243658065796,0.3121521472930908
1732873437788496000,8.444495849609375,0.07941248267889023,0.19120082259178162,0.2028072625398636
1732873437798526700,8.454526611328125,0.08307767659425735,0.14355333149433136,0.08796459436416626
1732873437808484900,8.46448486328125,0.10201449692249298,0.10262536257505417,-0.07880161702632904
1732873437818515700,8.474515625,0.1160643994808197,0.1062905490398407,-0.16004669666290283
1732873437828504300,8.48450439453125,0.13377949595451355,0.12400564551353455,-0.21380282938480377
1732873437838505000,8.4945048828125,0.1569923609495163,0.13988813757896423,-0.25045475363731384
1732873437848493600,8.50449365234375,0.18081611394882202,0.14416420459747314,-0.2822197377681732
1732873437858525000,8.51452490234375,0.1973094791173935,0.1160643994808197,-0.31154128909111023
1732873437868513000,8.524512939453125,0.20525072515010834,0.10018189996480942,-0.33658674359321594
1732873437878514000,8.534513916015625,0.2278527319431305,0.05497787147760391,-0.35613444447517395
1732873437888502000,8.544501953125,0.2382374405860901,0.02382374368607998,-0.3536909818649292
1732873437898533600,8.55453369140625,0.2376265823841095,0.0006108652451075613,-0.33108896017074585
1732873437908491000,8.564490966796875,0.24678955972194672,0.00855211354792118,-0.2791654169559479
1732873437918522400,8.5745224609375,0.2626720666885376,0.036041051149368286,-0.19914206862449646
1732873437928539100,8.5845390625,0.28527405858039856,0.06352998316287994,-0.1062905490398407
1732873437938512000,8.594511962890625,0.3084869384765625,0.07269296050071716,-0.018936822190880775
1732873437948499500,8.60449951171875,0.33597588539123535,0.06780604273080826,0.048258353024721146
1732873437958531000,8.614531005859375,0.375071257352829,0.015882495790719986,0.08429940044879913
1732873437968488700,8.62448876953125,0.394618958234787,-0.02687807008624077,0.05619960278272629
1732873437978519800,8.634519775390626,0.4141666293144226,-0.06536258012056351,0.006719517521560192
1732873437988508200,8.644508056640625,0.44287729263305664,-0.09224065393209457,-0.04398229718208313
1732873437998508300,8.65450830078125,0.46731191873550415,-0.09468411654233932,-0.08735372871160507
1732873438008497000,8.664496826171876,0.4862487316131592,-0.08429940044879913,-0.1111774742603302
1732873438018528000,8.674528076171875,0.485027015209198,-0.11423180252313614,-0.11484266817569733
1732873438028486100,8.684486083984375,0.4386012554168701,-0.18814650177955627,-0.1007927656173706
1732873438038517200,8.694517333984376,0.40256020426750183,-0.17776179313659668,-0.07208210229873657
1732873438048505600,8.704505615234375,0.36529740691185,-0.10445795953273773,-0.015271631069481373
1732873438058506200,8.71450634765625,0.3579670190811157,0.001832595793530345,0.04398229718208313
1732873438068494600,8.72449462890625,0.375071257352829,0.09957103431224823,0.08124507963657379
1732873438078525700,8.734525634765625,0.40256020426750183,0.1368338167667389,0.08735372871160507
1732873438088483600,8.744483642578125,0.423329621553421,0.12217304855585098,0.04703662544488907
1732873438098514400,8.754514404296875,0.45753806829452515,0.03176499158143997,-0.08796459436416626
1732873438108503000,8.7645029296875,0.5009095072746277,-0.05253441259264946,-0.20586158335208893
1732873438118535000,8.774534912109376,0.5485569834709167,-0.11789698898792267,-0.3176499307155609
1732873438128492300,8.7844921875,0.5870414972305298,-0.10995574295520782,-0.38667771220207214
1732873438138523600,8.794523681640625,0.5913175344467163,-0.015271631069481373,-0.3689626157283783
1732873438148511700,8.80451171875,0.5699372887611389,0.13500121235847473,-0.25473082065582275
1732873438158512000,8.81451220703125,0.5589417219161987,0.30482175946235657,-0.08735372871160507
1732873438168500700,8.824500732421875,0.5674937963485718,0.4550946056842804,0.06230825558304787
1732873438178532400,8.834532470703126,0.5968153476715088,0.5393940210342407,0.1472185254096985
1732873438188489700,8.84448974609375,0.6041457056999207,0.4715879559516907,0.07147123664617538
1732873438198520000,8.85452001953125,0.6163630485534668,0.29626965522766113,-0.11545353382825851
1732873438208509200,8.86450927734375,0.6542366743087769,0.039095375686883926,-0.3854559659957886
1732873438218510300,8.87451025390625,0.6805039048194885,-0.21319197118282318,-0.6798930168151855
1732873438228498200,8.884498291015625,0.6487388610839844,-0.4948008358478546,-0.8991936445236206
1732873438238529800,8.89452978515625,0.5424483418464661,-0.7904596328735352,-0.979827880859375
1732873438248487400,8.9044873046875,0.2638937830924988,-1.0787880420684814,-0.8155050873756409
1732873438258517500,8.914517578125,0.06780604273080826,-1.091616153717041,-0.5662720799446106
1732873438268507000,8.9245068359375,-0.08857546001672745,-0.969443142414093,-0.25961771607398987
1732873438278507800,8.9345078125,-0.16554448008537292,-0.6939429044723511,0.05253441259264946
1732873438288495900,8.944495849609375,-0.13439035415649414,-0.36102136969566345,0.33292156457901
1732873438298526700,8.954526611328125,-0.04398229718208313,-0.045204028487205505,0.5516113042831421
1732873438308484900,8.96448486328125,0.04153883829712868,0.23640485107898712,0.6976081132888794
1732873438318516000,8.974515869140625,0.07635815441608429,0.5876523852348328,0.7629706859588623
1732873438328504300,8.98450439453125,0.030543262138962746,0.7684684991836548,0.7189884185791016
1732873438338504700,8.994504638671875,-0.012828170321881771,0.8148942589759827,0.6188064813613892
1732873438348493300,9.004493408203125,-0.012217304669320583,0.6921103000640869,0.46853363513946533
1732873438358524400,9.0145244140625,0.048258353024721146,0.485027015209198,0.2974913716316223
1732873438368513000,9.024512939453125,0.07757988572120667,0.25534167885780334,0.18631389737129211
1732873438378513400,9.034513427734375,0.016493361443281174,0.00855211354792118,0.16798794269561768
1732873438388502000,9.044501953125,-0.09773843735456467,-0.15271630883216858,0.22296582162380219
1732873438398535200,9.05453515625,-0.05803219974040985,0.04459316283464432,0.17348572611808777
1732873438408491300,9.0644912109375,0.07208210229873657,0.3695734739303589,-0.039706241339445114
1732873438418521300,9.074521240234375,0.1973094791173935,0.5968153476715088,-0.2883284091949463
1732873438428510500,9.084510498046875,0.31093040108680725,0.6310238242149353,-0.46242499351501465
1732873438438510300,9.09451025390625,0.3732386529445648,0.4056145250797272,-0.48258355259895325
1732873438448499700,9.104499755859376,0.39706242084503174,0.09834930300712585,-0.3988949954509735
1732873438458529800,9.11452978515625,0.4056145250797272,-0.23396138846874237,-0.28038713335990906
1732873438468488700,9.12448876953125,0.37568211555480957,-0.7116580009460449,-0.17409659922122955
1732873438478518800,9.134518798828125,0.27122417092323303,-0.8631525635719299,-0.19547687470912933
1732873438488508200,9.144508056640625,0.1814269721508026,-0.769690215587616,-0.33658674359321594
1732873438498509300,9.15450927734375,0.13439035415649414,-0.455705463886261,-0.5314527750015259
1732873438508497200,9.1644970703125,0.08124507963657379,-0.1264491081237793,-0.6041457056999207
1732873438518527500,9.174527587890625,0.009162978269159794,0.07208210229873657,-0.4917465150356293
1732873438528486100,9.184486083984375,-0.07696902006864548,0.13500121235847473,-0.24617868661880493
1732873438538516500,9.1945166015625,-0.12522737681865692,-0.01771509274840355,0.23640485107898712
1732873438548505900,9.204505859375,-0.11728613078594208,-0.16065755486488342,0.49357911944389343
1732873438558505500,9.21450537109375,-0.10201449692249298,-0.22540926933288574,0.5833762884140015
1732873438568494800,9.224494873046876,-0.06230825558304787,-0.2174680233001709,0.5265658497810364
1732873438578525000,9.23452490234375,0.01038470957428217,-0.1459967941045761,0.34208452701568604
1732873438588483800,9.24448388671875,0.04642575979232788,-0.025045474991202354,0.056810468435287476
1732873438598514200,9.25451416015625,0.012828170321881771,0.09407325088977814,-0.27611109614372253
1732873438608502800,9.264502685546875,-0.08429940044879913,0.16798794269561768,-0.5821545720100403
1732873438618534100,9.2745341796875,-0.31031954288482666,0.11728613078594208,-0.7819074988365173
1732873438628491800,9.28449169921875,-0.46547931432724,-0.031154127791523933,-0.7574729323387146
1732873438638523100,9.294523193359375,-0.5772676467895508,-0.22052235901355743,-0.6407976150512695
1732873438648511500,9.304511474609376,-0.6591235995292664,-0.44104471802711487,-0.4789183437824249
1732873438658512600,9.3145126953125,-0.7098253965377808,-0.5742133259773254,-0.35552358627319336
1732873438668500500,9.32450048828125,-0.7586946487426758,-0.5455026626586914,-0.27488934993743896
1732873438678531300,9.33453125,-0.7580837607383728,-0.39217549562454224,-0.21807889640331268
1732873438688489500,9.344489501953126,-0.6291912198066711,-0.027488935738801956,-0.1459967941045761
1732873438698520600,9.3545205078125,-0.5320636034011841,0.21502456068992615,-0.13744467496871948
1732873438708509200,9.36450927734375,-0.44226643443107605,0.4495968222618103,-0.17776179313659668
1732873438718510300,9.37451025390625,-0.34208452701568604,0.5687155723571777,-0.21624629199504852
1732873438728498200,9.384498291015625,-0.2223549485206604,0.5076290369033813,-0.24068090319633484
1732873438738529800,9.39452978515625,-0.09651670604944229,0.2981022298336029,-0.2974913716316223
1732873438748487400,9.4044873046875,-0.015882495790719986,0.07330382615327835,-0.3982841372489929
1732873438758518800,9.414518798828125,0.0006108652451075613,-0.06841690838336945,-0.46731191873550415
1732873438768507000,9.4245068359375,-0.05742133408784866,0,-0.4105014503002167
1732873438778507800,9.4345078125,-0.14782938361167908,0.11301007121801376,-0.252287358045578
1732873438788496000,9.444495849609375,-0.2590068578720093,0.15332718193531036,0.007941247895359993
1732873438798527500,9.454527587890626,-0.39584067463874817,0.09346238523721695,0.3017674386501312
1732873438808484900,9.46448486328125,-0.5229006409645081,-0.059864792972803116,0.543059229850769
1732873438818516500,9.4745166015625,-0.6151412725448608,-0.27977627515792847,0.6572909951210022
1732873438828504300,9.48450439453125,-0.6792821288108826,-0.4795292317867279,0.6316346526145935
1732873438838505700,9.494505615234376,-0.7269296646118164,-0.6126978397369385,0.3903428912162781
1732873438848493600,9.50449365234375,-0.7226535677909851,-0.6291912198066711,0.15393804013729095
1732873438858524700,9.514524658203126,-0.7098253965377808,-0.607200026512146,-0.07513642311096191
1732873438868513000,9.524512939453125,-0.7116580009460449,-0.5119050741195679,-0.23029619455337524
1732873438878512600,9.5345126953125,-0.7244861721992493,-0.3090978264808655,-0.29993483424186707
1732873438888502000,9.544501953125,-0.7250970602035522,-0.05375614017248154,-0.2675589919090271
1732873438898532600,9.55453271484375,-0.6866125464439392,0.16493362188339233,-0.1411098688840866
1732873438908491000,9.564490966796875,-0.5674937963485718,0.3323107063770294,0.16737708449363708
1732873438918521600,9.574521484375,-0.48380526900291443,0.3280346393585205,0.3628539443016052
1732873438928510700,9.5845107421875,-0.3836233615875244,0.2528982162475586,0.45875978469848633
1732873438938511000,9.594510986328125,-0.28649580478668213,0.13255776464939117,0.4178318381309509
1732873438948499500,9.60449951171875,-0.17959438264369965,-0.01771509274840355,0.26633724570274353
1732873438958530600,9.614530517578125,-0.10384709388017654,-0.16310101747512817,0.02321287989616394
1732873438968488700,9.62448876953125,-0.09224065393209457,-0.2382374405860901,-0.2767219543457031
1732873438978520000,9.63452001953125,-0.20586158335208893,-0.08796459436416626,-0.6542366743087769
1732873438988508200,9.644508056640625,-0.2742784917354584,0.09651670604944229,-0.7269296646118164
1732873438998509300,9.65450927734375,-0.31581732630729675,0.294437050819397,-0.6713408827781677
1732873439008497000,9.664496826171876,-0.32559117674827576,0.4807509481906891,-0.5363397002220154
1732873439018528500,9.674528564453125,-0.29504790902137756,0.6126978397369385,-0.37262779474258423
1732873439028486100,9.684486083984375,-0.23579397797584534,0.7006624341011047,-0.21502456068992615
1732873439038517500,9.694517578125,-0.17348572611808777,0.7434229850769043,-0.07757988572120667
1732873439048505600,9.704505615234375,-0.11545353382825851,0.7580837607383728,-0.00366519158706069
1732873439058506800,9.7145068359375,-0.03726277872920036,0.7660250067710876,0.00855211354792118
1732873439068494800,9.724494873046876,0.00855211354792118,0.769690215587616,-0.012828170321881771
1732873439078526200,9.734526123046875,0.036651913076639175,0.8057312369346619,-0.05192354694008827
1732873439088483600,9.744483642578125,0.006719517521560192,0.9010262489318848,-0.09040805697441101
1732873439098515200,9.75451513671875,-0.08979719132184982,1.056796908378601,-0.09529497474431992
1732873439108503000,9.7645029296875,-0.2119702398777008,1.168585181236267,-0.06291911751031876
1732873439118534700,9.77453466796875,-0.3286454975605011,1.1728612184524536,-0.014049900695681572
1732873439128492300,9.7844921875,-0.4306600093841553,0.9492846131324768,0.08674286305904388
1732873439138522000,9.794522216796874,-0.42760565876960754,0.637132465839386,0.1618792861700058
1732873439148511700,9.80451171875,-0.3646865487098694,0.2076941877603531,0.21563543379306793
1732873439158511600,9.81451171875,-0.26572638750076294,-0.192422553896904,0.20952677726745605
1732873439168500700,9.824500732421875,-0.1618792861700058,-0.513737678527832,0.16737708449363708
1732873439178530800,9.83453076171875,-0.07513642311096191,-0.7373143434524536,0.1472185254096985
1732873439188489700,9.84448974609375,-0.015882495790719986,-0.816726803779602,0.152105450630188
1732873439198521300,9.854521240234375,-0.006108652334660292,-0.6334672570228577,0.17959438264369965
1732873439208509200,9.86450927734375,-0.021380282938480377,-0.35552358627319336,0.17959438264369965
1732873439218510300,9.87451025390625,-0.039706241339445114,-0.033597588539123535,0.15393804013729095
1732873439228498200,9.884498291015625,-0.05009094998240471,0.23335053026676178,0.10323622822761536
1732873439238529800,9.89452978515625,-0.0507018156349659,0.3787364661693573,0.021380282938480377
1732873439248487400,9.9044873046875,-0.05742133408784866,0.38240164518356323,-0.08002334833145142
1732873439258518800,9.914518798828125,-0.07391469180583954,0.2718350291252136,-0.16432274878025055
1732873439268507000,9.9245068359375,-0.08796459436416626,0.08246681094169617,-0.2168571650981903
1732873439278508000,9.934508056640626,-0.11911872029304504,-0.21074850857257843,-0.24007004499435425
1732873439288495900,9.944495849609375,-0.1563815027475357,-0.3194825351238251,-0.2278527319431305
1732873439298527500,9.954527587890626,-0.2070833146572113,-0.3176499307155609,-0.1973094791173935
1732873439308484900,9.96448486328125,-0.2480112910270691,-0.23335053026676178,-0.1661553531885147
1732873439318516500,9.9745166015625,-0.26022860407829285,-0.13377949595451355,-0.14416420459747314
1732873439328504300,9.98450439453125,-0.23884831368923187,-0.08307767659425735,-0.12461651116609573
1732873439338504400,9.99450439453125,-0.17837265133857727,-0.10995574295520782,-0.11056660860776901
1732873439348493600,10.00449365234375,-0.045204028487205505,-0.2669481039047241,-0.10445795953273773
1732873439358525000,10.01452490234375,0.03420845419168472,-0.37751471996307373,-0.09957103431224823
1732873439368513000,10.024512939453125,0.08185594528913498,-0.4294382631778717,-0.0806342139840126
1732873439378514000,10.034513916015625,0.08918632566928864,-0.4282165467739105,-0.04092797264456749
1732873439388502000,10.044501953125,0.0708603709936142,-0.403781920671463,-0.0024434609804302454
1732873439398533600,10.05453369140625,0.04948008432984352,-0.3604104816913605,0.02015855349600315
1732873439408491000,10.064490966796875,0.03848451003432274,-0.29077184200286865,0.03848451003432274
1732873439418522600,10.074522705078126,0.03237585723400116,-0.1569923609495163,0.09040805697441101
1732873439428510500,10.084510498046875,0.05192354694008827,-0.09773843735456467,0.12889257073402405
1732873439438511600,10.09451171875,0.09346238523721695,-0.0806342139840126,0.1508837193250656
1732873439448499700,10.104499755859376,0.15332718193531036,-0.12889257073402405,0.1417207419872284
1732873439458531000,10.114531005859375,0.21624629199504852,-0.20463985204696655,0.08979719132184982
1732873439468488700,10.12448876953125,0.25534167885780334,-0.27611109614372253,-0.015271631069481373
1732873439478520000,10.13452001953125,0.2620611786842346,-0.3481931984424591,-0.1472185254096985
1732873439488508200,10.144508056640625,0.24007004499435425,-0.40683624148368835,-0.2675589919090271
1732873439498509300,10.15450927734375,0.1814269721508026,-0.4642575979232788,-0.39217549562454224
1732873439508497200,10.1644970703125,0.152105450630188,-0.4550946056842804,-0.4502076804637909
1732873439518528500,10.174528564453125,0.1563815027475357,-0.3982841372489929,-0.5277875661849976
1732873439528486100,10.184486083984375,0.2021963894367218,-0.32559117674827576,-0.655458390712738
1732873439538517800,10.194517822265626,0.2736676335334778,-0.2736676335334778,-0.827722430229187
1732873439548505900,10.204505859375,0.30543261766433716,-0.24068090319633484,-0.9731083512306213
1732873439558506800,10.2145068359375,0.251676470041275,-0.1973094791173935,-1.017701506614685
1732873439568494800,10.224494873046876,-0.031154127791523933,-0.02015855349600315,-0.8527678847312927
1732873439578526200,10.234526123046875,-0.31520646810531616,-0.0024434609804302454,-0.5558874011039734
1732873439588483800,10.24448388671875,-0.5564982295036316,-0.04092797264456749,-0.11362093687057495
1732873439598514400,10.254514404296875,-0.6933320760726929,-0.10934487730264664,0.37140607833862305
1732873439608502800,10.264502685546875,-0.6969972252845764,-0.11972958594560623,0.7837401032447815
1732873439618532900,10.274532958984375,-0.5913175344467163,-0.02626720629632473,1.0268645286560059
1732873439628491800,10.28449169921875,-0.4147774875164032,0.07147123664617538,1.054964303970337
1732873439638524400,10.2945244140625,-0.03176499158143997,0.2528982162475586,0.7018841505050659
1732873439648511500,10.304511474609376,0.22357667982578278,0.32681289315223694,0.31154128909111023
1732873439658511000,10.314510986328125,0.3995058834552765,0.29504790902137756,-0.09834930300712585
1732873439668500500,10.32450048828125,0.4795292317867279,0.20341812074184418,-0.40072759985923767
1732873439678532000,10.334531982421876,0.4612032473087311,0.11239920556545258,-0.5064072608947754
1732873439688489200,10.3444892578125,0.3597996234893799,0.05497787147760391,-0.4056145250797272
1732873439698521300,10.354521240234375,0.23151792585849762,-0.001832595793530345,-0.1563815027475357
1732873439708509200,10.36450927734375,0.10567969083786011,-0.07941248267889023,0.15760323405265808
1732873439718508800,10.3745087890625,-0.013439035043120384,-0.18570303916931152,0.5424483418464661
1732873439728498200,10.384498291015625,0.018325956538319588,-0.1765400618314743,0.627358615398407
1732873439738528500,10.394528564453125,0.13377949595451355,-0.1258382350206375,0.5644394755363464
1732873439748487400,10.4044873046875,0.2919935882091522,-0.09162978827953339,0.4105014503002167
1732873439758517500,10.414517578125,0.4404338300228119,-0.07696902006864548,0.21563543379306793
1732873439768507000,10.4245068359375,0.5363397002220154,-0.04337143152952194,0.025045474991202354
1732873439778508000,10.434508056640626,0.578489363193512,0.0012217304902151227,-0.12217304855585098
1732873439788496000,10.444495849609375,0.5925393104553223,0.012828170321881771,-0.2767219543457031
1732873439798527500,10.454527587890626,0.5913175344467163,0.0006108652451075613,-0.36529740691185
1732873439808484900,10.46448486328125,0.5607742667198181,-0.03726277872920036,-0.4251621961593628
1732873439818516500,10.4745166015625,0.4911356568336487,-0.1007927656173706,-0.4282165467739105
1732873439828504300,10.48450439453125,0.3842342495918274,-0.1820378452539444,-0.36651915311813354
1732873439838505500,10.49450537109375,0.2638937830924988,-0.25534167885780334,-0.26083946228027344
1732873439848493600,10.50449365234375,0.1612684279680252,-0.3127630054950714,-0.13866640627384186
1732873439858525000,10.51452490234375,0.09162978827953339,-0.342695415019989,0.02687807008624077
1732873439868513000,10.524512939453125,0.05192354694008827,-0.3286454975605011,0.09896016865968704
1732873439878514200,10.53451416015625,0.04214970022439957,-0.28038713335990906,0.14355333149433136
1732873439888502000,10.544501953125,0.02932153269648552,-0.20341812074184418,0.16004669666290283
1732873439898533600,10.55453369140625,-0.0006108652451075613,-0.1160643994808197,0.15332718193531036
1732873439908491000,10.564490966796875,-0.025045474991202354,-0.03848451003432274,0.13805554807186127
1732873439918522000,10.574522216796876,-0.0403171069920063,0.031154127791523933,0.11423180252313614
1732873439928539000,10.584538818359375,-0.0708603709936142,0.10751228034496307,0.08491026610136032
1732873439938512000,10.594511962890625,-0.13927727937698364,0.17409659922122955,0.048258353024721146
1732873439948499500,10.60449951171875,-0.20097467303276062,0.14355333149433136,0.024434609338641167
1732873439958531000,10.614531005859375,-0.2834414839744568,0.060475658625364304,-0.00427605677396059
1732873439968488700,10.62448876953125,-0.35613444447517395,-0.033597588539123535,-0.0354301854968071
1732873439978520300,10.634520263671876,-0.3805690407752991,-0.08368854224681854,-0.06230825558304787
1732873439988508200,10.644508056640625,-0.34758231043815613,-0.08124507963657379,-0.07024950534105301
1732873439998509300,10.65450927734375,-0.2675589919090271,-0.036041051149368286,-0.060475658625364304
1732873440008497000,10.664496826171876,-0.13316862285137177,0.06658431142568588,-0.056810468435287476
1732873440018529000,10.674529052734375,-0.09224065393209457,0.13072516024112701,-0.07208210229873657
1732873440028486100,10.684486083984375,-0.09651670604944229,0.18448130786418915,-0.09896016865968704
1732873440038518000,10.69451806640625,-0.1319468915462494,0.2431243658065796,-0.13439035415649414
1732873440048505600,10.704505615234375,-0.1716531366109848,0.3188716471195221,-0.1869247704744339
1732873440058506500,10.714506591796875,-0.20097467303276062,0.4050036668777466,-0.25045475363731384
1732873440068494800,10.724494873046876,-0.21930062770843506,0.4703662395477295,-0.30604347586631775
1732873440078526200,10.734526123046875,-0.24007004499435425,0.46303585171699524,-0.3188716471195221
1732873440088483600,10.744483642578125,-0.3090978264808655,0.30543261766433716,-0.17898350954055786
1732873440098515500,10.754515380859376,-0.3701843321323395,0.1270599663257599,0.02321287989616394
1732873440108503000,10.7645029296875,-0.43188172578811646,-0.02932153269648552,0.2767219543457031
1732873440118535000,10.774534912109376,-0.4715879559516907,-0.09712757170200348,0.49724429845809937
1732873440128492300,10.7844921875,-0.47708576917648315,-0.05742133408784866,0.6206390857696533
1732873440138523600,10.794523681640625,-0.44287729263305664,0.04703662544488907,0.6505714654922485
1732873440148511700,10.80451171875,-0.3701843321323395,0.1612684279680252,0.5937610268592834
1732873440158512600,10.8145126953125,-0.22846360504627228,0.3604104816913605,0.35735616087913513
1732873440168500700,10.824500732421875,-0.1258382350206375,0.4129449129104614,0.14844025671482086
1732873440178532400,10.834532470703126,-0.05497787147760391,0.36529740691185,-0.051312681287527084
1732873440188489700,10.84448974609375,-0.02321287989616394,0.2474004179239273,-0.20036379992961884
1732873440198521300,10.854521240234375,-0.05375614017248154,0.07024950534105301,-0.2669481039047241
1732873440208509200,10.86450927734375,-0.13866640627384186,-0.10873401165008545,-0.26145032048225403
1732873440218510300,10.87451025390625,-0.26083946228027344,-0.23884831368923187,-0.1918116807937622
1732873440228498400,10.88449853515625,-0.4349360466003418,-0.33536502718925476,-0.003054326167330146
1732873440238530000,10.894530029296876,-0.5064072608947754,-0.34025195240974426,0.12828169763088226
1732873440248487400,10.9044873046875,-0.5149593949317932,-0.30054569244384766,0.21319197118282318
1732873440258519000,10.91451904296875,-0.4691445231437683,-0.23457226157188416,0.24434609711170197
1732873440268507000,10.9245068359375,-0.3995058834552765,-0.1612684279680252,0.25045475363731384
1732873440278508000,10.934508056640626,-0.3072652220726013,-0.09407325088977814,0.27122417092323303
1732873440288495900,10.944495849609375,-0.21563543379306793,-0.03726277872920036,0.2981022298336029
1732873440298527500,10.954527587890626,-0.14782938361167908,0.01466076634824276,0.32681289315223694
1732873440308484900,10.96448486328125,-0.11850785464048386,0.06291911751031876,0.3390302062034607
1732873440318515700,10.974515625,-0.11239920556545258,0.08491026610136032,0.2926044464111328
1732873440328504300,10.98450439453125,-0.0959058403968811,0.08185594528913498,0.19792033731937408
1732873440338504700,10.994504638671875,-0.06719517707824707,0.05314527451992035,0.06536258012056351
1732873440348493300,11.004493408203125,-0.02626720629632473,0.00855211354792118,-0.08368854224681854
1732873440358525000,11.01452490234375,0.025656340643763542,-0.009773843921720982,-0.21868975460529327
1732873440368513000,11.024512939453125,0.08368854224681854,0.012217304669320583,-0.313373863697052
1732873440378514000,11.034513916015625,0.15821409225463867,0.059864792972803116,-0.3433062732219696
1732873440388502000,11.044501953125,0.19364428520202637,0.07208210229873657,-0.3023782968521118
1732873440398533600,11.05453369140625,0.2119702398777008,0.08124507963657379,-0.23945917189121246
1732873440408491000,11.064490966796875,0.1869247704744339,0.06658431142568588,-0.14477506279945374
1732873440418523000,11.07452294921875,0.14294247329235077,0.02871066704392433,-0.02626720629632473
1732873440428510500,11.084510498046875,0.09529497474431992,-0.003054326167330146,0.08429940044879913
1732873440438511600,11.09451171875,0.048258353024721146,-0.018936822190880775,0.15393804013729095
1732873440448499700,11.104499755859376,0.059864792972803116,-0.033597588539123535,0.13988813757896423
1732873440458531000,11.114531005859375,0.12278391420841217,-0.045204028487205505,0.03726277872920036
1732873440468488700,11.12448876953125,0.21013765037059784,-0.05803219974040985,-0.13377949595451355
1732873440478520300,11.134520263671876,0.29993483424186707,-0.0861319974064827,-0.32681289315223694
1732873440488508200,11.144508056640625,0.36651915311813354,-0.1661553531885147,-0.475253164768219
1732873440498509000,11.154509033203125,0.37568211555480957,-0.2785545587539673,-0.5308418869972229
1732873440508497200,11.1644970703125,0.32131510972976685,-0.40256020426750183,-0.4715879559516907
1732873440518528800,11.17452880859375,0.2272418737411499,-0.4966334402561188,-0.32131510972976685
1732873440528486100,11.184486083984375,0.09834930300712585,-0.48197266459465027,-0.08307767659425735
1732873440538517500,11.194517578125,0.08552113175392151,-0.3536909818649292,-0.009773843921720982
1732873440548505900,11.204505859375,0.14844025671482086,-0.13439035415649414,-0.05497787147760391
1732873440558506200,11.21450634765625,0.24190263450145721,0.10323622822761536,-0.1820378452539444
1732873440568494800,11.224494873046876,0.3341432809829712,0.24007004499435425,-0.32009339332580566
1732873440578525400,11.234525390625,0.37079519033432007,0.22357667982578278,-0.39706242084503174
1732873440588483800,11.24448388671875,0.30970868468284607,0.08307767659425735,-0.35063666105270386
1732873440598513700,11.254513671875,0.06780604273080826,-0.19792033731937408,-0.004886921960860491
1732873440608502800,11.264502685546875,-0.13500121235847473,-0.2993239760398865,0.33475416898727417
1732873440618533600,11.27453369140625,-0.32559117674827576,-0.2730567753314972,0.6579018831253052
1732873440628491800,11.28449169921875,-0.4746423065662384,-0.1514945775270462,0.8894197940826416
1732873440638522000,11.294522216796874,-0.5760459303855896,-0.003054326167330146,1.0128145217895508
1732873440648511500,11.304511474609376,-0.6163630485534668,0.09712757170200348,1.024420976638794
1732873440658513400,11.314513427734376,-0.5791002511978149,0.1160643994808197,0.9224064946174622
1732873440668500500,11.32450048828125,-0.3982841372489929,0.042760565876960754,0.5900958180427551
1732873440678532600,11.33453271484375,-0.22357667982578278,-0.04642575979232788,0.3188716471195221
1732873440688489200,11.3444892578125,-0.031154127791523933,-0.15332718193531036,0.06719517707824707
1732873440698520000,11.35452001953125,0.17104226350784302,-0.21930062770843506,-0.13927727937698364
1732873440708509200,11.36450927734375,0.3597996234893799,-0.19425514340400696,-0.2877175211906433
1732873440718510300,11.37451025390625,0.5143485069274902,-0.08857546001672745,-0.36713001132011414
1732873440728498200,11.384498291015625,0.6108652353286743,0.05864306539297104,-0.3891211748123169
1732873440738529800,11.39452978515625,0.6548475623130798,0.20341812074184418,-0.3891211748123169
1732873440748487400,11.4044873046875,0.636521577835083,0.38728857040405273,-0.4178318381309509
1732873440758519000,11.41451904296875,0.5809328556060791,0.4801400899887085,-0.484416127204895
1732873440768507000,11.4245068359375,0.5167919993400574,0.5400048494338989,-0.5962044596672058
1732873440778507800,11.4345078125,0.4605923891067505,0.5485569834709167,-0.7305948138237
1732873440788496000,11.444495849609375,0.41111230850219727,0.5100724697113037,-0.8594874143600464
1732873440798527500,11.454527587890626,0.34574973583221436,0.4331034719944,-0.9462302923202515
1732873440808484900,11.46448486328125,0.24984388053417206,0.2987131178379059,-0.9560040831565857
1732873440818516500,11.4745166015625,0.036041051149368286,0.06352998316287994,-0.8063421249389648
1732873440828504300,11.48450439453125,-0.12095131725072861,-0.07452555745840073,-0.607200026512146
1732873440838505500,11.49450537109375,-0.26511552929878235,-0.17104226350784302,-0.36163222789764404
1732873440848493600,11.50449365234375,-0.37140607833862305,-0.2125810980796814,-0.12034045159816742
1732873440858525200,11.514525146484376,-0.4349360466003418,-0.17898350954055786,0.06963863968849182
1732873440868513000,11.524512939453125,-0.46181413531303406,-0.08429940044879913,0.18387043476104736
1732873440878514200,11.53451416015625,-0.4709770977497101,0.05253441259264946,0.2535090744495392
1732873440888502000,11.544501953125,-0.4709770977497101,0.19364428520202637,0.3628539443016052
1732873440898533600,11.55453369140625,-0.4911356568336487,0.18570303916931152,0.4489859640598297
1732873440908491000,11.564490966796875,-0.5253441333770752,0.11911872029304504,0.5222898125648499
1732873440918523000,11.57452294921875,-0.5577199459075928,0.02626720629632473,0.5632177591323853
1732873440928510500,11.584510498046875,-0.5821545720100403,-0.05497787147760391,0.5729916095733643
1732873440938510300,11.59451025390625,-0.5833762884140015,-0.10995574295520782,0.5552765130996704
1732873440948499500,11.60449951171875,-0.5687155723571777,-0.14966198801994324,0.5094616413116455
1732873440958531000,11.614531005859375,-0.5302310585975647,-0.15454891324043274,0.4355469346046448
1732873440968488700,11.62448876953125,-0.4337143301963806,-0.10506882518529892,0.3023782968521118
1732873440978520300,11.634520263671876,-0.36713001132011414,-0.04581489413976669,0.20830504596233368
1732873440988508200,11.644508056640625,-0.3335324227809906,-0.0024434609804302454,0.11972958594560623
1732873440998509300,11.65450927734375,-0.34574973583221436,0.010995574295520782,0.04886921867728233
1732873441008497200,11.6644970703125,-0.3836233615875244,-0.02687807008624077,0.006719517521560192
1732873441018528800,11.67452880859375,-0.42577308416366577,-0.11362093687057495,-0.015271631069481373
1732873441028486100,11.684486083984375,-0.42760565876960754,-0.19058994948863983,-0.03848451003432274
1732873441038517800,11.694517822265626,-0.33597588539123535,-0.19853121042251587,-0.1160643994808197
1732873441048505600,11.704505615234375,-0.23518311977386475,-0.13011430203914642,-0.17104226350784302
1732873441058506800,11.7145068359375,-0.11362093687057495,-0.0354301854968071,-0.21380282938480377
1732873441068494800,11.724494873046876,0.00366519158706069,0.05192354694008827,-0.242513507604599
1732873441078526200,11.734526123046875,0.08185594528913498,0.08246681094169617,-0.22418753802776337
1732873441088483600,11.744483642578125,0.08307767659425735,0.02687807008624077,-0.13316862285137177
1732873441098515500,11.754515380859376,0.00366519158706069,-0.09285151958465576,0.015882495790719986
1732873441108503000,11.7645029296875,-0.19425514340400696,-0.24678955972194672,0.25961771607398987
1732873441118534700,11.77453466796875,-0.3182607889175415,-0.2883284091949463,0.37079519033432007
1732873441128492300,11.7844921875,-0.4184426963329315,-0.2919935882091522,0.41111230850219727
1732873441138524000,11.79452392578125,-0.485027015209198,-0.2767219543457031,0.3933972120285034
1732873441148511700,11.80451171875,-0.47342056035995483,-0.2675589919090271,0.31520646810531616
1732873441158511400,11.814511474609375,-0.38179078698158264,-0.25473082065582275,0.1771509200334549
1732873441168500700,11.824500732421875,-0.22357667982578278,-0.24129177629947662,-0.00366519158706069
1732873441178531000,11.834531005859375,-0.03726277872920036,-0.2217440903186798,-0.19975294172763824
1732873441188489700,11.84448974609375,0.21013765037059784,-0.14905111491680145,-0.4447098970413208
1732873441198521300,11.854521240234375,0.28099802136421204,-0.10751228034496307,-0.5112941861152649
1732873441208509200,11.86450927734375,0.2779437005519867,-0.07880161702632904,-0.5021312236785889
1732873441218510300,11.87451025390625,0.2382374405860901,-0.06169738993048668,-0.4355469346046448
1732873441228498200,11.884498291015625,0.1814269721508026,-0.04337143152952194,-0.3378084897994995
1732873441238529800,11.89452978515625,0.1264491081237793,-0.006108652334660292,-0.22540926933288574
1732873441248487400,11.9044873046875,0.08979719132184982,0.04459316283464432,-0.12522737681865692
1732873441258518800,11.914518798828125,0.09285151958465576,0.1264491081237793,-0.03481931984424591
1732873441268507100,11.924507080078126,0.12461651116609573,0.17409659922122955,-0.012217304669320583
1732873441278507800,11.9345078125,0.1667662113904953,0.2021963894367218,0.003054326167330146
1732873441288495900,11.944495849609375,0.1918116807937622,0.19792033731937408,0.019547687843441963
1732873441298527500,11.954527587890626,0.18936823308467865,0.16920967400074005,0.05009094998240471
1732873441308484900,11.96448486328125,0.15821409225463867,0.1319468915462494,0.08918632566928864
1732873441318516000,11.974515869140625,0.11362093687057495,0.09529497474431992,0.12889257073402405
1732873441328504300,11.98450439453125,0.06475171446800232,0.06352998316287994,0.152105450630188
1732873441338505200,11.994505126953126,0.06352998316287994,0.06230825558304787,0.11972958594560623
1732873441348493300,12.004493408203125,0.08918632566928864,0.07391469180583954,0.04092797264456749
1732873441358525000,12.01452490234375,0.13316862285137177,0.0806342139840126,-0.07208210229873657
1732873441368513000,12.024512939453125,0.19975294172763824,0.054367005825042725,-0.19303341209888458
1732873441378514000,12.034513916015625,0.27550023794174194,0.001832595793530345,-0.2987131178379059
1732873441388502000,12.044501953125,0.342695415019989,-0.04948008432984352,-0.36713001132011414
1732873441398533600,12.05453369140625,0.38179078698158264,-0.08552113175392151,-0.38667771220207214
1732873441408491000,12.064490966796875,0.3738495409488678,-0.10201449692249298,-0.33475416898727417
1732873441418522600,12.074522705078126,0.3225368559360504,-0.09407325088977814,-0.27550023794174194
1732873441428510500,12.084510498046875,0.25045475363731384,-0.0806342139840126,-0.2223549485206604
1732873441438511600,12.09451171875,0.17531833052635193,-0.05742133408784866,-0.19425514340400696
1732873441448499700,12.104499755859376,0.11423180252313614,-0.03298672288656235,-0.19486601650714874
1732873441458531000,12.114531005859375,0.0757472887635231,-0.01710422709584236,-0.21013765037059784
1732873441468488700,12.12448876953125,0.051312681287527084,-0.0024434609804302454,-0.2168571650981903
1732873441478520000,12.13452001953125,0.02687807008624077,-0.00366519158706069,-0.18631389737129211
1732873441488508200,12.144508056640625,0.03298672288656235,-0.02626720629632473,-0.13377949595451355
1732873441498509000,12.154509033203125,0.06414084881544113,-0.04337143152952194,-0.05864306539297104
1732873441508497200,12.1644970703125,0.10873401165008545,-0.03420845419168472,0.02871066704392433
1732873441518528800,12.17452880859375,0.15821409225463867,-0.0006108652451075613,0.1111774742603302
1732873441528486100,12.184486083984375,0.20525072515010834,0.03481931984424591,0.17470745742321014
1732873441538517500,12.194517578125,0.22479841113090515,0.04764748737215996,0.22357667982578278
1732873441548505900,12.204505859375,0.18387043476104736,0.00733038317412138,0.28466320037841797
1732873441558506800,12.2145068359375,0.11728613078594208,-0.0024434609804302454,0.3323107063770294
1732873441568494800,12.224494873046876,0.03848451003432274,-0.04398229718208313,0.39645153284072876
1732873441578526200,12.234526123046875,-0.042760565876960754,-0.09407325088977814,0.4544837474822998
1732873441588483800,12.24448388671875,-0.14049901068210602,-0.14233160018920898,0.48685958981513977
1732873441598514400,12.254514404296875,-0.23273965716362,-0.182648703455925,0.47342056035995483
1732873441608502800,12.264502685546875,-0.2932153046131134,-0.19486601650714874,0.40133845806121826
1732873441618533000,12.274533203125,-0.2889392673969269,-0.17776179313659668,0.26633724570274353
1732873441628491800,12.28449169921875,-0.1722639948129654,-0.13988813757896423,-0.03787364438176155
1732873441638522000,12.294522216796874,-0.06169738993048668,-0.11239920556545258,-0.2938261926174164
1732873441648511500,12.304511474609376,0.04886921867728233,-0.09224065393209457,-0.5583308339118958
1732873441658512100,12.31451220703125,0.13805554807186127,-0.08674286305904388,-0.7806857824325562
1732873441668500500,12.32450048828125,0.18814650177955627,-0.09957103431224823,-0.9242390990257263
1732873441678531800,12.33453173828125,0.20586158335208893,-0.10812314599752426,-0.9749409556388855
1732873441688489200,12.3444892578125,0.18997909128665924,-0.0910189226269722,-0.9535606503486633
1732873441698521300,12.354521240234375,0.11789698898792267,-0.01466076634824276,-0.8136724829673767
1732873441708509200,12.36450927734375,0.04214970022439957,0.07024950534105301,-0.6591235995292664
1732873441718510300,12.37451025390625,-0.04092797264456749,0.16737708449363708,-0.46364670991897583
1732873441728498200,12.384498291015625,-0.1258382350206375,0.251676470041275,-0.24678955972194672
1732873441738529800,12.39452978515625,-0.18875735998153687,0.33292156457901,-0.03237585723400116
