time,seconds_elapsed,z,y,x
1732873429528317700,0.184317626953125,10.089165687561035,1.8938134908676147,-0.4213795065879822
1732873429538296800,0.194296875,9.830592155456543,1.8411411046981812,-0.3998316824436188
1732873429548306400,0.204306396484375,9.646238327026367,1.7501614093780518,-0.304063618183136
1732873429558285800,0.214285888671875,9.610325813293457,1.6879122257232666,-0.17717093229293823
1732873429568295700,0.224295654296875,9.615114212036133,1.644816517829895,-0.05027823522686958
1732873429578305300,0.23430517578125,9.694122314453125,1.5682021379470825,0.035913024097681046
1732873429588284700,0.24428466796875,9.725247383117676,1.53707754611969,0.08379705995321274
1732873429598294500,0.25429443359375,9.734824180603027,1.5442601442337036,0.11013327538967133
1732873429608304000,0.26430419921875,9.710882186889648,1.5442601442337036,0.06224924325942993
1732873429618314000,0.27431396484375,9.68694019317627,1.556231141090393,0.07422025501728058
1732873429628293000,0.284293212890625,9.660603523254395,1.522712230682373,0.1843535304069519
1732873429638303000,0.294302978515625,9.588777542114258,1.5107412338256836,0.2513911724090576
1732873429648312600,0.3043125,9.528923034667969,1.53707754611969,0.17956513166427612
1732873429658292000,0.3142919921875,9.555258750915527,1.5610195398330688,0.0694318488240242
1732873429668301600,0.324301513671875,9.744400978088379,1.5538369417190552,-0.0694318488240242
1732873429678311400,0.3343115234375,9.964667320251465,1.53707754611969,-0.0933738648891449
1732873429688290800,0.344290771484375,10.134655952453613,1.4939818382263184,0.002394201699644327
1732873429698300700,0.35430078125,10.127472877502441,1.4963760375976562,0.026336219161748886
1732873429708310300,0.364310302734375,9.95748519897461,1.5179238319396973,-0.023942016065120697
1732873429718289400,0.374289306640625,9.713275909423828,1.5729905366897583,-0.08379705995321274
1732873429728299300,0.38429931640625,9.576807022094727,1.6496049165725708,-0.1388636976480484
1732873429738308900,0.394308837890625,9.500192642211914,1.6831238269805908,-0.17477671802043915
1732873429748288300,0.404288330078125,9.502586364746094,1.7046716213226318,-0.13407529890537262
1732873429758298000,0.414298095703125,9.44991397857666,1.7070658206939697,-0.08858546614646912
1732873429768307700,0.4243076171875,9.502586364746094,1.7046716213226318,-0.05985504388809204
1732873429778287000,0.434287109375,9.641449928283691,1.678335428237915,-0.14365209639072418
1732873429788297000,0.444296875,9.852140426635742,1.6112977266311646,-0.1867477297782898
1732873429798306600,0.454306640625,10.034099578857422,1.5610195398330688,-0.023942016065120697
1732873429808286000,0.464285888671875,10.019734382629395,1.4676456451416016,-0.031124621629714966
1732873429818295600,0.474295654296875,9.897629737854004,1.479616641998291,0.05506663769483566
1732873429828305400,0.484305419921875,9.765948295593262,1.4987702369689941,0.06224924325942993
1732873429838284800,0.494284912109375,9.708487510681152,1.5418659448623657,0.031124621629714966
1732873429848294400,0.50429443359375,9.679757118225098,1.5729905366897583,0.002394201699644327
1732873429858304000,0.514303955078125,9.691728591918945,1.5849615335464478,-0.040701430290937424
1732873429868313900,0.52431396484375,9.701305389404297,1.6041151285171509,-0.035913024097681046
1732873429878293200,0.534293212890625,9.732429504394531,1.6065093278884888,-0.0071826050989329815
1732873429888302800,0.544302734375,9.758766174316406,1.6112977266311646,0.05267243832349777
1732873429898312700,0.554312744140625,9.737217903137207,1.6280571222305298,-0.002394201699644327
1732873429908292000,0.5642919921875,9.660603523254395,1.6424223184585571,-0.10295066982507706
1732873429918301700,0.5743017578125,9.653421401977539,1.6304513216018677,-0.11252748221158981
1732873429928311600,0.5843115234375,9.742006301879883,1.601720929145813,-0.08140286058187485
1732873429938290700,0.594290771484375,9.914389610290527,1.599326729774475,-0.047884032130241394
1732873429948300500,0.604300537109375,9.959878921508789,1.5825673341751099,-0.009576806798577309
1732873429958310100,0.61431005859375,9.880870819091797,1.5921441316604614,0.05746084079146385
1732873429968289500,0.62428955078125,9.718064308166504,1.5945383310317993,0.1388636976480484
1732873429978299400,0.63429931640625,9.531316757202148,1.6376339197158813,0.13407529890537262
1732873429988309000,0.64430908203125,9.50737476348877,1.6376339197158813,0.05267243832349777
1732873429998288400,0.654288330078125,9.464279174804688,1.5753847360610962,0.040701430290937424
1732873430008298200,0.66429833984375,9.550470352172852,1.50355863571167,0.06464344263076782
1732873430018307800,0.674307861328125,9.72285270690918,1.5322890281677246,-0.009576806798577309
1732873430028287000,0.684286865234375,9.81143856048584,1.6112977266311646,-0.07661445438861847
1732873430038296800,0.694296875,9.804255485534668,1.6879122257232666,-0.12928688526153564
1732873430048306400,0.704306396484375,9.66299819946289,1.6879122257232666,-0.035913024097681046
1732873430058285800,0.714285888671875,9.545681953430176,1.6759412288665771,0.021547814831137657
1732873430068295700,0.724295654296875,9.452308654785156,1.6328455209732056,0.040701430290937424
1732873430078305300,0.73430517578125,9.47146224975586,1.644816517829895,0.043095629662275314
1732873430088284700,0.74428466796875,9.5408935546875,1.6519991159439087,-0.011971008032560349
1732873430098294500,0.75429443359375,9.619902610778809,1.6687586307525635,0.05267243832349777
1732873430108304100,0.76430419921875,9.63187313079834,1.678335428237915,0.07661445438861847
1732873430118314000,0.77431396484375,9.701305389404297,1.742978811264038,-0.038307227194309235
1732873430128293000,0.784293212890625,9.72285270690918,1.7717092037200928,-0.07661445438861847
1732873430138302700,0.794302734375,9.787496566772461,1.7070658206939697,-0.047884032130241394
1732873430148312600,0.8043125,9.919178009033203,1.680729627609253,-0.05506663769483566
1732873430158292000,0.8142919921875,9.998186111450195,1.6759412288665771,-0.05506663769483566
1732873430168301600,0.824301513671875,9.959878921508789,1.6519991159439087,-0.016759412363171577
1732873430178311400,0.8343115234375,9.86889934539795,1.625662922859192,0.10773907601833344
1732873430188290800,0.844290771484375,9.770736694335938,1.6160861253738403,0.15083470940589905
1732873430198300700,0.85430078125,9.646238327026367,1.6615760326385498,0.1843535304069519
1732873430208310300,0.864310302734375,9.528923034667969,1.6615760326385498,0.17238251864910126
1732873430218289400,0.874289306640625,9.375694274902344,1.6950948238372803,0.08140286058187485
1732873430228299300,0.88429931640625,9.253589630126953,1.7118542194366455,0.033518824726343155
1732873430238308900,0.894308837890625,9.107542991638184,1.7741034030914307,-0.038307227194309235
1732873430248288300,0.904288330078125,9.050082206726074,1.843535304069519,-0.1149216815829277
1732873430258298000,0.914298095703125,9.05247688293457,1.920149803161621,-0.16998831927776337
1732873430268307700,0.9243076171875,9.153033256530762,1.9369091987609863,-0.11252748221158981
1732873430278287000,0.934287109375,9.277531623840332,1.9536685943603516,-0.05506663769483566
1732873430288297000,0.944296875,9.287108421325684,1.900996208190918,-0.0933738648891449
1732873430298306600,0.954306640625,9.38048267364502,1.8914192914962769,-0.0933738648891449
1732873430308286000,0.964285888671875,9.593565940856934,1.8195933103561401,-0.06703764945268631
1732873430318295600,0.974295654296875,9.658209800720215,1.742978811264038,0.040701430290937424
1732873430328305400,0.984305419921875,9.651026725769043,1.5705963373184204,0.4165911078453064
1732873430338284800,0.994284912109375,9.885659217834473,1.314416766166687,0.6607996821403503
1732873430348294400,1.00429443359375,9.840168952941895,1.5538369417190552,0.05746084079146385
1732873430358304000,1.014303955078125,10.125079154968262,1.8770540952682495,-0.2968810200691223
1732873430368313900,1.02431396484375,10.970232009887695,1.7812861204147339,-0.47884035110473633
1732873430378293200,1.034293212890625,11.30302619934082,1.6376339197158813,-0.2537853717803955
1732873430388302800,1.044302734375,11.286267280578613,1.4891934394836426,-0.12210428714752197
1732873430398312700,1.054312744140625,10.972626686096191,1.3982137441635132,0.023942016065120697
1732873430408292000,1.0642919921875,10.548852920532227,1.37906014919281,0.08140286058187485
1732873430418301700,1.0743017578125,10.14902114868164,1.403002142906189,0.08619125932455063
1732873430428311600,1.0843115234375,9.871294021606445,1.4293384552001953,0.016759412363171577
1732873430438290700,1.094290771484375,9.57441234588623,1.4915876388549805,-0.033518824726343155
1732873430448300500,1.104300537109375,9.404424667358398,1.5610195398330688,-0.05267243832349777
1732873430458310100,1.11431005859375,9.227252960205078,1.6065093278884888,-0.11013327538967133
1732873430468289500,1.12428955078125,9.148244857788086,1.6065093278884888,-0.06703764945268631
1732873430478299400,1.13429931640625,9.045293807983398,1.6400281190872192,0.05027823522686958
1732873430488309000,1.14430908203125,9.023746490478516,1.5945383310317993,0.15322890877723694
1732873430498288400,1.154288330078125,9.097966194152832,1.5897499322891235,0.181959331035614
1732873430508298200,1.16429833984375,9.162610054016113,1.601720929145813,0.21308395266532898
1732873430518307800,1.174307861328125,9.220070838928223,1.601720929145813,0.21308395266532898
1732873430528287000,1.184286865234375,9.263166427612305,1.6735470294952393,0.07182604819536209
1732873430538296800,1.194296875,9.38048267364502,1.7046716213226318,-0.0071826050989329815
1732873430548306400,1.204306396484375,9.524134635925293,1.7477672100067139,-0.06703764945268631
1732873430558285800,1.214285888671875,9.586383819580078,1.7741034030914307,-0.035913024097681046
1732873430568295700,1.224295654296875,9.691728591918945,1.7477672100067139,0.14365209639072418
1732873430578305300,1.23430517578125,9.734824180603027,1.7597382068634033,0.2537853717803955
1732873430588284700,1.24428466796875,9.77791976928711,1.7980455160140991,0.33279404044151306
1732873430598294500,1.25429443359375,9.852140426635742,1.7956513166427612,0.4357447028160095
1732873430608304000,1.26430419921875,9.823410034179688,1.7860745191574097,0.4429273009300232
1732873430618314000,1.27431396484375,9.835380554199219,1.7812861204147339,0.4165911078453064
1732873430628293000,1.284293212890625,9.945513725280762,1.7477672100067139,0.38546648621559143
1732873430638302700,1.294302734375,10.007762908935547,1.6735470294952393,0.40940847992897034
1732873430648312600,1.3043125,10.014945983886719,1.6639702320098877,0.4572925269603729
1732873430658292000,1.3142919921875,9.916783332824707,1.702277421951294,0.49320554733276367
1732873430668301600,1.324301513671875,9.715670585632324,1.7405846118927002,0.5123591423034668
1732873430678311400,1.3343115234375,9.44991397857666,1.7334020137786865,0.6009446382522583
1732873430688290800,1.344290771484375,9.255983352661133,1.7094600200653076,0.6153098344802856
1732873430698300700,1.35430078125,9.138668060302734,1.6879122257232666,0.7374141216278076
1732873430708310300,1.364310302734375,9.066842079162598,1.6687586307525635,0.9289502501487732
1732873430718289400,1.374289306640625,9.10993766784668,1.6663644313812256,0.9983820915222168
1732873430728299300,1.38429931640625,9.26795482635498,1.702277421951294,1.2234370708465576
1732873430738308900,1.394308837890625,9.41639518737793,1.7357962131500244,1.3646949529647827
1732873430748288300,1.404288330078125,9.605537414550781,1.764526605606079,1.5059528350830078
1732873430758298000,1.414298095703125,9.821015357971191,1.766920804977417,1.7693150043487549
1732873430768307700,1.4243076171875,10.08437728881836,1.7836803197860718,2.0398597717285156
1732873430778287000,1.434287109375,10.105925559997559,1.7501614093780518,2.255337953567505
1732873430788297000,1.444296875,9.976638793945312,1.723825216293335,2.449268341064453
1732873430798306600,1.454306640625,9.696516990661621,1.647210717201233,2.676717519760132
1732873430808286000,1.464285888671875,9.497797966003418,1.4676456451416016,2.671929121017456
1732873430818295600,1.474295654296875,9.59596061706543,1.5322890281677246,2.9448680877685547
1732873430828305400,1.484305419921875,9.464279174804688,1.4317326545715332,2.937685489654541
1732873430838284800,1.494284912109375,9.349357604980469,1.2258312702178955,2.786850690841675
1732873430848294400,1.50429443359375,9.47146224975586,1.1061211824417114,2.829946517944336
1732873430858304000,1.514303955078125,9.801861763000488,0.9481038451194763,2.9472622871398926
1732873430868313900,1.52431396484375,10.213664054870605,0.8643068075180054,3.0406360626220703
1732873430878293200,1.534293212890625,10.721235275268555,0.8044517636299133,3.1100680828094482
1732873430888302800,1.544302734375,10.99656867980957,0.9457096457481384,2.980781078338623
1732873430898312700,1.554312744140625,10.960655212402344,1.1324573755264282,2.6240451335906982
1732873430908292000,1.5642919921875,10.685321807861328,1.3431471586227417,2.3343467712402344
1732873430918301700,1.5743017578125,10.33098030090332,1.5107412338256836,2.1571757793426514
1732873430928311600,1.5843115234375,10.041281700134277,1.6112977266311646,2.0805611610412598
1732873430938290700,1.594290771484375,9.861717224121094,1.6041151285171509,2.185906171798706
1732873430948300500,1.604300537109375,9.782708168029785,1.6280571222305298,2.1092917919158936
1732873430958310100,1.61431005859375,9.775525093078613,1.5466543436050415,1.9752163887023926
1732873430968289500,1.62428955078125,9.816226959228516,1.4293384552001953,1.7741034030914307
1732873430978299400,1.63429931640625,10.0580415725708,1.3048399686813354,1.5682021379470825
1732873430988309000,1.64430908203125,10.44350814819336,1.1563993692398071,1.4077905416488647
1732873430998288400,1.654288330078125,10.769119262695312,1.0319008827209473,1.2234370708465576
1732873431008298200,1.66429833984375,10.979808807373047,0.9720458984375,0.933738648891449
1732873431018307800,1.674307861328125,10.986991882324219,0.9457096457481384,0.6943184733390808
1732873431028287000,1.684286865234375,10.733205795288086,0.9409212470054626,0.5410895943641663
1732873431038296800,1.694296875,10.125079154968262,0.9528923034667969,0.2968810200691223
1732873431048306400,1.704306396484375,9.5408935546875,0.993593692779541,0.16519992053508759
1732873431058285800,1.714285888671875,9.090784072875977,1.0103530883789062,0.06703764945268631
1732873431068295700,1.724295654296875,9.042900085449219,0.9528923034667969,-0.002394201699644327
1732873431078305300,1.73430517578125,9.311050415039062,0.828393816947937,-0.0071826050989329815
1732873431088284700,1.74428466796875,9.63187313079834,0.7086837291717529,-0.05746084079146385
1732873431098294500,1.75429443359375,9.995792388916016,0.5793967843055725,-0.1843535304069519
1732873431108304100,1.76430419921875,10.168174743652344,0.47644615173339844,-0.24660277366638184
1732873431118314000,1.77431396484375,10.065223693847656,0.4381389021873474,-0.3208230137825012
1732873431128293000,1.784293212890625,9.684545516967773,0.35673606395721436,-0.3758896589279175
1732873431138302700,1.794302734375,9.330204010009766,0.4668693244457245,-0.5410895943641663
1732873431148312600,1.8043125,8.820239067077637,0.5195417404174805,-0.6871358752250671
1732873431158292000,1.8142919921875,8.413225173950195,0.6224924325942993,-0.608127236366272
1732873431168301600,1.824301513671875,8.01339340209961,0.6919242739677429,-0.4884171485900879
1732873431178311400,1.8343115234375,7.702147006988525,0.790086567401886,-0.6416460275650024
1732873431188290800,1.844290771484375,7.4986395835876465,0.8834604024887085,-0.8020575642585754
1732873431198300700,1.85430078125,7.797914981842041,0.768538773059845,-0.6392518281936646
1732873431208310300,1.864310302734375,8.540117263793945,0.5985504388809204,-0.4189853072166443
1732873431218289400,1.874289306640625,9.241618156433105,0.7158663272857666,-0.37828385829925537
1732873431228299300,1.88429931640625,9.684545516967773,0.8451532125473022,-0.5099649429321289
1732873431238308900,1.894308837890625,9.897629737854004,0.9576807022094727,-0.5482721924781799
1732873431248288300,1.904288330078125,9.967061996459961,1.094150185585022,-0.5506663918495178
1732873431258298000,1.914298095703125,9.911994934082031,1.1348515748977661,-0.5482721924781799
1732873431268307700,1.9243076171875,9.952696800231934,1.070208191871643,-0.4836287498474121
1732873431278287000,1.934287109375,10.062829971313477,0.9552865028381348,-0.5171475410461426
1732873431288297000,1.944296875,10.290278434753418,0.8547300100326538,-0.6584054827690125
1732873431298306600,1.954306640625,10.680533409118652,0.6775590777397156,-0.8403648138046265
1732873431308286000,1.964285888671875,11.085153579711914,0.5602431893348694,-1.1492167711257935
1732873431318295600,1.974295654296875,11.51611042022705,0.47405192255973816,-1.4269442558288574
1732873431328305400,1.984305419921875,11.779472351074219,0.4884171485900879,-1.6065093278884888
1732873431338284800,1.994284912109375,11.659762382507324,0.5913678407669067,-1.766920804977417
1732873431348294400,2.00429443359375,11.101913452148438,0.6919242739677429,-1.8052281141281128
1732873431358304000,2.014303955078125,10.101137161254883,0.8140285611152649,-1.766920804977417
1732873431368313900,2.02431396484375,9.160215377807617,0.9193734526634216,-1.8746598958969116
1732873431378293200,2.034293212890625,8.528146743774414,1.0247182846069336,-1.9057846069335938
1732873431388302800,2.044302734375,8.2312650680542,1.1037269830703735,-1.8363527059555054
1732873431398312700,2.054312744140625,8.209717750549316,1.0773907899856567,-1.7262194156646729
1732873431408292000,2.0642919921875,8.458714485168457,1.0079588890075684,-1.5275006294250488
1732873431418301700,2.0743017578125,8.789113998413086,0.9720458984375,-1.436521053314209
1732873431428311600,2.0843115234375,9.131484985351562,0.9265560507774353,-1.338358759880066
1732873431438290700,2.094290771484375,9.306262016296387,0.8834604024887085,-1.2665326595306396
1732873431448300500,2.104300537109375,9.351752281188965,0.9768342971801758,-1.2114660739898682
1732873431458310100,2.11431005859375,9.272743225097656,1.039083480834961,-1.216254472732544
1732873431468289500,2.12428955078125,9.095572471618652,0.9433154463768005,-1.213860273361206
1732873431478299400,2.13429931640625,9.153033256530762,0.768538773059845,-1.2473790645599365
1732873431488309000,2.14430908203125,9.500192642211914,0.586579442024231,-1.278503656387329
1732873431498288400,2.154288330078125,10.103530883789062,0.4812345504760742,-1.1875240802764893
1732873431508298200,2.16429833984375,10.613495826721191,0.40940847992897034,-1.278503656387329
1732873431518307800,2.174307861328125,11.1474027633667,0.44532153010368347,-1.3934253454208374
1732873431528287000,2.184286865234375,11.396400451660156,0.5506663918495178,-1.482010841369629
1732873431538296800,2.194296875,11.109095573425293,0.6919242739677429,-1.4484920501708984
1732873431548306400,2.204306396484375,10.426748275756836,0.8667010068893433,-1.4724340438842773
1732873431558285800,2.214285888671875,9.509769439697266,1.0247182846069336,-1.5298948287963867
1732873431568295700,2.224295654296875,8.868123054504395,1.1492167711257935,-1.6160861253738403
1732873431578305300,2.23430517578125,8.458714485168457,1.2737152576446533,-1.580173134803772
1732873431588284700,2.24428466796875,8.374917984008789,1.3623007535934448,-1.558625340461731
1732873431598294500,2.25429443359375,8.547300338745117,1.482010841369629,-1.5969325304031372
1732873431608304000,2.26430419921875,8.995016098022461,1.6615760326385498,-1.7741034030914307
1732873431618314000,2.27431396484375,9.433155059814453,1.7094600200653076,-1.8195933103561401
1732873431628293000,2.284293212890625,9.813833236694336,1.7501614093780518,-1.843535304069519
1732873431638302700,2.294302734375,10.089165687561035,1.7573440074920654,-1.946485996246338
1732873431648312600,2.3043125,10.453084945678711,1.745373010635376,-2.030282974243164
1732873431658292000,2.3142919921875,10.864887237548828,1.7262194156646729,-2.0661959648132324
1732873431668301600,2.324301513671875,11.264719009399414,1.6879122257232666,-2.1499931812286377
1732873431678311400,2.3343115234375,11.537657737731934,1.6424223184585571,-2.140416383743286
1732873431688290800,2.344290771484375,11.745953559875488,1.6136919260025024,-2.0470423698425293
1732873431698300700,2.35430078125,11.710040092468262,1.6376339197158813,-1.9584569931030273
1732873431708310300,2.364310302734375,11.286267280578613,1.6328455209732056,-1.8938134908676147
1732873431718289400,2.374289306640625,10.484209060668945,1.678335428237915,-1.8076223134994507
1732873431728299300,2.38429931640625,9.773131370544434,1.7525556087493896,-1.6543933153152466
1732873431738308900,2.394308837890625,9.121908187866211,1.8339585065841675,-1.6735470294952393
1732873431748288300,2.404288330078125,8.645462036132812,1.8938134908676147,-1.644816517829895
1732873431758298000,2.414298095703125,8.250418663024902,1.9033904075622559,-1.5682021379470825
1732873431768307700,2.4243076171875,8.063671112060547,1.9033904075622559,-1.525106430053711
1732873431778287000,2.434287109375,8.068459510803223,1.9345149993896484,-1.460463047027588
1732873431788297000,2.444296875,8.269572257995605,1.8986018896102905,-1.357512354850769
1732873431798306600,2.454306640625,8.655038833618164,1.8722656965255737,-1.1324573755264282
1732873431808286000,2.464285888671875,9.002198219299316,1.8722656965255737,-0.9193734526634216
1732873431818295800,2.4742958984375,9.186552047729492,1.9584569931030273,-0.8451532125473022
1732873431828305400,2.484305419921875,9.217676162719727,2.03507137298584,-0.7182605266571045
1732873431838284800,2.494284912109375,9.217676162719727,2.0805611610412598,-0.5315127968788147
1732873431848294400,2.50429443359375,9.30386734008789,2.1547815799713135,-0.2753331959247589
1732873431858304000,2.514303955078125,9.390059471130371,2.1308395862579346,-0.07182604819536209
1732873431868313900,2.52431396484375,9.57441234588623,2.188300371170044,0.1412578970193863
1732873431878293200,2.534293212890625,9.794678688049316,2.1571757793426514,0.33039984107017517
1732873431888302800,2.544302734375,10.02691650390625,2.183511972427368,0.5267243981361389
1732873431898312700,2.554312744140625,10.1753568649292,2.205059766769409,0.6033388376235962
1732873431908292000,2.5642919921875,10.251971244812012,2.248155355453491,0.6488286852836609
1732873431918301700,2.5743017578125,10.228029251098633,2.2409727573394775,0.6655880808830261
1732873431928311600,2.5843115234375,10.134655952453613,2.2385785579681396,0.6943184733390808
1732873431938290700,2.594290771484375,9.938331604003906,2.2433669567108154,0.5913678407669067
1732873431948300500,2.604300537109375,9.708487510681152,2.27209734916687,0.40940847992897034
1732873431958310100,2.61431005859375,9.5624418258667,2.164358377456665,0.43095630407333374
1732873431968289500,2.62428955078125,9.437943458557129,2.1763293743133545,0.3734954595565796
1732873431978299400,2.63429931640625,9.311050415039062,2.2840683460235596,0.1628057211637497
1732873431988309000,2.64430908203125,9.679757118225098,2.3271639347076416,0.22266076505184174
1732873431998288400,2.654288330078125,9.734824180603027,2.315192937850952,0.4165911078453064
1732873432008298200,2.66429833984375,9.751583099365234,2.408566951751709,0.49799394607543945
1732873432018307800,2.674307861328125,9.172186851501465,2.557007312774658,0.3758896589279175
1732873432028287000,2.684286865234375,8.851364135742188,2.6216509342193604,0.0071826050989329815
1732873432038296800,2.694296875,9.038111686706543,3.2082302570343018,-0.7398083209991455
1732873432048306400,2.704306396484375,9.138668060302734,2.9520506858825684,-0.4644751250743866
1732873432058285800,2.714285888671875,9.402029991149902,2.6384103298187256,0.2753331959247589
1732873432068295700,2.724295654296875,9.75637149810791,2.564189910888672,0.4165911078453064
1732873432078305300,2.73430517578125,9.952696800231934,2.542642116546631,0.5099649429321289
1732873432088284700,2.74428466796875,10.127472877502441,2.5115175247192383,0.507570743560791
1732873432098294500,2.75429443359375,10.029311180114746,2.583343744277954,0.31364041566848755
1732873432108304100,2.76430419921875,9.732429504394531,2.58813214302063,0.35673606395721436
1732873432118314000,2.77431396484375,9.454702377319336,2.5546131134033203,0.45010992884635925
1732873432128293000,2.784293212890625,9.363722801208496,2.513911724090576,0.5985504388809204
1732873432138302700,2.794302734375,9.38048267364502,2.4899697303771973,0.507570743560791
1732873432148312600,2.8043125,9.524134635925293,2.492363929748535,0.4118026793003082
1732873432158292000,2.8142919921875,9.655815124511719,2.494758129119873,0.22026655077934265
1732873432168301600,2.824301513671875,9.715670585632324,2.4420857429504395,0.0933738648891449
1732873432178311400,2.8343115234375,9.720458984375,2.425326347351074,0.0933738648891449
1732873432188290800,2.844290771484375,9.660603523254395,2.408566951751709,0.07900865375995636
1732873432198300700,2.85430078125,9.509769439697266,2.410961151123047,0.05267243832349777
1732873432208310300,2.864310302734375,9.394847869873047,2.4133553504943848,0.07661445438861847
1732873432218289400,2.874289306640625,9.344569206237793,2.4899697303771973,0.040701430290937424
1732873432228299300,2.88429931640625,9.27034854888916,2.518700122833252,-0.016759412363171577
1732873432238308900,2.894308837890625,9.253589630126953,2.612074136734009,-0.07422025501728058
1732873432248288300,2.904288330078125,9.473855972290039,2.6791117191314697,-0.17238251864910126
1732873432258298000,2.914298095703125,9.904812812805176,2.738966703414917,-0.21308395266532898
1732873432268307700,2.9243076171875,10.374075889587402,2.80361008644104,-0.21547815203666687
1732873432278287000,2.934287109375,10.735600471496582,2.8874073028564453,-0.1364694982767105
1732873432288297000,2.944296875,11.02051067352295,3.0166940689086914,-0.1412578970193863
1732873432298306600,2.954306640625,11.135432243347168,3.1890766620635986,-0.1388636976480484
1732873432308286000,2.964285888671875,10.955866813659668,3.4189200401306152,-0.08379705995321274
1732873432318295800,2.9742958984375,10.60152530670166,3.6391866207122803,-0.07182604819536209
1732873432328305400,2.984305419921875,10.251971244812012,3.754108190536499,-0.17956513166427612
1732873432338284800,2.994284912109375,9.95748519897461,3.6343982219696045,-0.24660277366638184
1732873432348294400,3.00429443359375,9.981427192687988,3.268085241317749,-0.18914192914962769
1732873432358304000,3.014303955078125,10.338163375854492,2.782062292098999,-0.0694318488240242
1732873432368313900,3.02431396484375,11.034875869750977,2.1739351749420166,-0.0071826050989329815
1732873432378293200,3.034293212890625,11.779472351074219,1.6112977266311646,0.05985504388809204
1732873432388302800,3.044302734375,12.540828704833984,1.158793568611145,0.2346317619085312
1732873432398312700,3.054312744140625,13.345280647277832,0.8259995579719543,0.3064578175544739
1732873432408292000,3.0642919921875,13.632584571838379,0.7374141216278076,0.1867477297782898
1732873432418301700,3.0743017578125,13.35964584350586,0.768538773059845,-0.043095629662275314
1732873432428311600,3.0843115234375,12.595894813537598,0.8331822156906128,-0.17238251864910126
1732873432438290700,3.094290771484375,11.250353813171387,0.933738648891449,-0.2537853717803955
1732873432448300500,3.104300537109375,10.067618370056152,1.0271124839782715,-0.21787235140800476
1732873432458310100,3.11431005859375,8.774748802185059,1.1755530834197998,-0.17717093229293823
1732873432468289500,3.12428955078125,7.948749542236328,1.213860273361206,-0.27054479718208313
1732873432478299400,3.13429931640625,7.386112213134766,1.3694833517074585,-0.3974374830722809
1732873432488309000,3.14430908203125,6.900089263916016,1.3958195447921753,-0.646434485912323
1732873432498288400,3.154288330078125,6.50025749206543,1.3886369466781616,-0.8643068075180054
1732873432508298200,3.16429833984375,6.133944988250732,1.4939818382263184,-1.1683704853057861
1732873432518307800,3.174307861328125,5.789179801940918,1.5897499322891235,-1.5275006294250488
1732873432528287000,3.184286865234375,5.458779811859131,1.5610195398330688,-1.6519991159439087
1732873432538296800,3.194296875,5.2672438621521,1.5921441316604614,-1.699883222579956
1732873432548306400,3.204306396484375,5.394136428833008,1.5634137392044067,-1.7621324062347412
1732873432558285800,3.214285888671875,5.810727596282959,1.501164436340332,-1.845929503440857
1732873432568295700,3.224295654296875,6.643909931182861,1.3072341680526733,-1.8171991109848022
1732873432578305300,3.23430517578125,7.6111674308776855,1.1348515748977661,-1.5729905366897583
1732873432588284700,3.24428466796875,8.93037223815918,1.0319008827209473,-1.3886369466781616
1732873432598294500,3.25429443359375,10.36449909210205,1.0199298858642578,-1.3048399686813354
1732873432608304000,3.26430419921875,11.710040092468262,1.0055646896362305,-1.1516109704971313
1732873432618314000,3.27431396484375,12.952630996704102,1.070208191871643,-0.933738648891449
1732873432628293000,3.284293212890625,13.548787117004395,1.2258312702178955,-0.751779317855835
1732873432638302700,3.294302734375,13.278243064880371,1.5203180313110352,-0.6488286852836609
1732873432648312600,3.3043125,12.318167686462402,1.7860745191574097,-0.38546648621559143
1732873432658292000,3.3142919921875,10.706870079040527,2.1930887699127197,-0.24420857429504395
1732873432668301600,3.324301513671875,9.423578262329102,2.5474305152893066,-0.24181437492370605
1732873432678311400,3.3343115234375,8.252813339233398,2.8826189041137695,-0.16998831927776337
1732873432688290800,3.344290771484375,7.419631004333496,3.07415509223938,-0.16998831927776337
1732873432698300700,3.35430078125,6.715735912322998,3.1675288677215576,-0.2513911724090576
1732873432708310300,3.364310302734375,6.399701118469238,3.1316158771514893,-0.3471592366695404
1732873432718289400,3.374289306640625,6.495469093322754,2.9688100814819336,-0.43335050344467163
1732873432728299300,3.38429931640625,7.079654216766357,2.75812029838562,-0.7493851184844971
1732873432738308900,3.394308837890625,7.778761386871338,2.58813214302063,-0.9816226959228516
1732873432748288300,3.404288330078125,8.796297073364258,2.432508945465088,-0.8858546018600464
1732873432758298000,3.414298095703125,9.548076629638672,2.3056161403656006,-0.8212111592292786
1732873432768307700,3.4243076171875,10.007762908935547,2.3702597618103027,-0.8379706144332886
1732873432778287000,3.434287109375,10.160991668701172,2.3798365592956543,-0.8595184087753296
1732873432788297000,3.444296875,10.153809547424316,2.2912509441375732,-0.790086567401886
1732873432798306600,3.454306640625,9.971850395202637,2.3056161403656006,-0.5315127968788147
1732873432808286000,3.464285888671875,9.78989028930664,2.185906171798706,-0.5817909836769104
1732873432818295800,3.4742958984375,10.101137161254883,2.190694570541382,-0.646434485912323
1732873432828305400,3.484305419921875,10.462661743164062,2.2912509441375732,-0.7996633648872375
1732873432838284800,3.494284912109375,10.668562889099121,2.1811177730560303,-0.8236053586006165
1732873432848294400,3.50429443359375,10.72602367401123,2.1045033931732178,-0.6057330369949341
1732873432858304000,3.514303955078125,10.821791648864746,2.0446481704711914,-0.3519476354122162
1732873432868313900,3.52431396484375,10.912771224975586,1.968033790588379,-0.33997663855552673
1732873432878293200,3.534293212890625,11.013327598571777,1.987187385559082,-0.40222588181495667
1732873432888302800,3.544302734375,10.843339920043945,2.013523578643799,-0.4812345504760742
1732873432898312700,3.554312744140625,10.587160110473633,2.0254945755004883,-0.4572925269603729
1732873432908292000,3.5642919921875,10.441113471984863,2.075772762298584,-0.38307225704193115
1732873432918301700,3.5743017578125,10.26394271850586,2.011129379272461,-0.040701430290937424
1732873432928311600,3.5843115234375,10.259154319763184,1.9536685943603516,0.181959331035614
1732873432938290700,3.594290771484375,10.460267066955566,1.9943699836730957,0.19632454216480255
1732873432948300500,3.604300537109375,10.958261489868164,2.2026655673980713,0.1604115068912506
1732873432958310100,3.61431005859375,11.403582572937012,2.4229321479797363,0.10773907601833344
1732873432968289500,3.62428955078125,11.561599731445312,2.52109432220459,-0.043095629662275314
1732873432978299400,3.63429931640625,11.432312965393066,2.449268341064453,-0.17238251864910126
1732873432988309000,3.64430908203125,11.101913452148438,2.027888774871826,-0.33279404044151306
1732873432998288400,3.654288330078125,11.118672370910645,1.3479355573654175,-0.6177040338516235
1732873433008298200,3.66429833984375,11.681309700012207,0.49320554733276367,-0.8236053586006165
1732873433018307800,3.674307861328125,12.69405746459961,-0.14365209639072418,-0.9959878921508789
1732873433028287000,3.684286865234375,14.16409683227539,-0.47884035110473633,-1.1659762859344482
1732873433038296800,3.694296875,15.06910514831543,-0.3423708379268646,-1.235408067703247
1732873433048306400,3.704306396484375,14.511256217956543,0.07661445438861847,-0.9217676520347595
1732873433058285800,3.714285888671875,12.469002723693848,0.5267243981361389,-0.7733271718025208
1732873433068295700,3.724295654296875,10.218452453613281,0.9313444495201111,-0.48602294921875
1732873433078305300,3.73430517578125,7.682993412017822,1.0558429956436157,-0.038307227194309235
1732873433088284700,3.74428466796875,5.8203043937683105,1.3048399686813354,0.849941611289978
1732873433098294500,3.75429443359375,3.974374771118164,1.4867992401123047,1.3263877630233765
1732873433108304100,3.76430419921875,2.964021682739258,1.723825216293335,1.4652514457702637
1732873433118314000,3.77431396484375,2.5498247146606445,1.8914192914962769,1.702277421951294
1732873433128293000,3.784293212890625,2.626439332962036,1.7621324062347412,1.7070658206939697
1732873433138302700,3.794302734375,3.3901896476745605,1.4987702369689941,1.4484920501708984
1732873433148312600,3.8043125,5.370194435119629,1.216254472732544,0.47644615173339844
1732873433158292000,3.8142919921875,7.297526836395264,0.950498104095459,0.5195417404174805
1732873433168301600,3.824301513671875,9.14345645904541,0.42616790533065796,0.1412578970193863
1732873433178311400,3.8343115234375,10.72841739654541,0.24181437492370605,-0.019153613597154617
1732873433188290800,3.844290771484375,12.39957046508789,0.3447650372982025,0.021547814831137657
1732873433198300700,3.85430078125,13.378799438476562,0.5937620401382446,0.0071826050989329815
1732873433208310300,3.864310302734375,13.589488983154297,0.9792284965515137,0.028730420395731926
1732873433218289400,3.874289306640625,12.792220115661621,1.5059528350830078,0.07900865375995636
1732873433228299300,3.88429931640625,11.35809326171875,1.9057846069335938,-0.10295066982507706
1732873433238308900,3.894308837890625,10.010157585144043,2.231395959854126,-0.1867477297782898
1732873433248288300,3.904288330078125,8.947132110595703,2.406172752380371,-0.22505496442317963
1732873433258298000,3.914298095703125,8.106766700744629,2.559401512145996,-0.1628057211637497
1732873433268307700,3.9243076171875,7.754819393157959,2.6647465229034424,-0.16998831927776337
1732873433278287000,3.934287109375,7.704541206359863,2.6144683361053467,-0.17956513166427612
1732873433288297000,3.944296875,7.826645374298096,2.540247917175293,-0.181959331035614
1732873433298306600,3.954306640625,7.9846625328063965,2.4636335372924805,-0.17477671802043915
1732873433308286000,3.964285888671875,8.147468566894531,2.322375535964966,-0.033518824726343155
1732873433318295800,3.9742958984375,8.322244644165039,2.22660756111145,-0.019153613597154617
1732873433328305400,3.984305419921875,8.609549522399902,2.205059766769409,-0.011971008032560349
1732873433338284800,3.994284912109375,8.942343711853027,2.1763293743133545,0.16759411990642548
1732873433348294400,4.00429443359375,9.188945770263672,2.140416383743286,0.33997663855552673
1732873433358304000,4.014303955078125,9.313444137573242,2.0901381969451904,0.43095630407333374
1732873433368313900,4.02431396484375,9.531316757202148,1.9800047874450684,0.646434485912323
1732873433378293200,4.034293212890625,9.701305389404297,1.845929503440857,0.8451532125473022
1732873433388302800,4.044302734375,9.713275909423828,1.7549498081207275,0.8667010068893433
1732873433398312700,4.054312744140625,9.744400978088379,1.764526605606079,0.8762778043746948
1732873433408292000,4.0642919921875,9.672574996948242,1.824381709098816,0.8882488012313843
1732873433418301700,4.0743017578125,9.495404243469238,1.8602946996688843,0.8619126081466675
1732873433428311600,4.0843115234375,9.366117477416992,1.9584569931030273,0.7398083209991455
1732873433438290700,4.094290771484375,9.3828763961792,2.1380221843719482,0.5363011956214905
1732873433448300500,4.104300537109375,9.605537414550781,2.3127987384796143,0.33997663855552673
1732873433458310100,4.11431005859375,9.90241813659668,2.425326347351074,0.181959331035614
1732873433468289500,4.12428955078125,10.32858657836914,2.4588451385498047,0.11013327538967133
1732873433478299400,4.13429931640625,10.96304988861084,2.3726539611816406,0.11252748221158981
1732873433488309000,4.14430908203125,11.535264015197754,2.3104045391082764,0.19871874153614044
1732873433498288400,4.154288330078125,12.270283699035645,2.2361843585968018,0.2346317619085312
1732873433508298200,4.16429833984375,12.892776489257812,2.1595699787139893,0.14365209639072418
1732873433518307800,4.174307861328125,13.467384338378906,2.248155355453491,-0.16998831927776337
1732873433528287000,4.184286865234375,13.634978294372559,2.4684219360351562,-0.4644751250743866
1732873433538296800,4.194296875,13.309367179870605,2.580949544906616,-0.8020575642585754
1732873433548306400,4.204306396484375,12.519280433654785,2.425326347351074,-1.039083480834961
1732873433558285800,4.214285888671875,11.805809020996094,1.9752163887023926,-1.3910311460494995
1732873433568295700,4.224295654296875,11.6430025100708,1.2018892765045166,-1.5298948287963867
1732873433578305300,4.23430517578125,12.097901344299316,0.23702596127986908,-1.4508862495422363
1732873433588284700,4.24428466796875,13.105859756469727,-0.5434837937355042,-1.1444283723831177
1732873433598294500,4.25429443359375,14.15212631225586,-0.9983820915222168,-0.8595184087753296
1732873433608304000,4.26430419921875,14.295778274536133,-0.8164227604866028,-1.036689281463623
1732873433618314000,4.27431396484375,13.211204528808594,-0.49320554733276367,-1.1468225717544556
1732873433628293000,4.284293212890625,11.279084205627441,-0.1628057211637497,-1.0965443849563599
1732873433638302700,4.294302734375,9.332598686218262,0.1388636976480484,-1.0007762908935547
1732873433648312600,4.3043125,6.9240312576293945,0.5530605912208557,-1.0749965906143188
1732873433658292000,4.3142919921875,5.066130638122559,0.9241618514060974,-1.6136919260025024
1732873433668301600,4.324301513671875,3.5721490383148193,1.3742717504501343,-1.558625340461731
1732873433678311400,4.3343115234375,2.7940332889556885,1.5969325304031372,-1.522712230682373
1732873433688290800,4.344290771484375,2.4803929328918457,1.4413094520568848,-1.4077905416488647
1732873433698300700,4.35430078125,2.7485435009002686,1.2497732639312744,-0.9792284965515137
1732873433708310300,4.364310302734375,3.179499864578247,1.2425906658172607,-1.1755530834197998
1732873433718289400,4.374289306640625,4.005499362945557,1.6065093278884888,-3.0406360626220703
1732873433728299300,4.38429931640625,6.517016887664795,0.993593692779541,-2.3319525718688965
1732873433738309000,4.39430908203125,9.169792175292969,0.45010992884635925,-0.9816226959228516
1732873433748288300,4.404288330078125,11.556811332702637,0.1412578970193863,-0.09816227108240128
1732873433758298000,4.414298095703125,13.670891761779785,0.05985504388809204,0.5147533416748047
1732873433768307700,4.4243076171875,14.561534881591797,0.5386953949928284,0.42616790533065796
1732873433778287000,4.434287109375,14.293384552001953,1.41257905960083,-0.12928688526153564
1732873433788297000,4.444296875,13.39316463470459,2.0159177780151367,-0.3734954595565796
1732873433798306600,4.454306640625,11.743558883666992,2.427720546722412,-0.3974374830722809
1732873433808286000,4.464285888671875,10.285490036010742,2.4636335372924805,-0.5267243981361389
1732873433818295800,4.4742958984375,9.205705642700195,2.477998733520508,-0.5746083855628967
1732873433828305400,4.484305419921875,8.635885238647461,2.4420857429504395,-0.3998316824436188
1732873433838284800,4.494284912109375,8.463502883911133,2.2385785579681396,-0.6751648783683777
1732873433848294400,4.50429443359375,8.343792915344238,2.1475989818573,-0.912190854549408
1732873433858304000,4.514303955078125,8.413225173950195,2.0254945755004883,-0.950498104095459
1732873433868313900,4.52431396484375,8.69095230102539,1.9823989868164062,-1.036689281463623
1732873433878293200,4.534293212890625,9.028534889221191,2.0015525817871094,-1.2066776752471924
1732873433888302800,4.544302734375,9.394847869873047,2.075772762298584,-1.2497732639312744
1732873433898312700,4.554312744140625,9.545681953430176,2.142810583114624,-1.2856862545013428
1732873433908292000,4.5642919921875,9.725247383117676,2.1763293743133545,-1.3551181554794312
1732873433918301700,4.5743017578125,9.62947940826416,2.2816741466522217,-1.7142484188079834
1732873433928311600,4.5843115234375,9.373299598693848,2.2864625453948975,-1.9632453918457031
1732873433938290700,4.594290771484375,8.959102630615234,2.0853497982025146,-1.678335428237915
1732873433948300500,4.604300537109375,8.549694061279297,1.9105730056762695,-1.2066776752471924
1732873433958310100,4.61431005859375,8.47786808013916,1.9129672050476074,-0.8451532125473022
1732873433968289500,4.62428955078125,8.59997272491455,1.8483237028121948,-0.790086567401886
1732873433978299400,4.63429931640625,8.638279914855957,1.9321208000183105,-0.5793967843055725
1732873433988309000,4.64430908203125,8.71728801727295,2.0231003761291504,-0.5770025849342346
1732873433998288400,4.654288330078125,9.040505409240723,2.1332337856292725,-1.0319008827209473
1732873434008298200,4.66429833984375,9.531316757202148,2.145204782485962,-1.3455413579940796
1732873434018307800,4.674307861328125,10.283096313476562,2.078166961669922,-1.580173134803772
1732873434028413400,4.684413330078125,10.87446403503418,2.030282974243164,-1.6974890232086182
1732873434038423300,4.69442333984375,11.101913452148438,1.9847931861877441,-1.8171991109848022
1732873434048433000,4.704432861328125,11.274295806884766,1.944091796875,-1.7166426181793213
1732873434058412300,4.714412353515625,11.346121788024902,1.8962076902389526,-1.335964560508728
1732873434068422100,4.724422119140625,11.03248119354248,2.049436569213867,-0.9911994934082031
1732873434078431700,4.734431640625,10.491392135620117,2.3104045391082764,-0.9313444495201111
1732873434088411100,4.7444111328125,10.031704902648926,2.557007312774658,-0.5889736413955688
1732873434098421000,4.7544208984375,9.50737476348877,2.7293899059295654,-0.38067805767059326
1732873434108430600,4.7644306640625,9.157821655273438,3.095702886581421,-0.1628057211637497
1732873434118440400,4.7744404296875,9.064447402954102,2.913743495941162,-0.20111294090747833
1732873434128419600,4.784419677734375,9.210494041442871,2.0398597717285156,-0.16519992053508759
1732873434138429200,4.79442919921875,10.012551307678223,0.8236053586006165,0.10055647045373917
1732873434148439000,4.80443896484375,11.674127578735352,-0.33279404044151306,0.5602431893348694
1732873434158418400,4.81441845703125,13.922283172607422,-1.094150185585022,0.950498104095459
1732873434168428000,4.824427978515625,15.660472869873047,-0.9361328482627869,0.5386953949928284
1732873434178438000,4.83443798828125,15.871163368225098,-0.10534487664699554,0.11252748221158981
1732873434188417300,4.844417236328125,14.178462028503418,0.2992752194404602,0.3232172429561615
1732873434198427100,4.85442724609375,11.152191162109375,0.9026140570640564,0.47644615173339844
1732873434208436700,4.864436767578125,8.652645111083984,1.2713210582733154,0.3878606855869293
1732873434218415900,4.874415771484375,6.028599739074707,1.5945383310317993,0.7948749661445618
1732873434228425700,4.88442578125,4.376600742340088,1.680729627609253,1.4676456451416016
1732873434238435300,4.894435302734375,3.7924153804779053,1.5275006294250488,1.987187385559082
1732873434248414700,4.904414794921875,4.01268196105957,1.2234370708465576,1.9991583824157715
1732873434258424600,4.914424560546875,4.58968448638916,0.9648633003234863,1.6879122257232666
1732873434268434200,4.92443408203125,6.162675380706787,0.7661445140838623,1.0773907899856567
1732873434278413600,4.93441357421875,8.063671112060547,0.5793967843055725,0.6823474764823914
1732873434288423400,4.94442333984375,10.146626472473145,0.5219359993934631,0.181959331035614
1732873434298433000,4.95443310546875,11.583148002624512,0.4644751250743866,0.181959331035614
1732873434308412400,4.964412353515625,12.550405502319336,0.5817909836769104,0.2298433631658554
1732873434318422000,4.974422119140625,12.773066520690918,0.8475474119186401,0.2825157940387726
1732873434328431900,4.984431884765625,12.100295066833496,1.1180921792984009,0.40462008118629456
1732873434338411000,4.994410888671875,11.061211585998535,1.2713210582733154,0.28730419278144836
1732873434348420900,5.0044208984375,9.995792388916016,1.338358759880066,0.2777273952960968
1732873434358430500,5.014430419921875,9.332598686218262,1.4532804489135742,0.21308395266532898
1732873434368440300,5.0244404296875,8.954314231872559,1.577778935432434,0.08140286058187485
1732873434378419700,5.034419677734375,8.810662269592285,1.7262194156646729,0
1732873434388429300,5.04442919921875,8.880094528198242,1.824381709098816,0.12449848651885986
1732873434398439200,5.054439208984375,9.062053680419922,1.900996208190918,0.21787235140800476
1732873434408418600,5.06441845703125,9.165003776550293,1.9369091987609863,0.24420857429504395
1732873434418428200,5.07442822265625,9.272743225097656,1.9273324012756348,0.3974374830722809
1732873434428438000,5.08443798828125,9.409213066101074,1.944091796875,0.507570743560791
1732873434438417200,5.094417236328125,9.32541561126709,1.8339585065841675,0.6919242739677429
1732873434448427000,5.104427001953125,9.239224433898926,1.680729627609253,0.8619126081466675
1732873434458436600,5.1144365234375,9.301473617553711,1.5275006294250488,1.036689281463623
1732873434468416000,5.124416015625,9.607931137084961,1.3958195447921753,1.1683704853057861
1732873434478425900,5.13442578125,9.962273597717285,1.256955862045288,1.280897855758667
1732873434488435500,5.144435546875,10.319009780883789,1.194706678390503,1.3623007535934448
1732873434498414800,5.154414794921875,10.558429718017578,1.1037269830703735,1.4700398445129395
1732873434508424700,5.1644248046875,10.620678901672363,1.0654197931289673,1.53707754611969
1732873434518434300,5.174434326171875,10.405200958251953,1.070208191871643,1.5945383310317993
1732873434528413400,5.184413330078125,10.180145263671875,1.1013327836990356,1.5705963373184204
1732873434538423300,5.19442333984375,10.096348762512207,1.137245774269104,1.4748282432556152
1732873434548433000,5.204432861328125,10.1753568649292,1.290474772453308,1.2401964664459229
1732873434558412300,5.214412353515625,10.189722061157227,1.3838485479354858,0.9888052940368652
1732873434568422100,5.224422119140625,10.170568466186523,1.4077905416488647,0.667982280254364
1732873434578431700,5.234431640625,10.256759643554688,1.2832920551300049,0.6200982332229614
1732873434588411100,5.2444111328125,10.280701637268066,1.2090718746185303,0.4692635238170624
1732873434598421000,5.2544208984375,10.51054573059082,1.1061211824417114,0.3064578175544739
1732873434608430600,5.2644306640625,10.625467300415039,0.9481038451194763,0.10295066982507706
1732873434618440400,5.2744404296875,10.496180534362793,0.7254431247711182,-0.3663128614425659
1732873434628419600,5.284419677734375,10.326191902160645,0.4596867263317108,-0.8786720037460327
1732873434638429200,5.29442919921875,10.378864288330078,0.1412578970193863,-1.3934253454208374
1732873434648439000,5.30443896484375,10.680533409118652,-0.10534487664699554,-1.7549498081207275
1732873434658418400,5.31441845703125,11.434707641601562,-0.2825157940387726,-1.7286136150360107
1732873434668428000,5.324427978515625,12.564770698547363,-0.40222588181495667,-1.6663644313812256
1732873434678438000,5.33443798828125,13.539210319519043,-0.5003881454467773,-0.8643068075180054
1732873434688417300,5.344417236328125,13.038822174072266,-0.2944868206977844,0.004788403399288654
1732873434698427100,5.35442724609375,11.621455192565918,-0.07661445438861847,0.31603461503982544
1732873434708436700,5.364436767578125,10.041281700134277,0.3016694188117981,0.4357447028160095
1732873434718416000,5.374415771484375,8.611943244934082,0.6943184733390808,0.5315127968788147
1732873434728425700,5.38442578125,7.070077419281006,1.072602391242981,0.5602431893348694
1732873434738435300,5.394435302734375,6.129156112670898,1.2497732639312744,0.7541735172271729
1732873434748414700,5.404414794921875,5.434837818145752,1.4628572463989258,0.7158663272857666
1732873434758424600,5.414424560546875,5.331887245178223,1.5705963373184204,0.4572925269603729
1732873434768434200,5.42443408203125,5.51624059677124,1.6974890232086182,-0.14604631066322327
1732873434778413600,5.43441357421875,6.026205539703369,1.8531121015548706,-0.730231523513794
1732873434788423400,5.44442333984375,6.782773494720459,1.9297266006469727,-1.2042834758758545
1732873434798433000,5.45443310546875,7.433996200561523,1.6424223184585571,-1.1085153818130493
1732873434808412400,5.464412353515625,8.233659744262695,1.0007762908935547,-0.363918662071228
1732873434818422000,5.474422119140625,9.318233489990234,0.569819986820221,0.10295066982507706
1732873434828432000,5.484431884765625,10.35252857208252,0.35913026332855225,0.3447650372982025
1732873434838411000,5.494410888671875,11.599906921386719,0.16519992053508759,0.43335050344467163
1732873434848420900,5.5044208984375,12.67250919342041,0.14604631066322327,0.3902548849582672
1732873434858430500,5.514430419921875,13.33570384979248,0.3016694188117981,0.11971008777618408
1732873434868440300,5.5244404296875,13.431471824645996,0.6607996821403503,-0.3902548849582672
1732873434878419700,5.534419677734375,12.9741792678833,1.1204863786697388,-0.7541735172271729
1732873434888429600,5.5444296875,12.076353073120117,1.278503656387329,-0.7852981686592102
1732873434898439200,5.554439208984375,10.647014617919922,1.4891934394836426,-0.7493851184844971
1732873434908418600,5.56441845703125,9.469067573547363,1.6208745241165161,-0.9457096457481384
1732873434918428400,5.574428466796875,8.631096839904785,1.7046716213226318,-0.9409212470054626
1732873434928438000,5.58443798828125,7.891288757324219,1.7573440074920654,-0.9097966551780701
1732873434938417200,5.594417236328125,7.532158374786377,1.8315643072128296,-0.8236053586006165
1732873434948427000,5.604427001953125,7.433996200561523,1.824381709098816,-0.6512228846549988
1732873434958436600,5.6144365234375,7.524975776672363,1.8315643072128296,-0.6488286852836609
1732873434968416000,5.624416015625,7.898471355438232,1.8363527059555054,-0.7326257228851318
1732873434978425900,5.63442578125,8.389283180236816,1.702277421951294,-0.7206547260284424
1732873434988435500,5.644435546875,9.035717010498047,1.558625340461731,-0.790086567401886
1732873434998414800,5.654414794921875,9.53849983215332,1.3742717504501343,-0.9576807022094727
1732873435008424700,5.6644248046875,10.02452278137207,1.3718775510787964,-1.292868971824646
1732873435018434300,5.674434326171875,10.163386344909668,1.5179238319396973,-1.7884687185287476
1732873435028413400,5.684413330078125,10.14902114868164,1.6184803247451782,-2.0925323963165283
1732873435038423300,5.69442333984375,9.950302124023438,1.6543933153152466,-2.183511972427368
1732873435048433000,5.704432861328125,9.6989107131958,1.702277421951294,-2.0614075660705566
1732873435058412300,5.714412353515625,9.334992408752441,1.656787633895874,-1.8076223134994507
1732873435068422100,5.724422119140625,9.05487060546875,1.5897499322891235,-1.5466543436050415
1732873435078432000,5.734431884765625,8.892065048217773,1.5466543436050415,-1.2976573705673218
1732873435088411100,5.7444111328125,8.951920509338379,1.4484920501708984,-1.2306196689605713
1732873435098421000,5.7544208984375,9.272743225097656,1.3694833517074585,-0.9983820915222168
1732873435108430600,5.7644306640625,9.761159896850586,1.2018892765045166,-0.7398083209991455
1732873435118440400,5.7744404296875,10.259154319763184,1.0773907899856567,-0.5913678407669067
1732873435128419600,5.784419677734375,10.740388870239258,1.0678139925003052,-0.5674257874488831
1732873435138429400,5.794429443359375,11.250353813171387,1.0845733880996704,-0.6129156351089478
1732873435148439000,5.80443896484375,11.60708999633789,1.1563993692398071,-0.7565677165985107
1732873435158418400,5.81441845703125,11.611878395080566,1.2689268589019775,-0.790086567401886
1732873435168428300,5.82442822265625,11.32457447052002,1.4173674583435059,-0.6631938815116882
1732873435178438000,5.83443798828125,10.843339920043945,1.4867992401123047,-0.4908113479614258
1732873435188417300,5.844417236328125,10.38604736328125,1.6041151285171509,-0.363918662071228
1732873435198427100,5.85442724609375,10.113107681274414,1.702277421951294,-0.304063618183136
1732873435208436700,5.864436767578125,10.295066833496094,1.7693150043487549,-0.37828385829925537
1732873435218415900,5.874415771484375,10.788272857666016,1.5873557329177856,-0.16519992053508759
1732873435228425500,5.884425537109375,11.571176528930664,1.1851298809051514,0.3687070608139038
1732873435238435300,5.894435302734375,12.543222427368164,0.790086567401886,0.7445967197418213
1732873435248414700,5.904414794921875,13.127408027648926,0.4405331015586853,1.0558429956436157
1732873435258424600,5.914424560546875,13.170503616333008,0.1628057211637497,1.2832920551300049
1732873435268434200,5.92443408203125,12.69405746459961,-0.016759412363171577,1.2306196689605713
1732873435278413600,5.93441357421875,11.683704376220703,-0.08619125932455063,0.9433154463768005
1732873435288423400,5.94442333984375,10.723628997802734,-0.08619125932455063,0.5746083855628967
1732873435298433000,5.95443310546875,10.017339706420898,-0.1149216815829277,0.48602294921875
1732873435308412400,5.964412353515625,9.543288230895996,-0.08140286058187485,0.4572925269603729
1732873435318422000,5.974422119140625,9.097966194152832,0.17238251864910126,0.45250412821769714
1732873435328431900,5.984431884765625,8.695740699768066,0.42856210470199585,0.4884171485900879
1732873435338411000,5.994410888671875,8.291120529174805,0.6703764796257019,0.6177040338516235
1732873435348420900,6.0044208984375,7.757213592529297,0.8978256583213806,0.730231523513794
1732873435358430500,6.014430419921875,7.225700855255127,1.091755986213684,0.727837324142456
1732873435368440300,6.0244404296875,6.694188117980957,1.235408067703247,0.6919242739677429
1732873435378419700,6.034419677734375,6.1985883712768555,1.2713210582733154,0.6057330369949341
1732873435388429300,6.04442919921875,6.028599739074707,1.2737152576446533,0.5841852426528931
1732873435398439200,6.054439208984375,6.40927791595459,1.2066776752471924,0.4620809257030487
1732873435408418600,6.06441845703125,7.29034423828125,1.115697979927063,0.10773907601833344
1732873435418428200,6.07442822265625,8.259995460510254,1.1013327836990356,-0.26575639843940735
1732873435428438000,6.08443798828125,9.442731857299805,1.0869675874710083,-0.6129156351089478
1732873435438417200,6.094417236328125,10.426748275756836,1.1180921792984009,-0.7924807667732239
1732873435448427000,6.104427001953125,11.434707641601562,1.1851298809051514,-0.8068459630012512
1732873435458436600,6.1144365234375,12.121843338012695,1.2617442607879639,-0.7254431247711182
1732873435468416000,6.124416015625,12.267889976501465,1.3263877630233765,-0.6129156351089478
1732873435478425600,6.134425537109375,11.793837547302246,1.4987702369689941,-0.5434837937355042
1732873435488435500,6.144435546875,11.111490249633789,1.6136919260025024,-0.3734954595565796
1732873435498414800,6.154414794921875,10.285490036010742,1.7884687185287476,-0.33997663855552673
1732873435508424700,6.1644248046875,9.682151794433594,1.9321208000183105,-0.2849099934101105
1732873435518434300,6.174434326171875,9.05247688293457,1.9967641830444336,-0.21308395266532898
1732873435528413400,6.184413330078125,8.62391471862793,2.073378562927246,-0.21787235140800476
1732873435538423300,6.19442333984375,8.327033042907715,2.1092917919158936,-0.28969839215278625
1732873435548433000,6.204432861328125,8.04930591583252,2.1284453868865967,-0.45489832758903503
1732873435558412300,6.214412353515625,7.726089000701904,2.164358377456665,-0.689530074596405
1732873435568422100,6.224422119140625,7.299921035766602,2.3558945655822754,-1.601720929145813
1732873435578431700,6.234431640625,7.249642848968506,2.4875755310058594,-1.558625340461731
1732873435588411100,6.2444111328125,7.390900611877441,2.233790159225464,-1.2401964664459229
1732873435598421000,6.2544208984375,7.716512203216553,2.0446481704711914,-0.9193734526634216
1732873435608430600,6.2644306640625,8.121131896972656,1.9129672050476074,-0.6224924325942993
1732873435618440400,6.2744404296875,8.633491516113281,1.8148049116134644,-0.26096799969673157
1732873435628419600,6.284419677734375,9.155426979064941,1.7573440074920654,-0.06703764945268631
1732873435638429200,6.29442919921875,9.641449928283691,1.7836803197860718,-0.06224924325942993
1732873435648439000,6.30443896484375,10.007762908935547,1.886630892753601,-0.29209262132644653
1732873435658418400,6.31441845703125,10.266336441040039,2.0207061767578125,-0.5913678407669067
1732873435668428000,6.324427978515625,10.395624160766602,2.2242133617401123,-0.8427590131759644
1732873435678438000,6.33443798828125,10.38844108581543,2.4133553504943848,-0.8379706144332886
1732873435688417300,6.344417236328125,10.295066833496094,2.535459518432617,-0.7613561153411865
1732873435698427100,6.35442724609375,10.223240852355957,2.5330653190612793,-0.38307225704193115
1732873435708436700,6.364436767578125,10.192116737365723,2.4660277366638184,-0.0454898327589035
1732873435718416000,6.374415771484375,10.120290756225586,2.3582887649536133,0.12210428714752197
1732873435728425700,6.38442578125,10.14902114868164,2.3104045391082764,0.023942016065120697
1732873435738435300,6.394435302734375,10.536881446838379,2.300827741622925,-0.7015010714530945
1732873435748414700,6.404414794921875,10.644620895385742,2.7916390895843506,-1.2952631711959839
1732873435758424600,6.414424560546875,11.334151268005371,2.4133553504943848,-0.7469909191131592
1732873435768434200,6.42443408203125,11.911153793334961,2.209848165512085,-0.9169792532920837
1732873435778413600,6.43441357421875,12.138602256774902,2.650381326675415,-0.8978256583213806
1732873435788423400,6.44442333984375,12.550405502319336,2.719813108444214,-1.1827356815338135
1732873435798433000,6.45443310546875,12.593501091003418,2.8155810832977295,-1.3670891523361206
1732873435808412400,6.464412353515625,12.227188110351562,2.8395233154296875,-1.6424223184585571
1732873435818422000,6.474422119140625,12.09311294555664,2.612074136734009,-1.5921441316604614
1732873435828432000,6.484431884765625,11.990161895751953,2.22660756111145,-1.3479355573654175
1732873435838411300,6.494411376953125,12.188880920410156,2.0877439975738525,-1.5466543436050415
1732873435848420900,6.5044208984375,12.696451187133789,1.7908629179000854,-1.45806884765625
1732873435858430500,6.514430419921875,13.117831230163574,1.3958195447921753,-0.9864110946655273
1732873435868440300,6.5244404296875,13.275848388671875,0.9026140570640564,-0.3208230137825012
1732873435878419700,6.534419677734375,12.859257698059082,0.5889736413955688,0.19153612852096558
1732873435888429600,6.5444296875,11.84650993347168,0.31603461503982544,0.6177040338516235
1732873435898439200,6.554439208984375,10.687716484069824,0.13168109953403473,0.811634361743927
1732873435908418600,6.56441845703125,9.5408935546875,0.3280056416988373,0.3519476354122162
1732873435918428400,6.574428466796875,8.449137687683105,0.8379706144332886,-0.5530605912208557
1732873435928438000,6.58443798828125,7.706935405731201,0.6560112833976746,-0.3064578175544739
1732873435938417200,6.594417236328125,7.017405033111572,0.8403648138046265,-0.5219359993934631
1732873435948427000,6.604427001953125,6.449979305267334,1.2473790645599365,-1.161187767982483
1732873435958436600,6.6144365234375,6.007051944732666,1.7046716213226318,-1.968033790588379
1732873435968416000,6.624416015625,5.849034786224365,1.9991583824157715,-2.513911724090576
1732873435978425900,6.63442578125,5.75326681137085,2.1930887699127197,-2.801215887069702
1732873435988435500,6.644435546875,5.7341132164001465,2.343923568725586,-3.0885202884674072
1732873435998414800,6.654414794921875,5.858611583709717,2.3271639347076416,-3.0382418632507324
1732873436008424700,6.6644248046875,6.517016887664795,1.699883222579956,-1.7381904125213623
1732873436018434300,6.674434326171875,6.971915245056152,1.2090718746185303,-1.0678139925003052
1732873436028413400,6.684413330078125,7.829039573669434,1.0199298858642578,-0.7110779285430908
1732873436038423300,6.69442333984375,8.707711219787598,0.9433154463768005,-0.4572925269603729
1732873436048433000,6.704432861328125,9.615114212036133,1.0893617868423462,-0.5267243981361389
1732873436058412300,6.714412353515625,10.304644584655762,1.3263877630233765,-0.5626373887062073
1732873436068422100,6.724422119140625,10.556035041809082,1.4628572463989258,-0.3902548849582672
1732873436078432000,6.734431884765625,10.251971244812012,1.7597382068634033,-0.4381389021873474
1732873436088411100,6.7444111328125,9.612719535827637,2.0925323963165283,-0.47165772318840027
1732873436098421000,6.7544208984375,8.851364135742188,2.3487119674682617,-0.48602294921875
1732873436108430600,6.7644306640625,8.006210327148438,2.7461493015289307,-0.6847416758537292
1732873436118440400,6.7744404296875,7.503427982330322,2.896984100341797,-0.629675030708313
1732873436128419600,6.784419677734375,7.173028469085693,3.028665065765381,-0.6536170840263367
1732873436138429400,6.794429443359375,7.067683219909668,3.138798475265503,-0.7781155705451965
1732873436148439000,6.80443896484375,7.122750282287598,3.0885202884674072,-0.8930372595787048
1732873436158418400,6.81441845703125,7.393294811248779,3.0095114707946777,-1.070208191871643
1732873436168428300,6.82442822265625,7.860164165496826,2.8874073028564453,-1.192312479019165
1732873436178438000,6.83443798828125,8.465897560119629,2.784456491470337,-1.2210428714752197
1732873436188417300,6.844417236328125,9.057265281677246,2.7533318996429443,-1.316810965538025
1732873436198427100,6.85442724609375,9.775525093078613,2.676717519760132,-1.3311761617660522
1732873436208436700,6.864436767578125,10.273519515991211,2.585737943649292,-1.1851298809051514
1732873436218415900,6.874415771484375,10.63743782043457,2.456450939178467,-0.9433154463768005
1732873436228425500,6.884425537109375,10.826580047607422,2.3582887649536133,-0.8595184087753296
1732873436238435300,6.894435302734375,10.800244331359863,2.255337953567505,-0.8523358106613159
1732873436248414700,6.904414794921875,10.642226219177246,2.403778553009033,-1.2880805730819702
1732873436258424600,6.914424560546875,10.493785858154297,2.4396915435791016,-1.45806884765625
1732873436268434200,6.92443408203125,10.402806282043457,2.454056739807129,-1.50355863571167
1732873436278413600,6.93441357421875,10.402806282043457,2.513911724090576,-1.381454348564148
1732873436288423400,6.94442333984375,10.342951774597168,2.557007312774658,-1.3431471586227417
1732873436298433000,6.95443310546875,10.33098030090332,2.583343744277954,-1.3000515699386597
1732873436308412400,6.964412353515625,10.335768699645996,2.631227731704712,-1.2976573705673218
1732873436318422000,6.974422119140625,10.44350814819336,2.6144683361053467,-1.113303780555725
1732873436328431900,6.984431884765625,10.496180534362793,2.784456491470337,-1.3479355573654175
1732873436338411000,6.994410888671875,10.433931350708008,2.734178304672241,-1.1492167711257935
1732873436348420900,7.0044208984375,10.292673110961914,2.7030537128448486,-1.1755530834197998
1732873436358430500,7.014430419921875,10.144232749938965,2.7006595134735107,-1.1635819673538208
1732873436368440300,7.0244404296875,10.24239444732666,2.652775526046753,-1.1803414821624756
1732873436378419700,7.034419677734375,10.6709566116333,2.7557260990142822,-1.048660397529602
1732873436388429300,7.04442919921875,11.111490249633789,2.8443117141723633,-0.8738836050033569
1732873436398439200,7.054439208984375,11.470620155334473,2.717418909072876,-0.629675030708313
1732873436408418600,7.06441845703125,11.604695320129395,2.387019157409668,-0.2537853717803955
1732873436418428200,7.07442822265625,11.489773750305176,1.680729627609253,-0.0933738648891449
1732873436428438000,7.08443798828125,11.561599731445312,0.7805097699165344,0.10055647045373917
1732873436438417200,7.094417236328125,12.279860496520996,-0.3663128614425659,0.5099649429321289
1732873436448427000,7.104427001953125,13.596671104431152,-1.2258312702178955,0.9097966551780701
1732873436458436600,7.1144365234375,14.654908180236816,-1.7980455160140991,1.3479355573654175
1732873436468416000,7.124416015625,15.205574989318848,-2.03507137298584,1.965639591217041
1732873436478425600,7.134425537109375,14.595053672790527,-1.4724340438842773,1.6208745241165161
1732873436488435500,7.144435546875,12.78264331817627,-0.2106897532939911,0.4165911078453064
1732873436498414800,7.154414794921875,10.584765434265137,0.4692635238170624,0.2777273952960968
1732873436508424700,7.1644248046875,7.987056732177734,0.8954314589500427,0.5602431893348694
1732873436518434300,7.174434326171875,5.815515995025635,1.2066776752471924,0.828393816947937
1732873436528413400,7.184413330078125,3.687070608139038,1.45806884765625,0.8762778043746948
1732873436538423300,7.19442333984375,2.2457611560821533,1.5634137392044067,0.9816226959228516
1732873436548433000,7.204432861328125,1.5682021379470825,1.4963760375976562,1.0319008827209473
1732873436558412300,7.214412353515625,2.118868589401245,1.2258312702178955,1.1276689767837524
1732873436568422100,7.224422119140625,4.211400985717773,0.7709329724311829,0.6847416758537292
1732873436578431700,7.234431640625,6.873753070831299,0.45489832758903503,0.2801215946674347
1732873436588411100,7.2444111328125,9.028534889221191,0.12449848651885986,0.0454898327589035
1732873436598421000,7.2544208984375,11.18092155456543,-0.16998831927776337,-0.19153612852096558
1732873436608430600,7.2644306640625,12.799402236938477,-0.18914192914962769,-0.304063618183136
1732873436618440400,7.2744404296875,13.953407287597656,-0.17956513166427612,-0.7613561153411865
1732873436628419600,7.284419677734375,14.140154838562012,0.17477671802043915,-0.9433154463768005
1732873436638429200,7.29442919921875,13.333309173583984,0.7158663272857666,-0.768538773059845
1732873436648439000,7.30443896484375,11.798625946044922,1.0749965906143188,-0.8930372595787048
1732873436658418400,7.31441845703125,10.180145263671875,1.6112977266311646,-1.0007762908935547
1732873436668428300,7.32442822265625,8.904036521911621,1.9393033981323242,-0.8882488012313843
1732873436678438000,7.33443798828125,7.977479934692383,2.169146776199341,-0.7350199222564697
1732873436688417300,7.344417236328125,7.41484260559082,2.298433542251587,-0.689530074596405
1732873436698427100,7.35442724609375,7.539340972900391,2.3726539611816406,-0.7445967197418213
1732873436708436700,7.364436767578125,8.190564155578613,2.4229321479797363,-0.9289502501487732
1732873436718416000,7.374415771484375,8.813055992126465,2.365471363067627,-0.9576807022094727
1732873436728425700,7.38442578125,9.165003776550293,2.31758713722229,-0.8930372595787048
1732873436738435300,7.394435302734375,9.320627212524414,2.279279947280884,-0.9696516990661621
1732873436748414700,7.404414794921875,9.138668060302734,2.209848165512085,-1.1348515748977661
1732873436758424600,7.414424560546875,8.96149730682373,2.1045033931732178,-1.1683704853057861
1732873436768434200,7.42443408203125,8.719682693481445,1.9129672050476074,-1.0869675874710083
1732873436778413600,7.43441357421875,8.47786808013916,1.8076223134994507,-0.9911994934082031
1732873436788423400,7.44442333984375,8.401253700256348,1.7286136150360107,-0.9074024558067322
1732873436798433000,7.45443310546875,8.753201484680176,1.5705963373184204,-0.4668693244457245
1732873436808412400,7.464412353515625,9.023746490478516,1.525106430053711,-0.18914192914962769
1732873436818422000,7.474422119140625,9.334992408752441,1.403002142906189,0.22505496442317963
1732873436828432000,7.484431884765625,9.363722801208496,1.45806884765625,0.24420857429504395
1732873436838411300,7.494411376953125,9.509769439697266,1.482010841369629,0.1843535304069519
1732873436848420900,7.5044208984375,9.641449928283691,1.501164436340332,-0.1867477297782898
1732873436858430500,7.514430419921875,9.832986831665039,1.6208745241165161,-0.5793967843055725
1732873436868440300,7.5244404296875,10.129867553710938,1.745373010635376,-0.7541735172271729
1732873436878419700,7.534419677734375,10.486603736877441,1.766920804977417,-0.7948749661445618
1732873436888429600,7.5444296875,10.860098838806152,1.821987509727478,-0.689530074596405
1732873436898439200,7.554439208984375,11.233593940734863,1.944091796875,-0.6320692300796509
1732873436908418600,7.56441845703125,11.480196952819824,2.142810583114624,-0.5674257874488831
1732873436918428400,7.574428466796875,11.475408554077148,2.161964178085327,-0.35673606395721436
1732873436928438000,7.58443798828125,11.370063781738281,2.2601263523101807,-0.3016694188117981
1732873436938417200,7.594417236328125,11.250353813171387,2.4875755310058594,-0.5482721924781799
1732873436948427000,7.604427001953125,10.896012306213379,2.6024973392486572,-0.950498104095459
1732873436958436600,7.6144365234375,10.45547866821289,2.2816741466522217,-1.4293384552001953
1732873436968416000,7.624416015625,10.271124839782715,1.6903064250946045,-1.7310078144073486
1732873436978425900,7.63442578125,10.903194427490234,0.9911994934082031,-1.9536685943603516
1732873436988435500,7.644435546875,12.576741218566895,0.06703764945268631,-1.534683346748352
1732873436998414800,7.654414794921875,14.257471084594727,-0.5554547905921936,-1.170764684677124
1732873437008424700,7.6644248046875,16.072275161743164,-0.7493851184844971,-1.2737152576446533
1732873437018434300,7.674434326171875,16.577451705932617,-0.49320554733276367,-1.400607943534851
1732873437028413400,7.684413330078125,15.219940185546875,-0.05746084079146385,-1.7597382068634033
1732873437038423300,7.69442333984375,12.770671844482422,0.35913026332855225,-1.6543933153152466
1732873437048433000,7.704432861328125,10.156203269958496,0.6224924325942993,-1.625662922859192
1732873437058412300,7.714412353515625,7.230489253997803,1.0606313943862915,-1.8531121015548706
1732873437068422100,7.724422119140625,4.8937482833862305,1.381454348564148,-2.008735179901123
1732873437078432000,7.734431884765625,3.0190882682800293,1.580173134803772,-2.1523873805999756
1732873437088411100,7.7444111328125,2.300827741622925,1.8555063009262085,-2.4372973442077637
1732873437098421000,7.7544208984375,2.7126305103302,1.9823989868164062,-2.7461493015289307
1732873437108430600,7.7644306640625,4.019864559173584,1.6184803247451782,-2.7437551021575928
1732873437118440400,7.7744404296875,5.458779811859131,1.338358759880066,-2.779668092727661
1732873437128419600,7.784419677734375,7.01979923248291,0.7469909191131592,-2.408566951751709
1732873437138429400,7.794429443359375,8.35097599029541,0.2513911724090576,-1.8962076902389526
1732873437148439000,7.80443896484375,10.091560363769531,-0.011971008032560349,-1.2952631711959839
1732873437158418400,7.81441845703125,11.434707641601562,-0.1412578970193863,-0.7398083209991455
1732873437168428300,7.82442822265625,12.593501091003418,0.021547814831137657,-0.29209262132644653
1732873437178438000,7.83443798828125,12.789825439453125,0.3998316824436188,-0.3495534360408783
1732873437188417300,7.844417236328125,12.133813858032227,1.0797849893569946,-0.8379706144332886
1732873437198427100,7.85442724609375,11.432312965393066,1.577778935432434,-1.0462661981582642
1732873437208436700,7.864436767578125,10.431536674499512,1.9273324012756348,-0.8667010068893433
1732873437218415900,7.874415771484375,9.579200744628906,2.1595699787139893,-0.5746083855628967
1732873437228425700,7.88442578125,8.760383605957031,2.2146365642547607,-0.23942017555236816
1732873437238435300,7.894435302734375,8.01339340209961,2.229001760482788,-0.08619125932455063
1732873437248414700,7.904414794921875,7.55131196975708,2.2146365642547607,-0.08140286058187485
1732873437258424600,7.914424560546875,7.285555839538574,2.1332337856292725,-0.1867477297782898
1732873437268434200,7.92443408203125,7.196970462799072,2.0853497982025146,-0.31842881441116333
1732873437278413600,7.93441357421875,7.3693528175354,1.9847931861877441,-0.5434837937355042
1732873437288423400,7.94442333984375,7.8529815673828125,1.8986018896102905,-0.6799532771110535
1732873437298433000,7.95443310546875,8.549694061279297,1.8267759084701538,-0.7996633648872375
1732873437308412400,7.964412353515625,9.153033256530762,1.7621324062347412,-1.0295066833496094
1732873437318422000,7.974422119140625,9.734824180603027,1.7262194156646729,-1.137245774269104
1732873437328431900,7.984431884765625,10.031704902648926,1.800439715385437,-1.213860273361206
1732873437338411000,7.994410888671875,10.158597946166992,1.8076223134994507,-1.2880805730819702
1732873437348420900,8.0044208984375,10.074800491333008,1.8507179021835327,-1.3479355573654175
1732873437358430500,8.014430419921876,9.86650562286377,1.8842366933822632,-1.2880805730819702
1732873437368440300,8.0244404296875,9.612719535827637,1.9249382019042969,-1.1803414821624756
1732873437378419700,8.034419677734375,9.435548782348633,1.9297266006469727,-1.1109095811843872
1732873437388429300,8.04442919921875,9.406818389892578,1.8746598958969116,-1.0271124839782715
1732873437398439200,8.054439208984375,9.63187313079834,1.8076223134994507,-0.9313444495201111
1732873437408418600,8.06441845703125,10.053253173828125,1.7381904125213623,-0.9026140570640564
1732873437418428200,8.07442822265625,10.474632263183594,1.702277421951294,-0.7613561153411865
1732873437428438000,8.08443798828125,10.917559623718262,1.742978811264038,-0.6224924325942993
1732873437438417200,8.094417236328125,11.200075149536133,1.9297266006469727,-0.5363011956214905
1732873437448427000,8.104427001953125,11.12106704711914,2.1284453868865967,-0.5602431893348694
1732873437458436600,8.1144365234375,10.615890502929688,2.2625205516815186,-0.38067805767059326
1732873437468416000,8.124416015625,10.17296314239502,2.346317768096924,-0.07422025501728058
1732873437478425600,8.134425537109376,9.737217903137207,2.250549554824829,0.10055647045373917
1732873437488435500,8.144435546875,9.627084732055664,1.8195933103561401,0.15801730751991272
1732873437498414800,8.154414794921875,10.02691650390625,1.05105459690094,0.28730419278144836
1732873437508424700,8.1644248046875,10.99896240234375,0.3758896589279175,0.40940847992897034
1732873437518434300,8.174434326171875,12.413935661315918,-0.15083470940589905,0.14604631066322327
1732873437528413400,8.184413330078126,13.951013565063477,-0.47165772318840027,-0.21308395266532898
1732873437538423300,8.19442333984375,15.205574989318848,-0.4908113479614258,-0.7206547260284424
1732873437548433000,8.204432861328126,15.40429401397705,-0.2513911724090576,-0.9888052940368652
1732873437558412300,8.214412353515625,14.2431058883667,0.29209262132644653,-0.7613561153411865
1732873437568422100,8.224422119140625,11.918335914611816,0.8667010068893433,-0.6416460275650024
1732873437578431700,8.234431640625,9.797073364257812,1.1875240802764893,-0.40940847992897034
1732873437588411100,8.2444111328125,7.484274387359619,1.3838485479354858,0.035913024097681046
1732873437598421000,8.2544208984375,5.7341132164001465,1.6089035272598267,0.395043283700943
1732873437608430600,8.2644306640625,4.228160381317139,1.723825216293335,0.545877993106842
1732873437618440400,8.2744404296875,3.627215623855591,1.7142484188079834,0.5770025849342346
1732873437628419600,8.284419677734375,3.8163576126098633,1.5298948287963867,0.5003881454467773
1732873437638429200,8.29442919921875,4.661510944366455,1.1468225717544556,0.33279404044151306
1732873437648439000,8.30443896484375,6.404489517211914,0.706289529800415,0.15322890877723694
1732873437658418400,8.31441845703125,8.078036308288574,0.38307225704193115,-0.1604115068912506
1732873437668428000,8.324427978515626,9.797073364257812,0.090979665517807,-0.47884035110473633
1732873437678438000,8.33443798828125,11.401188850402832,-0.07182604819536209,-0.7757213711738586
1732873437688417300,8.344417236328125,12.646173477172852,-0.033518824726343155,-0.7852981686592102
1732873437698427100,8.35442724609375,13.256694793701172,0.19871874153614044,-0.7972691655158997
1732873437708436700,8.364436767578125,13.093889236450195,0.49559974670410156,-0.7541735172271729
1732873437718416000,8.374415771484376,12.279860496520996,0.8954314589500427,-0.8307880163192749
1732873437728425700,8.38442578125,11.274295806884766,1.3120225667953491,-0.8834604024887085
1732873437738435300,8.394435302734376,10.285490036010742,1.6615760326385498,-0.7422025203704834
1732873437748414700,8.404414794921875,9.476250648498535,1.845929503440857,-0.545877993106842
1732873437758424600,8.414424560546875,8.611943244934082,1.9919757843017578,-0.49320554733276367
1732873437768434200,8.42443408203125,7.908048152923584,2.0829553604125977,-0.6009446382522583
1732873437778413600,8.43441357421875,7.443572998046875,2.075772762298584,-0.5961562395095825
1732873437788423400,8.44442333984375,7.249642848968506,2.054224967956543,-0.5841852426528931
1732873437798433000,8.45443310546875,7.273584842681885,2.1332337856292725,-0.6009446382522583
1732873437808412400,8.464412353515625,7.436390399932861,2.0422539710998535,-0.5363011956214905
1732873437818422000,8.474422119140625,7.8314337730407715,1.9728221893310547,-0.49320554733276367
1732873437828432000,8.484431884765625,8.26478385925293,1.8507179021835327,-0.5123591423034668
1732873437838411300,8.494411376953124,8.60236644744873,1.7693150043487549,-0.608127236366272
1732873437848420900,8.5044208984375,9.121908187866211,1.5873557329177856,-0.7589619159698486
1732873437858430500,8.514430419921876,9.48343276977539,1.357512354850769,-0.8236053586006165
1732873437868440300,8.5244404296875,9.959878921508789,1.2497732639312744,-0.8834604024887085
1732873437878419700,8.534419677734375,10.390835762023926,1.1444283723831177,-0.7996633648872375
1732873437888429600,8.5444296875,10.8720703125,1.015141487121582,-0.5147533416748047
1732873437898439200,8.554439208984375,11.240777015686035,0.9720458984375,-0.40462008118629456
1732873437908418600,8.56441845703125,11.420342445373535,0.9792284965515137,-0.4189853072166443
1732873437918428400,8.574428466796874,11.453861236572266,1.0223240852355957,-0.5554547905921936
1732873437928438000,8.58443798828125,11.262324333190918,1.1228805780410767,-0.7158663272857666
1732873437938417200,8.594417236328125,10.78587818145752,1.2545616626739502,-0.8810662031173706
1732873437948427000,8.604427001953125,10.290278434753418,1.3958195447921753,-0.9744400978088379
1732873437958436600,8.6144365234375,9.603142738342285,1.6136919260025024,-0.9744400978088379
1732873437968416000,8.624416015625,9.136273384094238,1.8195933103561401,-0.9600749015808105
1732873437978425900,8.63442578125,8.983044624328613,1.9776105880737305,-0.9720458984375
1732873437988435500,8.644435546875,9.009381294250488,1.9967641830444336,-0.8690952062606812
1732873437998414800,8.654414794921875,9.239224433898926,1.941697597503662,-0.7972691655158997
1732873438008424700,8.6644248046875,9.619902610778809,1.845929503440857,-0.5315127968788147
1732873438018434300,8.674434326171875,9.773131370544434,1.7717092037200928,-0.2513911724090576
1732873438028413400,8.684413330078126,9.739612579345703,1.8483237028121948,0.05985504388809204
1732873438038423300,8.69442333984375,9.591172218322754,1.86508309841156,0.40701428055763245
1732873438048433000,8.704432861328126,9.445125579833984,1.9369091987609863,0.47405192255973816
1732873438058412300,8.714412353515625,9.282320022583008,1.9536685943603516,0.5123591423034668
1732873438068422100,8.724422119140625,9.042900085449219,1.8483237028121948,0.4884171485900879
1732873438078432000,8.734431884765625,8.688557624816895,1.702277421951294,0.35673606395721436
1732873438088411100,8.7444111328125,8.24084186553955,1.5466543436050415,0.0071826050989329815
1732873438098421000,8.7544208984375,8.032546997070312,1.4413094520568848,-0.35673606395721436
1732873438108430600,8.7644306640625,8.034940719604492,1.4245500564575195,-0.5602431893348694
1732873438118440400,8.7744404296875,8.269572257995605,1.3503297567367554,-0.4357447028160095
1732873438128419600,8.784419677734375,8.880094528198242,1.3120225667953491,-0.16998831927776337
1732873438138429400,8.794429443359375,9.782708168029785,1.4939818382263184,0.17717093229293823
1732873438148439000,8.80443896484375,10.340557098388672,1.889025092124939,0.08619125932455063
1732873438158418400,8.81441845703125,10.41956615447998,2.145204782485962,-0.2753331959247589
1732873438168428300,8.82442822265625,10.02691650390625,2.051830768585205,-0.6416460275650024
1732873438178438000,8.83443798828125,9.404424667358398,1.580173134803772,-1.01753568649292
1732873438188417300,8.844417236328125,8.939949035644531,1.0582371950149536,-1.1851298809051514
1732873438198427100,8.85442724609375,8.678980827331543,1.0007762908935547,-1.9081788063049316
1732873438208436700,8.864436767578125,8.846575736999512,0.5482721924781799,-2.10210919380188
1732873438218415900,8.874415771484376,9.888052940368652,0.4357447028160095,-1.2018892765045166
1732873438228425700,8.88442578125,11.494562149047852,0.3447650372982025,0.2298433631658554
1732873438238435300,8.894435302734376,12.650961875915527,0.1364694982767105,1.4269442558288574
1732873438248414700,8.904414794921875,13.256694793701172,0.13407529890537262,2.212242364883423
1732873438258424600,8.914424560546875,13.144166946411133,0.38307225704193115,2.5115175247192383
1732873438268434200,8.92443408203125,12.368446350097656,0.8786720037460327,2.0901381969451904
1732873438278413600,8.93441357421875,11.51611042022705,1.656787633895874,1.2042834758758545
1732873438288423400,8.94442333984375,10.644620895385742,2.248155355453491,0.33758243918418884
1732873438298433000,8.95443310546875,9.914389610290527,2.4851813316345215,0.026336219161748886
1732873438308412400,8.964412353515625,9.035717010498047,2.5665841102600098,-0.016759412363171577
1732873438318422000,8.974422119140625,8.358158111572266,2.4875755310058594,0.08379705995321274
1732873438328431900,8.984431884765625,8.291120529174805,2.58813214302063,-0.2298433631658554
1732873438338411000,8.994410888671876,8.348581314086914,2.846705913543701,-0.8403648138046265
1732873438348420900,9.0044208984375,8.415618896484375,3.44765043258667,-1.7166426181793213
1732873438358430500,9.014430419921876,8.832210540771484,3.9887399673461914,-1.625662922859192
1732873438368440300,9.0244404296875,9.485827445983887,4.4939165115356445,-0.5051765441894531
1732873438378419700,9.034419677734375,9.90241813659668,5.66228723526001,0.9145850539207458
1732873438388429300,9.04442919921875,9.351752281188965,6.543353080749512,0.5961562395095825
1732873438398439200,9.054439208984375,8.006210327148438,6.737283706665039,-0.033518824726343155
1732873438408418600,9.06441845703125,8.169015884399414,6.090848922729492,-0.6655880808830261
1732873438418428200,9.07442822265625,9.495404243469238,4.580107688903809,-2.6144683361053467
1732873438428438000,9.08443798828125,11.73398208618164,2.956839084625244,-3.5960910320281982
1732873438438417200,9.094417236328125,12.75870132446289,1.2330138683319092,-4.343081951141357
1732873438448427000,9.104427001953125,12.413935661315918,-0.035913024097681046,-4.594472885131836
1732873438458436600,9.1144365234375,11.343728065490723,-0.6416460275650024,-4.156333923339844
1732873438468416000,9.124416015625,9.610325813293457,-0.9145850539207458,-2.4444799423217773
1732873438478425600,9.134425537109376,7.723694801330566,-1.0893617868423462,-1.4724340438842773
1732873438488435500,9.144435546875,6.507440090179443,-0.9457096457481384,-1.213860273361206
1732873438498414800,9.154414794921875,7.694964408874512,-0.7781155705451965,-1.1252747774124146
1732873438508424700,9.1644248046875,10.33098030090332,-0.8020575642585754,-1.7549498081207275
1732873438518434300,9.174434326171875,12.164938926696777,-0.40222588181495667,-2.2242133617401123
1732873438528413400,9.184413330078126,13.290213584899902,0.21787235140800476,-3.227383852005005
1732873438538423300,9.19442333984375,12.72757625579834,0.5506663918495178,-3.7038300037384033
1732873438548433000,9.204432861328126,10.342951774597168,1.0247182846069336,-3.2154128551483154
1732873438558412300,9.214412353515625,7.903259754180908,1.601720929145813,-2.518700122833252
1732873438568422100,9.224422119140625,6.035782337188721,1.9033904075622559,-2.1571757793426514
1732873438578431700,9.234431640625,4.479551315307617,1.7334020137786865,-1.4173674583435059
1732873438588411100,9.2444111328125,4.02465295791626,1.1803414821624756,-0.6248866319656372
1732873438598421000,9.2544208984375,4.874594688415527,0.5554547905921936,0.3232172429561615
1732873438608430600,9.2644306640625,7.0772600173950195,0.23942017555236816,0.9265560507774353
1732873438618440400,9.2744404296875,9.5408935546875,0.3495534360408783,1.3766659498214722
1732873438628419600,9.284419677734375,11.164162635803223,0.6344634294509888,1.048660397529602
1732873438638429200,9.29442919921875,12.102689743041992,0.9959878921508789,0.7182605266571045
1732873438648439000,9.30443896484375,11.520898818969727,1.357512354850769,0.395043283700943
1732873438658418400,9.31441845703125,10.0580415725708,1.5322890281677246,0.3519476354122162
1732873438668428000,9.324427978515626,8.951920509338379,1.8100165128707886,0
1732873438678438000,9.33443798828125,8.269572257995605,1.8818424940109253,-0.49799394607543945
1732873438688417300,9.344417236328125,7.644686222076416,1.6376339197158813,-0.3878606855869293
1732873438698427100,9.35442724609375,7.208941459655762,1.3623007535934448,-0.1604115068912506
1732873438708436700,9.364436767578125,7.850587368011475,1.3311761617660522,-0.090979665517807
1732873438718416000,9.374415771484376,9.016563415527344,1.3024457693099976,-0.38546648621559143
1732873438728425700,9.38442578125,9.658209800720215,0.9888052940368652,-0.7589619159698486
1732873438738435300,9.394435302734376,9.634267807006836,0.608127236366272,-0.43095630407333374
1732873438748414700,9.404414794921875,9.77791976928711,-0.0454898327589035,0.12689268589019775
1732873438758424600,9.414424560546875,10.122684478759766,-0.3878606855869293,0.7398083209991455
1732873438768434200,9.42443408203125,10.919954299926758,-0.40462008118629456,1.2641384601593018
1732873438778413600,9.43441357421875,12.042834281921387,-0.3423708379268646,1.37906014919281
1732873438788423400,9.44442333984375,12.504915237426758,-0.2082955539226532,1.3239935636520386
1732873438798433000,9.45443310546875,11.899182319641113,0.014365210197865963,0.950498104095459
1732873438808412400,9.464412353515625,10.541669845581055,0.3902548849582672,0.5315127968788147
1732873438818422300,9.47442236328125,8.492233276367188,0.6416460275650024,0.18914192914962769
1732873438828432000,9.484431884765625,6.962338447570801,0.7493851184844971,-0.26336219906806946
1732873438838411300,9.494411376953124,6.27280855178833,1.0534487962722778,-0.7398083209991455
1732873438848420600,9.504420654296876,6.517016887664795,1.403002142906189,-1.0103530883789062
1732873438858430500,9.514430419921876,7.50582218170166,1.3646949529647827,-1.2641384601593018
1732873438868440300,9.5244404296875,8.422801971435547,0.9840168952941895,-1.534683346748352
1732873438878419700,9.534419677734375,9.86650562286377,0.9289502501487732,-1.9393033981323242
1732873438888429600,9.5444296875,11.389217376708984,1.0869675874710083,-2.497152328491211
1732873438898439200,9.554439208984375,12.394782066345215,1.094150185585022,-2.959233283996582
1732873438908418600,9.56441845703125,12.552799224853516,0.8571242094039917,-2.8419175148010254
1732873438918428400,9.574428466796874,11.815385818481445,0.9648633003234863,-2.7293899059295654
1732873438928438000,9.58443798828125,10.412383079528809,1.434126853942871,-1.9776105880737305
1732873438938417200,9.594417236328125,9.255983352661133,1.699883222579956,-1.5921441316604614
1732873438948427000,9.604427001953125,8.197746276855469,1.8076223134994507,-0.8906430602073669
1732873438958436600,9.6144365234375,7.386112213134766,1.601720929145813,-0.2059013396501541
1732873438968416000,9.624416015625,7.350199222564697,0.9672574996948242,0.4692635238170624
1732873438978425900,9.63442578125,8.578424453735352,0.5171475410461426,0.2059013396501541
1732873438988435500,9.644435546875,10.228029251098633,0.4572925269603729,-0.36152446269989014
1732873438998414800,9.654414794921875,11.386823654174805,0.48602294921875,-0.8068459630012512
1732873439008424700,9.6644248046875,11.978191375732422,0.6177040338516235,-1.216254472732544
1732873439018434300,9.674434326171875,12.24155330657959,0.790086567401886,-1.3982137441635132
1732873439028413400,9.684413330078126,12.02607536315918,0.7829039692878723,-1.2401964664459229
1732873439038423300,9.69442333984375,11.317391395568848,0.7661445140838623,-0.9433154463768005
1732873439048433000,9.704432861328126,10.759542465209961,0.6751648783683777,-0.7134721279144287
1732873439058412300,9.714412353515625,10.402806282043457,0.4644751250743866,-0.5746083855628967
1732873439068422100,9.724422119140625,10.072406768798828,0.1867477297782898,-0.30885201692581177
1732873439078432000,9.734431884765625,9.792284965515137,-0.3471592366695404,0.35913026332855225
1732873439088411100,9.7444111328125,9.926360130310059,-0.8619126081466675,0.9002198576927185
1732873439098421000,9.7544208984375,10.445901870727539,-1.2545616626739502,0.8762778043746948
1732873439108430600,9.7644306640625,11.085153579711914,-1.3694833517074585,0.21787235140800476
1732873439118440400,9.7744404296875,11.815385818481445,-1.235408067703247,-0.6823474764823914
1732873439128419600,9.784419677734375,12.51449203491211,-0.8571242094039917,-1.7405846118927002
1732873439138429400,9.794429443359375,12.662932395935059,-0.42616790533065796,-2.6599581241607666
1732873439148439000,9.80443896484375,12.083536148071289,-0.06224924325942993,-3.1028854846954346
1732873439158418400,9.81441845703125,11.188104629516602,0.17956513166427612,-2.9065608978271484
1732873439168428300,9.82442822265625,10.508151054382324,0.2849099934101105,-2.4157495498657227
1732873439178438000,9.83443798828125,9.780313491821289,0.27054479718208313,-1.8291701078414917
1732873439188417300,9.844417236328125,8.875306129455566,0.1388636976480484,-0.9983820915222168
1732873439198427100,9.85442724609375,8.073247909545898,0.13407529890537262,-0.3926490843296051
1732873439208436700,9.864436767578125,7.448361396789551,0.304063618183136,0.038307227194309235
1732873439218415900,9.874415771484376,7.422025203704834,0.5746083855628967,0.15801730751991272
1732873439228425700,9.88442578125,7.6351094245910645,0.6823474764823914,-0.035913024097681046
1732873439238435300,9.894435302734376,8.176198959350586,0.6392518281936646,-0.28730419278144836
1732873439248414700,9.904414794921875,8.927978515625,0.507570743560791,-0.5506663918495178
1732873439258424600,9.914424560546875,9.801861763000488,0.363918662071228,-0.8547300100326538
1732873439268434200,9.92443408203125,10.249577522277832,0.2849099934101105,-0.9911994934082031
1732873439278413600,9.93441357421875,10.316615104675293,0.17477671802043915,-0.8643068075180054
1732873439288423400,9.94442333984375,10.089165687561035,0.11971008777618408,-0.7015010714530945
1732873439298433000,9.95443310546875,9.749189376831055,0.20350714027881622,-0.7038952708244324
1732873439308412400,9.964412353515625,9.583989143371582,0.507570743560791,-0.9696516990661621
1732873439318422300,9.97442236328125,9.77791976928711,0.7972691655158997,-1.4748282432556152
1732873439328431900,9.984431884765625,10.036493301391602,0.9600749015808105,-2.0638017654418945
1732873439338411000,9.994410888671876,10.201693534851074,1.0438719987869263,-2.2912509441375732
1732873439348420900,10.0044208984375,10.285490036010742,1.091755986213684,-2.0661959648132324
1732873439358430500,10.014430419921876,10.20648193359375,1.0606313943862915,-1.5466543436050415
1732873439368440300,10.0244404296875,10.187328338623047,0.950498104095459,-1.0079588890075684
1732873439378419700,10.034419677734375,10.091560363769531,0.9313444495201111,-0.8331822156906128
1732873439388429300,10.04442919921875,9.99100399017334,1.039083480834961,-0.811634361743927
1732873439398439200,10.054439208984375,9.99100399017334,1.0247182846069336,-0.9481038451194763
1732873439408418600,10.06441845703125,10.146626472473145,0.9145850539207458,-1.1276689767837524
1732873439418428200,10.07442822265625,10.338163375854492,0.8547300100326538,-1.237802267074585
1732873439428438000,10.08443798828125,10.441113471984863,0.7829039692878723,-1.455674648284912
1732873439438417200,10.094417236328125,10.414777755737305,0.7637503147125244,-1.5514427423477173
1732873439448427000,10.104427001953125,10.122684478759766,0.7015010714530945,-1.4317326545715332
1732873439458436600,10.1144365234375,9.639056205749512,0.6847416758537292,-0.9289502501487732
1732873439468416000,10.124416015625,9.493009567260742,0.6536170840263367,-0.5051765441894531
1732873439478425600,10.134425537109376,9.75637149810791,0.44771572947502136,-0.11971008777618408
1732873439488435500,10.144435546875,10.196905136108398,0.272938996553421,0.08379705995321274
1732873439498414800,10.154414794921875,10.560823440551758,0.021547814831137657,0.16759411990642548
1732873439508424700,10.1644248046875,10.539276123046875,-0.3734954595565796,-0.038307227194309235
1732873439518434300,10.174434326171875,10.29746150970459,-0.9385270476341248,-0.5003881454467773
1732873439528413400,10.184413330078126,10.309432983398438,-1.4700398445129395,-0.8020575642585754
1732873439538423300,10.19442333984375,11.013327598571777,-1.8914192914962769,-0.5267243981361389
1732873439548433000,10.204432861328126,12.239158630371094,-2.2385785579681396,0.24660277366638184
1732873439558412300,10.214412353515625,13.297396659851074,-2.2864625453948975,0.9576807022094727
1732873439568422100,10.224422119140625,14.209587097167969,-1.821987509727478,1.601720929145813
1732873439578431700,10.234431640625,15.138537406921387,-1.381454348564148,1.0678139925003052
1732873439588411100,10.2444111328125,15.018827438354492,-1.0462661981582642,-0.24660277366638184
1732873439598421000,10.2544208984375,13.713987350463867,-0.47405192255973816,-1.6519991159439087
1732873439608430600,10.2644306640625,11.168951034545898,0.21547815203666687,-2.8850131034851074
1732873439618440400,10.2744404296875,8.619126319885254,0.5482721924781799,-3.4356794357299805
1732873439628419600,10.284419677734375,5.999869346618652,0.7086837291717529,-3.8953661918640137
1732873439638429200,10.29442919921875,4.616020679473877,0.706289529800415,-3.8091750144958496
1732873439648439000,10.30443896484375,4.637568473815918,0.45010992884635925,-2.985569477081299
1732873439658418400,10.31441845703125,6.186617374420166,-0.10773907601833344,-1.9536685943603516
1732873439668428000,10.324427978515626,8.377311706542969,-0.5554547905921936,-0.9002198576927185
1732873439678438000,10.33443798828125,10.654197692871094,-0.7158663272857666,-0.07422025501728058
1732873439688417300,10.344417236328125,12.00452709197998,-0.6943184733390808,0
1732873439698427100,10.35442724609375,12.36365795135498,-0.5410895943641663,-0.36152446269989014
1732873439708436700,10.364436767578125,11.544840812683105,-0.43335050344467163,-0.9385270476341248
1732873439718416000,10.374415771484376,9.531316757202148,0.009576806798577309,-1.8794482946395874
1732873439728425700,10.38442578125,7.7883381843566895,0.706289529800415,-2.382230758666992
1732873439738435300,10.394435302734376,6.615179061889648,1.278503656387329,-2.585737943649292
1732873439748414700,10.404414794921875,6.13633918762207,1.4939818382263184,-2.2194249629974365
1732873439758424600,10.414424560546875,6.200982570648193,1.335964560508728,-1.45806884765625
1732873439768434200,10.42443408203125,6.907271862030029,0.9648633003234863,-0.7924807667732239
1732873439778413600,10.43441357421875,7.556100368499756,0.730231523513794,-0.5434837937355042
1732873439788423400,10.44442333984375,8.020575523376465,0.727837324142456,-0.4141969084739685
1732873439798433000,10.45443310546875,8.561665534973145,0.6703764796257019,-0.13407529890537262
1732873439808412400,10.464412353515625,9.308655738830566,0.6105214357376099,0.24420857429504395
1732873439818422300,10.47442236328125,9.9000244140625,0.5817909836769104,0.6009446382522583
1732873439828432000,10.484431884765625,10.254365921020508,0.5195417404174805,0.7469909191131592
1732873439838411300,10.494411376953124,10.319009780883789,0.6703764796257019,0.6512228846549988
1732873439848420900,10.5044208984375,10.1753568649292,0.8762778043746948,0.4644751250743866
1732873439858430500,10.514430419921876,9.86889934539795,1.0079588890075684,0.3471592366695404
1732873439868440300,10.5244404296875,9.564835548400879,1.1659762859344482,0.5195417404174805
1732873439878419700,10.534419677734375,9.287108421325684,1.0797849893569946,0.871489405632019
1732873439888429600,10.5444296875,8.992621421813965,1.0821791887283325,0.9959878921508789
1732873439898439200,10.554439208984375,8.875306129455566,1.0127472877502441,0.7757213711738586
1732873439908418600,10.56441845703125,8.904036521911621,1.0079588890075684,0.6224924325942993
1732873439918428400,10.574428466796874,9.014169692993164,1.0462661981582642,0.706289529800415
1732873439928438000,10.58443798828125,9.27034854888916,1.015141487121582,0.608127236366272
1732873439938417200,10.594417236328125,9.670180320739746,0.9361328482627869,0.42377370595932007
1732873439948427000,10.604427001953125,10.050858497619629,0.8475474119186401,0.40222588181495667
1732873439958436600,10.6144365234375,10.38604736328125,0.7158663272857666,0.1173158809542656
1732873439968416000,10.624416015625,10.606313705444336,0.7565677165985107,-0.31124621629714966
1732873439978425900,10.63442578125,10.8720703125,0.7709329724311829,-0.849941611289978
1732873439988435500,10.644435546875,10.972626686096191,0.7206547260284424,-1.2832920551300049
1732873439998414800,10.654414794921875,10.927136421203613,0.6536170840263367,-1.3096283674240112
1732873440008424700,10.6644248046875,10.934319496154785,0.5099649429321289,-0.7924807667732239
1732873440018434300,10.674434326171875,10.931924819946289,0.33279404044151306,-0.2825157940387726
1732873440028413400,10.684413330078126,10.819397926330566,0.014365210197865963,0.19871874153614044
1732873440038423300,10.69442333984375,10.752359390258789,-0.3064578175544739,0.3998316824436188
1732873440048433000,10.704432861328126,10.831368446350098,-0.8954314589500427,0.2322375625371933
1732873440058412300,10.714412353515625,11.276689529418945,-1.316810965538025,0.07422025501728058
1732873440068422100,10.724422119140625,12.200851440429688,-1.6879122257232666,-0.05027823522686958
1732873440078432000,10.734431884765625,13.201627731323242,-1.8602946996688843,0.0694318488240242
1732873440088411100,10.7444111328125,14.041993141174316,-1.8770540952682495,0.2585737705230713
1732873440098421000,10.7544208984375,14.106636047363281,-1.7525556087493896,0.48602294921875
1732873440108430600,10.7644306640625,13.15613842010498,-1.5418659448623657,0.6584054827690125
1732873440118440400,10.7744404296875,11.398794174194336,-1.2617442607879639,0.5937620401382446
1732873440128419600,10.784419677734375,9.940725326538086,-1.0055646896362305,0.37828385829925537
1732873440138429400,10.794429443359375,8.7268648147583,-0.811634361743927,0.07182604819536209
1732873440148439000,10.80443896484375,7.812280178070068,-0.5961562395095825,0.035913024097681046
1732873440158418400,10.81441845703125,7.4100542068481445,-0.5099649429321289,-0.272938996553421
1732873440168428300,10.82442822265625,7.766790390014648,-0.5267243981361389,-0.19393034279346466
1732873440178438000,10.83443798828125,8.638279914855957,-0.6200982332229614,0.07182604819536209
1732873440188417300,10.844417236328125,9.557653427124023,-0.8212111592292786,0.5003881454467773
1732873440198427100,10.85442724609375,10.1753568649292,-0.8643068075180054,0.8834604024887085
1732873440208436700,10.864436767578125,10.412383079528809,-0.828393816947937,1.0295066833496094
1732873440218415900,10.874415771484376,10.333374977111816,-0.6320692300796509,0.7613561153411865
1732873440228425700,10.88442578125,9.976638793945312,-0.22505496442317963,0.26336219906806946
1732873440238435300,10.894435302734376,9.342175483703613,0.17238251864910126,-0.3447650372982025
1732873440248414700,10.904414794921875,8.5903959274292,0.6392518281936646,-0.9672574996948242
1732873440258424600,10.914424560546875,8.212111473083496,1.070208191871643,-1.161187767982483
1732873440268434200,10.92443408203125,8.176198959350586,1.280897855758667,-1.2641384601593018
1732873440278413600,10.93441357421875,8.123526573181152,1.2976573705673218,-1.2114660739898682
1732873440288423400,10.94442333984375,7.931990146636963,1.2473790645599365,-0.8259995579719543
1732873440298433000,10.95443310546875,7.68538761138916,1.1468225717544556,-0.3926490843296051
1732873440308412400,10.964412353515625,7.161057472229004,1.1204863786697388,-0.10295066982507706
1732873440318422300,10.97442236328125,6.7923502922058105,1.2090718746185303,-0.1149216815829277
1732873440328431900,10.984431884765625,6.665457725524902,1.290474772453308,-0.24420857429504395
1732873440338411000,10.994410888671876,6.84981107711792,1.290474772453308,-0.33518823981285095
1732873440348420900,11.0044208984375,7.158663272857666,1.1827356815338135,-0.3423708379268646
1732873440358430500,11.014430419921876,7.747636795043945,1.0103530883789062,-0.30885201692581177
1732873440368440300,11.0244404296875,8.463502883911133,0.8164227604866028,-0.2059013396501541
1732873440378419700,11.034419677734375,9.277531623840332,0.5937620401382446,-0.023942016065120697
1732873440388429300,11.04442919921875,9.715670585632324,0.37828385829925537,0.17717093229293823
1732873440398439200,11.054439208984375,10.182539939880371,0.4429273009300232,0.6991068720817566
1732873440408418600,11.06441845703125,10.488997459411621,0.40701428055763245,0.9193734526634216
1732873440418428200,11.07442822265625,10.402806282043457,0.3663128614425659,0.9840168952941895
1732873440428438000,11.08443798828125,10.065223693847656,0.38067805767059326,0.849941611289978
1732873440438417200,11.094417236328125,9.765948295593262,0.4644751250743866,0.19393034279346466
1732873440448427000,11.104427001953125,9.32541561126709,0.4118026793003082,-0.5961562395095825
1732873440458436600,11.1144365234375,9.141061782836914,0.24660277366638184,-1.2210428714752197
1732873440468416000,11.124416015625,9.387664794921875,-0.011971008032560349,-1.4197616577148438
1732873440478425600,11.134425537109376,10.249577522277832,-0.3447650372982025,-1.3263877630233765
1732873440488435500,11.144435546875,11.60708999633789,-0.4836287498474121,-0.5674257874488831
1732873440498414800,11.154414794921875,12.770671844482422,-0.5315127968788147,0.31842881441116333
1732873440508424700,11.1644248046875,13.46020221710205,-0.5817909836769104,0.9050082564353943
1732873440518434600,11.1744345703125,13.292608261108398,-0.608127236366272,1.05105459690094
1732873440528413400,11.184413330078126,12.373234748840332,-0.8259995579719543,0.31603461503982544
1732873440538423300,11.19442333984375,11.008539199829102,-1.256955862045288,-0.871489405632019
1732873440548433000,11.204432861328126,10.390835762023926,-1.656787633895874,-1.4628572463989258
1732873440558412300,11.214412353515625,10.737994194030762,-2.030282974243164,-1.86508309841156
1732873440568422100,11.224422119140625,11.69806957244873,-2.3343467712402344,-1.6328455209732056
1732873440578431700,11.234431640625,13.165715217590332,-2.4157495498657227,-0.8188169598579407
1732873440588411100,11.2444111328125,14.121001243591309,-2.5665841102600098,-0.21547815203666687
1732873440598421000,11.2544208984375,14.082694053649902,-2.6192567348480225,0.08619125932455063
1732873440608430600,11.2644306640625,12.921506881713867,-2.3965959548950195,0.0454898327589035
1732873440618440400,11.2744404296875,10.927136421203613,-1.9632453918457031,-0.395043283700943
1732873440628419600,11.284419677734375,9.332598686218262,-1.4867992401123047,-0.9911994934082031
1732873440638429200,11.29442919921875,7.979874134063721,-0.9457096457481384,-1.8411411046981812
1732873440648439000,11.30443896484375,6.907271862030029,-0.31124621629714966,-2.8395233154296875
1732873440658418400,11.31441845703125,6.129156112670898,0.20111294090747833,-3.5889084339141846
1732873440668428000,11.324427978515626,5.719748020172119,0.6871358752250671,-4.005499362945557
1732873440678438000,11.33443798828125,5.772420406341553,0.9720458984375,-3.998316764831543
1732873440688417300,11.344417236328125,6.0190229415893555,1.1755530834197998,-3.620033025741577
1732873440698427100,11.35442724609375,6.3063273429870605,1.173158884048462,-2.983175277709961
1732873440708436700,11.364436767578125,6.722918510437012,0.8307880163192749,-2.0614075660705566
1732873440718416000,11.374415771484376,7.139509677886963,0.3902548849582672,-1.1827356815338135
1732873440728425700,11.38442578125,7.546523571014404,-0.16759411990642548,-0.38067805767059326
1732873440738435600,11.394435546875,7.762001991271973,-0.5315127968788147,0.23702596127986908
1732873440748414700,11.404414794921875,7.812280178070068,-0.8906430602073669,0.7996633648872375
1732873440758424600,11.414424560546875,7.989450931549072,-1.0869675874710083,0.9672574996948242
1732873440768434200,11.42443408203125,8.398859977722168,-1.1851298809051514,0.871489405632019
1732873440778413600,11.43441357421875,9.114726066589355,-1.213860273361206,0.5937620401382446
1732873440788423400,11.44442333984375,10.002974510192871,-1.3838485479354858,0.3495534360408783
1732873440798433300,11.454433349609374,11.149797439575195,-1.577778935432434,0.24660277366638184
1732873440808412400,11.464412353515625,12.088324546813965,-1.6615760326385498,0.3280056416988373
1732873440818422300,11.47442236328125,12.828132629394531,-1.6711528301239014,0.2849099934101105
1732873440828432000,11.484431884765625,13.055582046508789,-1.5753847360610962,0.13168109953403473
1732873440838411300,11.494411376953124,12.753912925720215,-1.338358759880066,-0.1149216815829277
1732873440848420900,11.5044208984375,11.942277908325195,-1.173158884048462,-0.43095630407333374
1732873440858430500,11.514430419921876,10.795455932617188,-0.9911994934082031,-0.5985504388809204
1732873440868440300,11.5244404296875,10.08198356628418,-0.8619126081466675,-0.7086837291717529
1732873440878419700,11.534419677734375,10.04846477508545,-0.811634361743927,-0.8379706144332886
1732873440888429600,11.5444296875,10.3549222946167,-0.7709329724311829,-0.9481038451194763
1732873440898439200,11.554439208984375,10.393229484558105,-0.706289529800415,-1.0199298858642578
1732873440908418600,11.56441845703125,10.08198356628418,-0.6320692300796509,-1.314416766166687
1732873440918428400,11.574428466796874,9.682151794433594,-0.4572925269603729,-1.414973258972168
1732873440928438000,11.58443798828125,9.169792175292969,-0.2849099934101105,-1.5418659448623657
1732873440938417200,11.594417236328125,8.796297073364258,-0.11971008777618408,-1.6304513216018677
1732873440948427000,11.604427001953125,8.461109161376953,0.05027823522686958,-1.6184803247451782
1732873440958436600,11.6144365234375,8.379706382751465,0.1628057211637497,-1.4700398445129395
1732873440968416000,11.624416015625,8.413225173950195,0.17717093229293823,-1.1994950771331787
1732873440978425900,11.63442578125,8.652645111083984,0.13407529890537262,-0.6943184733390808
1732873440988435500,11.644435546875,9.014169692993164,-0.18914192914962769,-0.38546648621559143
1732873440998414800,11.654414794921875,9.59596061706543,-0.4357447028160095,-0.20350714027881622
1732873441008424700,11.6644248046875,10.113107681274414,-0.4620809257030487,-0.24899697303771973
1732873441018434300,11.674434326171875,10.211270332336426,-0.3926490843296051,-0.6057330369949341
1732873441028413400,11.684413330078126,10.122684478759766,-0.35913026332855225,-0.8954314589500427
1732873441038423300,11.69442333984375,10.093954086303711,-0.545877993106842,-0.9888052940368652
1732873441048433000,11.704432861328126,10.29746150970459,-0.8547300100326538,-1.072602391242981
1732873441058412300,11.714412353515625,10.651803016662598,-1.2330138683319092,-1.0342950820922852
1732873441068422100,11.724422119140625,11.329362869262695,-1.4221558570861816,-0.6153098344802856
1732873441078432000,11.734431884765625,12.236764907836914,-1.678335428237915,0.28730419278144836
1732873441088411100,11.7444111328125,12.600683212280273,-1.8555063009262085,1.1492167711257935
1732873441098421000,11.7544208984375,12.282255172729492,-1.8962076902389526,1.6711528301239014
1732873441108430600,11.7644306640625,11.264719009399414,-1.8171991109848022,1.6711528301239014
1732873441118440400,11.7744404296875,10.223240852355957,-1.6352397203445435,1.3910311460494995
1732873441128419600,11.784419677734375,9.378087997436523,-1.3910311460494995,0.8307880163192749
1732873441138429400,11.794429443359375,8.774748802185059,-0.9097966551780701,0.016759412363171577
1732873441148439000,11.80443896484375,8.188169479370117,-0.3734954595565796,-1.0558429956436157
1732873441158418400,11.81441845703125,7.910442352294922,0.033518824726343155,-1.7717092037200928
1732873441168428300,11.82442822265625,7.905653953552246,0.33997663855552673,-2.145204782485962
1732873441178438000,11.83443798828125,8.149862289428711,0.3016694188117981,-2.006340980529785
1732873441188417300,11.844417236328125,8.935160636901855,-0.05027823522686958,-1.3072341680526733
1732873441198427100,11.85442724609375,9.78989028930664,-0.40701428055763245,-0.5650315880775452
1732873441208436700,11.864436767578125,10.292673110961914,-0.6344634294509888,-0.2106897532939911
1732873441218415900,11.874415771484376,10.532093048095703,-0.768538773059845,0.043095629662275314
1732873441228425700,11.88442578125,10.484209060668945,-0.7829039692878723,0.15322890877723694
1732873441238435600,11.894435546875,10.180145263671875,-0.7541735172271729,-0.14365209639072418
1732873441248414700,11.904414794921875,9.80904483795166,-0.6631938815116882,-0.3902548849582672
1732873441258424600,11.914424560546875,9.533711433410645,-0.4908113479614258,-0.5913678407669067
1732873441268434200,11.92443408203125,9.469067573547363,-0.4213795065879822,-0.7326257228851318
1732873441278413600,11.93441357421875,9.591172218322754,-0.4189853072166443,-0.6488286852836609
1732873441288423400,11.94442333984375,9.725247383117676,-0.4141969084739685,-0.30885201692581177
1732873441298433000,11.95443310546875,9.785101890563965,-0.3232172429561615,0.08858546614646912
1732873441308412400,11.964412353515625,9.677363395690918,-0.19153612852096558,0.35434186458587646
1732873441318422300,11.97442236328125,9.361329078674316,0,0.3926490843296051
1732873441328431900,11.984431884765625,8.83939266204834,0.19632454216480255,0.15322890877723694
1732873441338411000,11.994410888671876,8.401253700256348,0.3423708379268646,-0.08619125932455063
1732873441348420900,12.0044208984375,8.161833763122559,0.4141969084739685,-0.3208230137825012
1732873441358430500,12.014430419921876,8.336610794067383,0.4812345504760742,-0.6009446382522583
1732873441368440300,12.0244404296875,8.851364135742188,0.5099649429321289,-0.7589619159698486
1732873441378419700,12.034419677734375,9.402029991149902,0.42377370595932007,-0.6057330369949341
1732873441388429300,12.04442919921875,10.007762908935547,0.17477671802043915,-0.22266076505184174
1732873441398439200,12.054439208984375,10.41956615447998,-0.11013327538967133,0.17238251864910126
1732873441408418600,12.06441845703125,10.613495826721191,-0.3256114423274994,0.6655880808830261
1732873441418428200,12.07442822265625,10.556035041809082,-0.42377370595932007,0.9911994934082031
1732873441428438000,12.08443798828125,10.304644584655762,-0.42856210470199585,1.0199298858642578
1732873441438417200,12.094417236328125,10.022128105163574,-0.33518823981285095,0.7398083209991455
1732873441448427000,12.104427001953125,9.983820915222168,-0.24420857429504395,0.3998316824436188
1732873441458436600,12.1144365234375,10.127472877502441,-0.1364694982767105,0.17238251864910126
1732873441468416000,12.124416015625,10.412383079528809,-0.047884032130241394,-0.019153613597154617
1732873441478425600,12.134425537109376,10.735600471496582,0.15562310814857483,-0.33039984107017517
1732873441488435500,12.144435546875,10.917559623718262,0.28969839215278625,-0.6392518281936646
1732873441498414800,12.154414794921875,10.81460952758789,0.2801215946674347,-0.8738836050033569
1732873441508424700,12.1644248046875,10.496180534362793,0.14844051003456116,-0.9600749015808105
1732873441518434300,12.174434326171875,10.108319282531738,-0.038307227194309235,-0.9361328482627869
1732873441528413400,12.184413330078126,9.849745750427246,-0.28969839215278625,-0.6823474764823914
1732873441538423300,12.19442333984375,9.62947940826416,-0.5315127968788147,-0.3232172429561615
1732873441548433000,12.204432861328126,9.327810287475586,-0.6823474764823914,0.009576806798577309
1732873441558412300,12.214412353515625,9.315838813781738,-0.5171475410461426,0.2059013396501541
1732873441568422100,12.224422119140625,9.150638580322266,-0.33039984107017517,0.2753331959247589
1732873441578431700,12.234431640625,8.705317497253418,-0.19153612852096558,0.3423708379268646
1732873441588411100,12.2444111328125,8.180987358093262,-0.019153613597154617,0.19153612852096558
1732873441598421000,12.2544208984375,7.714118003845215,0.2537853717803955,-0.23942017555236816
1732873441608430600,12.2644306640625,7.319074630737305,0.6991068720817566,-0.871489405632019
1732873441618440400,12.2744404296875,7.161057472229004,1.048660397529602,-1.4173674583435059
1732873441628419600,12.284419677734375,7.232883453369141,1.2497732639312744,-1.7932571172714233
1732873441638429200,12.29442919921875,7.534552574157715,1.2090718746185303,-1.9584569931030273
1732873441648439000,12.30443896484375,8.365341186523438,1.0989385843276978,-1.946485996246338
1732873441658418400,12.31441845703125,9.603142738342285,0.8643068075180054,-1.6855180263519287
1732873441668428000,12.324427978515626,10.651803016662598,0.6248866319656372,-1.3910311460494995
1732873441678438000,12.33443798828125,11.499350547790527,0.3974374830722809,-0.9145850539207458
1732873441688417300,12.344417236328125,11.944672584533691,0.26815059781074524,-0.4596867263317108
1732873441698427100,12.35442724609375,12.255918502807617,0.18914192914962769,-0.090979665517807
1732873441708436700,12.364436767578125,12.418724060058594,0.20350714027881622,0.19632454216480255
1732873441718416000,12.374415771484376,12.445060729980469,0.20111294090747833,0.3471592366695404
1732873441728425700,12.38442578125,12.24155330657959,0.15322890877723694,0.22505496442317963
1732873441738435600,12.394435546875,11.688492774963379,0.22744916379451752,0.05027823522686958
1732873441748414700,12.404414794921875,11.101913452148438,0.30885201692581177,-0.021547814831137657
1732873441758424600,12.414424560546875,10.278307914733887,0.3208230137825012,-0.09816227108240128
1732873441768434200,12.42443408203125,9.409213066101074,0.30885201692581177,-0.21787235140800476
1732873441778413600,12.43441357421875,8.83939266204834,0.2849099934101105,-0.4596867263317108
1732873441788423400,12.44442333984375,8.803479194641113,0.3687070608139038,-0.7015010714530945
1732873441798433000,12.45443310546875,9.035717010498047,0.5171475410461426,-0.6560112833976746
1732873441808412400,12.464412353515625,9.167398452758789,0.6105214357376099,-0.42856210470199585
1732873441818422300,12.47442236328125,9.368511199951172,0.6799532771110535,-0.3519476354122162
1732873441828432000,12.484431884765625,9.730035781860352,0.7541735172271729,-0.5315127968788147
1732873441838411300,12.494411376953124,9.837775230407715,0.727837324142456,-1.2090718746185303
1732873441848420900,12.5044208984375,9.47146224975586,0.6727706789970398,-2.2409727573394775
1732873441858430500,12.514430419921876,9.198522567749023,0.6488286852836609,-2.8658595085144043
1732873441868440300,12.5244404296875,9.634267807006836,0.5985504388809204,-2.5546131134033203
1732873441878419700,12.534419677734375,10.642226219177246,0.16998831927776337,-1.1827356815338135
1732873441888429600,12.5444296875,11.520898818969727,-0.35434186458587646,0.2059013396501541
1732873441898439200,12.554439208984375,11.939884185791016,-0.849941611289978,1.6950948238372803
1732873441908418600,12.56441845703125,11.688492774963379,-1.1300631761550903,2.513911724090576
1732873441918428400,12.574428466796874,11.013327598571777,-1.2976573705673218,2.87064790725708
1732873441928438000,12.58443798828125,10.309432983398438,-1.1971008777618408,2.3989901542663574
1732873441938417200,12.594417236328125,9.658209800720215,-0.912190854549408,1.1875240802764893
1732873441948427000,12.604427001953125,9.493009567260742,-0.5363011956214905,-0.07182604819536209
1732873441958436600,12.6144365234375,9.840168952941895,-0.011971008032560349,-1.2617442607879639
1732873441968416000,12.624416015625,10.376470565795898,0.43095630407333374,-1.8626888990402222
1732873441978425900,12.63442578125,11.092336654663086,0.8954314589500427,-2.051830768585205
1732873441988435500,12.644435546875,11.489773750305176,0.9481038451194763,-1.8339585065841675
1732873441998414800,12.654414794921875,11.252747535705566,0.7829039692878723,-1.4245500564575195
1732873442008424700,12.6644248046875,10.587160110473633,0.5530605912208557,-1.0295066833496094
1732873442018434300,12.674434326171875,9.883264541625977,0.31842881441116333,-0.7206547260284424
1732873442028413400,12.684413330078126,9.229647636413574,0.19632454216480255,-0.38067805767059326
1732873442038423300,12.69442333984375,8.686163902282715,0.1628057211637497,-0.40222588181495667
1732873442048433000,12.704432861328126,8.508993148803711,0.24660277366638184,-0.7158663272857666
1732873442058412300,12.714412353515625,8.729259490966797,0.5746083855628967,-1.0319008827209473
1732873442068422100,12.724422119140625,8.99740982055664,0.8188169598579407,-1.556231141090393
1732873442078432000,12.734431884765625,9.14585018157959,1.0247182846069336,-2.1763293743133545
1732873442088411100,12.7444111328125,9.141061782836914,1.1899182796478271,-2.695871114730835
1732873442098421000,12.7544208984375,9.165003776550293,1.2210428714752197,-3.1316158771514893
1732873442108430600,12.7644306640625,9.277531623840332,1.1492167711257935,-3.1459810733795166
1732873442118440400,12.7744404296875,9.509769439697266,0.8882488012313843,-2.7964274883270264
1732873442128419600,12.784419677734375,9.782708168029785,0.5889736413955688,-2.2170307636260986
1732873442138429400,12.794429443359375,9.988609313964844,0.20111294090747833,-1.4724340438842773
1732873442148439000,12.80443896484375,9.883264541625977,-0.17717093229293823,-0.8643068075180054
1732873442158418400,12.81441845703125,9.39245319366455,-0.5123591423034668,-0.42856210470199585
1732873442168428300,12.82442822265625,8.920795440673828,-0.7422025203704834,-0.37828385829925537
1732873442178438000,12.83443798828125,8.556877136230469,-0.8212111592292786,-0.5267243981361389
1732873442188417300,12.844417236328125,8.322244644165039,-0.7733271718025208,-0.8547300100326538
1732873442198427100,12.85442724609375,8.166622161865234,-0.6177040338516235,-0.9983820915222168
1732873442208436700,12.864436767578125,8.494627952575684,-0.16998831927776337,-0.8738836050033569
1732873442218415900,12.874415771484376,9.11233139038086,0.24420857429504395,-0.8331822156906128
1732873442228425700,12.88442578125,9.84256362915039,0.40462008118629456,-1.0749965906143188
1732873442238435600,12.894435546875,10.350133895874023,0.3016694188117981,-1.5897499322891235
1732873442248414700,12.904414794921875,10.83855152130127,-0.05746084079146385,-2.0231003761291504
