time,seconds_elapsed,z,y,x
1733404607204716000,0.511716064453125,0.0928802490234375,0.009057164192199707,-0.000732123851776123
1733404607214402800,0.52140283203125,0.2046651840209961,-0.0009778738021850586,0.0002145916223526001
1733404607224674800,0.5316748046875,0.2779054641723633,-0.01162576675415039,0.08307886123657227
1733404607234684700,0.5416845703125,0.24644088745117188,0.026549458503723145,0.11023706197738647
1733404607244664000,0.5516640625,0.21546459197998047,0.048221468925476074,0.12292391806840897
1733404607254673700,0.561673583984375,0.2452383041381836,0.0973820686340332,0.15169548988342285
1733404607264683500,0.57168359375,0.2258453369140625,0.1424633264541626,0.11926603317260742
1733404607274663000,0.581662841796875,0.13799190521240234,0.18056321144104004,0.05444733798503876
1733404607284672500,0.591672607421875,0.01887798309326172,0.14643776416778564,0.053857263177633286
1733404607294682400,0.601682373046875,-0.0761404037475586,0.1361628770828247,0.0030359700322151184
1733404607304661500,0.61166162109375,-0.16706085205078125,0.09190452098846436,-0.031589098274707794
1733404607314671400,0.62167138671875,-0.22088909149169922,0.024733662605285645,-0.046229176223278046
1733404607324681200,0.63168115234375,-0.1590137481689453,-0.038471102714538574,-0.05705773085355759
1733404607334690800,0.64169091796875,-0.088531494140625,-0.07650673389434814,-0.06803297996520996
1733404607344670000,0.651669921875,-0.02895641326904297,-0.1319112777709961,-0.05527336150407791
1733404607354679800,0.6616796875,0.02132129669189453,-0.11895191669464111,-0.09301966428756714
1733404607364689700,0.671689697265625,0.026226043701171875,-0.11026918888092041,-0.025926530361175537
1733404607374668800,0.681668701171875,-0.028005599975585938,-0.07840228080749512,-0.04337415099143982
1733404607384678700,0.6916787109375,-0.1149282455444336,-0.058158040046691895,-0.06245027482509613
1733404607394688500,0.7016884765625,-0.12699508666992188,-0.04534792900085449,-0.0005121380090713501
1733404607404667600,0.711667724609375,-0.095977783203125,-0.04181540012359619,0.03183339536190033
1733404607414677500,0.721677490234375,-0.06259441375732422,0.024375200271606445,-0.013936594128608704
1733404607424687400,0.731687255859375,0.0071964263916015625,0.022405266761779785,0.01668567955493927
1733404607434666500,0.74166650390625,0.021294593811035156,0.010901808738708496,0.014922857284545898
1733404607444676000,0.751676025390625,0.009701728820800781,0.004404425621032715,0.0006366819143295288
1733404607454686000,0.76168603515625,-0.05034446716308594,-0.005477786064147949,0.03670539706945419
1733404607464665000,0.7716650390625,-0.12906169891357422,-0.0003961324691772461,0.03231840580701828
1733404607474675000,0.781675048828125,-0.22731590270996094,-0.018543601036071777,-0.007032647728919983
1733404607484684800,0.791684814453125,-0.24903011322021484,-0.028902530670166016,0.02246762067079544
1733404607494664200,0.801664306640625,-0.22777366638183594,-0.04772329330444336,0.01347959041595459
1733404607504673800,0.811673828125,-0.14197635650634766,-0.05595433712005615,0.014638826251029968
1733404607514683600,0.82168359375,-0.0825958251953125,-0.06574416160583496,0.01635032892227173
1733404607524662800,0.831662841796875,-0.05435466766357422,-0.029784083366394043,0.08107218146324158
1733404607534672400,0.84167236328125,-0.07634353637695312,-0.03012692928314209,0.08376894891262054
1733404607544682200,0.85168212890625,-0.12703704833984375,-0.033124446868896484,0.0861268937587738
1733404607554661600,0.86166162109375,-0.16335391998291016,-0.05060088634490967,0.1505645513534546
1733404607564671200,0.871671142578125,-0.12552642822265625,-0.0696873664855957,0.16258922219276428
1733404607574681000,0.88168115234375,-0.020804405212402344,-0.0827404260635376,0.19778887927532196
1733404607584691000,0.89169091796875,0.12200641632080078,-0.0917244553565979,0.24912695586681366
1733404607594670000,0.901670166015625,0.20493221282958984,-0.08096200227737427,0.24708718061447144
1733404607604680000,0.911679931640625,0.27829742431640625,-0.06776291131973267,0.21230608224868774
1733404607614689500,0.921689453125,0.27992916107177734,0.031096458435058594,0.1914396733045578
1733404607624668700,0.931668701171875,0.33197021484375,0.09287625551223755,0.2738306224346161
1733404607634678500,0.941678466796875,0.08727455139160156,0.009572982788085938,0.1714252084493637
1733404607644688400,0.9516884765625,0.17796611785888672,0.16819816827774048,0.11014056950807571
1733404607654667500,0.96166748046875,0.1753702163696289,0.13221502304077148,0.006739377975463867
1733404607664677400,0.971677490234375,0.03404045104980469,0.10708349943161011,-0.007128655910491943
1733404607674687200,0.981687255859375,-0.08072090148925781,0.11277824640274048,0.01736310124397278
1733404607684666600,0.99166650390625,-0.21456432342529297,0.09125494956970215,-0.0045592039823532104
1733404607694676200,1.00167626953125,-0.3316001892089844,0.1244857907295227,-0.0974850058555603
1733404607704686000,1.01168603515625,-0.46303844451904297,0.06967240571975708,-0.08165274560451508
1733404607714665200,1.021665283203125,-0.49643802642822266,0.056741952896118164,0.000932350754737854
1733404607724674800,1.0316748046875,-0.5037059783935547,0.038711369037628174,-0.023722916841506958
1733404607734684700,1.0416845703125,-0.4632577896118164,0.02002662420272827,0.03815336525440216
1733404607744664000,1.0516640625,-0.33931636810302734,-0.017074227333068848,0.06231366842985153
1733404607754673700,1.061673583984375,-0.2203359603881836,-0.04997837543487549,0.026844725012779236
1733404607764683500,1.07168359375,-0.03206634521484375,-0.0742260217666626,0.017466291785240173
1733404607774663000,1.081662841796875,0.1369485855102539,-0.06625258922576904,0.04140840470790863
1733404607784672500,1.091672607421875,0.3011751174926758,-0.053277552127838135,0.05147932469844818
1733404607794682400,1.101682373046875,0.4128122329711914,-0.04334920644760132,0.011693835258483887
1733404607804661800,1.111661865234375,0.4216146469116211,-0.008250176906585693,0.0003497898578643799
1733404607814671400,1.12167138671875,0.35886669158935547,0.03355276584625244,-0.0015958845615386963
1733404607824681200,1.13168115234375,0.16469287872314453,0.10611999034881592,-0.011070355772972107
1733404607834690800,1.14169091796875,-0.05558586120605469,0.11137443780899048,0.007211834192276001
1733404607844670000,1.151669921875,-0.30925941467285156,0.10303139686584473,0.0551786869764328
1733404607854679800,1.1616796875,-0.3786153793334961,0.0971841812133789,0.018189385533332825
1733404607864689700,1.171689697265625,-0.25425052642822266,0.06712019443511963,-0.02180473506450653
1733404607874669000,1.1816689453125,-0.05834197998046875,0.025737524032592773,0.0030619651079177856
1733404607884678700,1.1916787109375,0.12060070037841797,-0.034758150577545166,-0.004793301224708557
1733404607894688500,1.2016884765625,0.12474822998046875,-0.056684136390686035,-0.05321599543094635
1733404607904667600,1.211667724609375,0.033245086669921875,-0.09193044900894165,-0.07111142575740814
1733404607914677500,1.221677490234375,-0.11800861358642578,-0.059169888496398926,-0.05206657946109772
1733404607924687400,1.231687255859375,-0.13036537170410156,-0.0579105019569397,-0.08110219240188599
1733404607934666500,1.24166650390625,-0.18343067169189453,-0.025038301944732666,-0.1371118426322937
1733404607944676000,1.251676025390625,-0.1527423858642578,0.07552295923233032,-0.12772396206855774
1733404607954686000,1.26168603515625,-0.15793514251708984,0.10669660568237305,-0.13583704829216003
1733404607964665000,1.2716650390625,-0.2898883819580078,0.13416129350662231,-0.08586330711841583
1733404607974675000,1.281675048828125,-0.5056028366088867,0.14661842584609985,-0.07044297456741333
1733404607984684800,1.291684814453125,-0.5083246231079102,0.16467338800430298,-0.06339184939861298
1733404607994664200,1.301664306640625,-0.29586124420166016,0.11401408910751343,-0.011837661266326904
1733404608004673800,1.311673828125,-0.062191009521484375,0.04553568363189697,-0.004488065838813782
1733404608014683600,1.32168359375,0.18081951141357422,-0.039485156536102295,0.05414634943008423
1733404608024662800,1.331662841796875,0.40216064453125,-0.08957183361053467,0.1881992071866989
1733404608034672400,1.34167236328125,0.5158700942993164,-0.11458182334899902,0.2613624334335327
1733404608044682200,1.35168212890625,0.4478797912597656,-0.06831473112106323,0.27450668811798096
1733404608054692000,1.361692138671875,0.3155183792114258,-0.022950053215026855,0.3568153977394104
1733404608064671500,1.37167138671875,0.04221630096435547,0.04964113235473633,0.42675864696502686
1733404608074681000,1.38168115234375,-0.1613636016845703,0.08746081590652466,0.4437022805213928
1733404608084691000,1.39169091796875,-0.3814992904663086,0.10095357894897461,0.5570542216300964
1733404608094670000,1.401670166015625,-0.5656843185424805,0.04227226972579956,0.5100953578948975
1733404608104680000,1.411679931640625,-0.6542491912841797,-0.07654350996017456,0.5287570357322693
1733404608114689500,1.421689453125,-0.5062236785888672,-0.10117965936660767,0.5796123147010803
1733404608124669000,1.4316689453125,-0.22928619384765625,-0.1548590064048767,0.6140953898429871
1733404608134678500,1.441678466796875,0.018566131591796875,-0.21163249015808105,0.6341732144355774
1733404608144688400,1.4516884765625,0.24943256378173828,-0.19619739055633545,0.6127482056617737
1733404608154667800,1.461667724609375,0.46111488342285156,-0.1271820068359375,0.5010350942611694
1733404608164677400,1.471677490234375,0.5054235458374023,-0.03363633155822754,0.3144596517086029
1733404608174687200,1.481687255859375,0.4375743865966797,0.07260638475418091,0.15596982836723328
1733404608184666600,1.49166650390625,0.27204322814941406,0.10099852085113525,0.028898579999804497
1733404608194676200,1.50167626953125,0.1043853759765625,0.11384773254394531,-0.05985599011182785
1733404608204685800,1.511685791015625,0.01826190948486328,0.08424168825149536,-0.08642777055501938
1733404608214665200,1.521665283203125,0.08292388916015625,0.04105788469314575,-0.15864476561546326
1733404608224674800,1.5316748046875,0.30538463592529297,-0.01096034049987793,-0.251775324344635
1733404608234684700,1.5416845703125,0.6161785125732422,-0.06420034170150757,-0.3578920364379883
1733404608244664000,1.5516640625,0.8573856353759766,-0.14154964685440063,-0.43692201375961304
1733404608254673700,1.561673583984375,0.9598188400268555,-0.1841399073600769,-0.5231263637542725
1733404608264683500,1.57168359375,0.8996744155883789,-0.20584562420845032,-0.6795581579208374
1733404608274663000,1.581662841796875,0.7296857833862305,-0.23151284456253052,-0.6738570928573608
1733404608284672500,1.591672607421875,0.4834442138671875,-0.18053948879241943,-0.7266110181808472
1733404608294682400,1.601682373046875,0.2591524124145508,-0.03391730785369873,-0.7720931768417358
1733404608304692200,1.611692138671875,-0.03890419006347656,0.14847016334533691,-0.799768328666687
1733404608314671400,1.62167138671875,-0.40355777740478516,0.25993525981903076,-0.765036404132843
1733404608324681200,1.63168115234375,-0.8444967269897461,0.2940295338630676,-0.6568520069122314
1733404608334690800,1.64169091796875,-1.1393651962280273,0.2709590792655945,-0.6803296804428101
1733404608344670000,1.651669921875,-1.2476520538330078,0.17553001642227173,-0.5028823614120483
1733404608354679800,1.6616796875,-1.1537885665893555,0.04437369108200073,-0.45308101177215576
1733404608364689700,1.671689697265625,-0.8416509628295898,-0.03480243682861328,-0.43115681409835815
1733404608374668800,1.681668701171875,-0.4301795959472656,-0.10381656885147095,-0.4915900230407715
1733404608384678700,1.6916787109375,-0.14603519439697266,-0.1054578423500061,-0.5382660627365112
1733404608394688500,1.7016884765625,-0.03193187713623047,-0.01968216896057129,-0.5675278902053833
1733404608404668000,1.71166796875,-0.21163558959960938,0.1585865020751953,-0.6872712969779968
1733404608414677500,1.721677490234375,-0.6708469390869141,0.32546108961105347,-0.763130784034729
1733404608424687000,1.73168701171875,-1.109736442565918,0.46083134412765503,-0.7129719853401184
1733404608434666500,1.74166650390625,-1.4595975875854492,0.619642436504364,-0.6828110814094543
1733404608444676000,1.751676025390625,-1.5804872512817383,0.6486616730690002,-0.5862606167793274
1733404608454686000,1.76168603515625,-1.4247159957885742,0.5755488872528076,-0.4441593885421753
1733404608464665300,1.771665283203125,-0.9783802032470703,0.45611655712127686,-0.23339760303497314
1733404608474675000,1.781675048828125,-0.47678375244140625,0.3412584066390991,-0.05610072612762451
1733404608484684800,1.791684814453125,0.16531848907470703,0.3218597173690796,0.15516561269760132
1733404608494664200,1.801664306640625,0.7850656509399414,0.3362346887588501,0.3123840093612671
1733404608504673800,1.811673828125,1.3209686279296875,0.42074906826019287,0.4704487919807434
1733404608514683600,1.82168359375,1.7569818496704102,0.5611376762390137,0.4113478660583496
1733404608524662800,1.831662841796875,1.8756771087646484,0.7230398654937744,0.39088428020477295
1733404608534672400,1.84167236328125,1.842254638671875,0.8696381449699402,0.40185511112213135
1733404608544682200,1.85168212890625,1.4964580535888672,0.9916950464248657,0.3775809407234192
1733404608554692000,1.861692138671875,0.927393913269043,1.007019281387329,0.32649195194244385
1733404608564671200,1.871671142578125,0.2921762466430664,1.0881774425506592,0.35136812925338745
1733404608574681000,1.88168115234375,-0.3138236999511719,1.0973639488220215,0.30937767028808594
1733404608584691000,1.89169091796875,-0.7185487747192383,1.0127497911453247,0.25649577379226685
1733404608594670000,1.901670166015625,-0.991485595703125,0.9324477910995483,0.2282000184059143
1733404608604680000,1.911679931640625,-1.1306114196777344,0.8290996551513672,0.2501838803291321
1733404608614689500,1.921689453125,-1.234354019165039,0.667889416217804,0.28741633892059326
1733404608624668700,1.931668701171875,-1.2887992858886719,0.5475565791130066,0.2645360231399536
1733404608634678500,1.941678466796875,-1.2623615264892578,0.47569453716278076,0.23695307970046997
1733404608644688400,1.9516884765625,-1.1922836303710938,0.31948840618133545,0.2857438921928406
1733404608654667500,1.96166748046875,-1.1499414443969727,0.3043060302734375,0.3367786407470703
1733404608664677400,1.971677490234375,-1.1559410095214844,0.29401063919067383,0.371415376663208
1733404608674687200,1.981687255859375,-1.2193975448608398,0.30015718936920166,0.42323288321495056
1733404608684666600,1.99166650390625,-1.1431827545166016,0.2924607992172241,0.42149433493614197
1733404608694676200,2.00167626953125,-0.9553794860839844,0.33019816875457764,0.5036255717277527
1733404608704686000,2.01168603515625,-0.6449432373046875,0.4412531852722168,0.5607428550720215
1733404608714665200,2.021665283203125,-0.4002370834350586,0.48819589614868164,0.5642456412315369
1733404608724674800,2.0316748046875,-0.10055160522460938,0.47720491886138916,0.47411593794822693
1733404608734684700,2.0416845703125,0.16321945190429688,0.4771155118942261,0.41004830598831177
1733404608744664000,2.0516640625,0.3845815658569336,0.5346853733062744,0.3380715250968933
1733404608754673700,2.061673583984375,0.3652162551879883,0.6117652654647827,0.19897997379302979
1733404608764683500,2.07168359375,0.1867513656616211,0.7143052816390991,0.16303867101669312
1733404608774663000,2.081662841796875,-0.0217132568359375,0.6896202564239502,0.15180134773254395
1733404608784672500,2.091672607421875,-0.10789203643798828,0.620269775390625,0.1648985743522644
1733404608794682400,2.101682373046875,0.056975364685058594,0.5237518548965454,0.2474331557750702
1733404608804692200,2.111692138671875,0.5128145217895508,0.40943121910095215,0.22921106219291687
1733404608814671400,2.12167138671875,1.141474723815918,0.36126708984375,0.18931856751441956
1733404608824681200,2.13168115234375,1.612757682800293,0.3037773370742798,0.2040783166885376
1733404608834690800,2.14169091796875,2.08270263671875,0.4300670623779297,0.05496782064437866
1733404608844670000,2.151669921875,2.19260311126709,0.5239307880401611,0.013591885566711426
1733404608854679800,2.1616796875,1.8109970092773438,0.5648595094680786,-0.044201403856277466
1733404608864689700,2.171689697265625,1.2660179138183594,0.6383563280105591,-0.0008668005466461182
1733404608874669000,2.1816689453125,0.5884523391723633,0.6753627061843872,-0.04602167010307312
1733404608884678700,2.1916787109375,0.043419837951660156,0.646037220954895,-0.12801608443260193
1733404608894688500,2.2016884765625,-0.34116172790527344,0.5792500972747803,-0.03092089295387268
1733404608904667600,2.211667724609375,-0.3000812530517578,0.34391701221466064,0.03920450806617737
1733404608914677500,2.221677490234375,-0.0027379989624023438,0.1704927682876587,-0.0870141088962555
1733404608924687400,2.231687255859375,0.5609111785888672,-0.05931723117828369,-0.12699490785598755
1733404608934666500,2.24166650390625,1.1301774978637695,-0.42594921588897705,0.04423534870147705
1733404608944676000,2.251676025390625,1.6385822296142578,-0.8914715051651001,0.06153169274330139
1733404608954686000,2.26168603515625,2.017183303833008,-1.3629224300384521,0.04172828793525696
1733404608964665000,2.2716650390625,2.388291358947754,-1.779345989227295,0.0987294465303421
1733404608974675000,2.281675048828125,2.709080696105957,-2.0965352058410645,0.0662272572517395
1733404608984684800,2.291684814453125,3.1496105194091797,-2.4538679122924805,0.19272932410240173
1733404608994664200,2.301664306640625,3.520872116088867,-2.6006832122802734,0.33029118180274963
1733404609004673800,2.311673828125,3.8685903549194336,-2.76139760017395,0.4539445638656616
1733404609014683600,2.32168359375,4.0568084716796875,-2.80539870262146,0.6069273948669434
1733404609024662800,2.331662841796875,3.932729721069336,-2.786182165145874,0.7120825052261353
1733404609034672400,2.34167236328125,3.5064830780029297,-2.5758533477783203,0.7051988244056702
1733404609044682200,2.35168212890625,2.8670740127563477,-2.344233989715576,0.9027142524719238
1733404609054692000,2.361692138671875,1.821004867553711,-1.9061168432235718,1.0717124938964844
1733404609064671500,2.37167138671875,0.7240886688232422,-1.5774450302124023,1.1213468313217163
1733404609074681000,2.38168115234375,-0.41800403594970703,-1.2945195436477661,1.1869869232177734
1733404609084691000,2.39169091796875,-1.399714469909668,-1.1567869186401367,1.2957828044891357
1733404609094670000,2.401670166015625,-2.3752665519714355,-1.241917371749878,1.630859375
1733404609104680000,2.411679931640625,-2.8596549034118652,-1.484962821006775,2.0742695331573486
1733404609114689500,2.421689453125,-3.3713226318359375,-1.6051642894744873,2.1296863555908203
1733404609124669000,2.4316689453125,-3.473304271697998,-1.8977892398834229,2.3092310428619385
1733404609134678500,2.441678466796875,-3.452956199645996,-2.0602736473083496,2.3260507583618164
1733404609144688400,2.4516884765625,-3.182572364807129,-2.1386311054229736,2.184467315673828
1733404609154667800,2.461667724609375,-2.7939276695251465,-2.1756222248077393,2.1041011810302734
1733404609164677400,2.471677490234375,-2.253304958343506,-2.2203292846679688,1.9094719886779785
1733404609174687200,2.481687255859375,-1.4791584014892578,-2.218737840652466,1.8041541576385498
1733404609184666600,2.49166650390625,-0.3681154251098633,-2.189302444458008,1.6673612594604492
1733404609194676200,2.50167626953125,0.5755405426025391,-2.0949528217315674,1.431704044342041
1733404609204685800,2.511685791015625,1.3817815780639648,-1.8903969526290894,1.254520058631897
1733404609214665200,2.521665283203125,1.9304389953613281,-1.6711536645889282,1.0922715663909912
1733404609224674800,2.5316748046875,2.255931854248047,-1.4223473072052002,0.8550890684127808
1733404609234684700,2.5416845703125,2.037900924682617,-1.1623338460922241,0.5854857563972473
1733404609244664000,2.5516640625,1.3834409713745117,-0.8700845837593079,0.3441672623157501
1733404609254673700,2.561673583984375,0.45944881439208984,-0.62235426902771,0.3039158582687378
1733404609264683500,2.57168359375,-0.2687807083129883,-0.43511176109313965,0.2895883619785309
1733404609274663000,2.581662841796875,-0.9594039916992188,-0.3404608964920044,0.22819916903972626
1733404609284672500,2.591672607421875,-1.2922563552856445,-0.3393505811691284,0.2815856337547302
1733404609294682400,2.601682373046875,-1.5507888793945312,-0.3018382787704468,0.373090535402298
1733404609304692200,2.611692138671875,-1.73097562789917,-0.29862427711486816,0.43315279483795166
1733404609314671400,2.62167138671875,-1.930159568786621,-0.3480786085128784,0.6102105975151062
1733404609324681200,2.63168115234375,-2.0647311210632324,-0.4279818534851074,0.7113850712776184
1733404609334690800,2.64169091796875,-2.211467742919922,-0.40104711055755615,0.7509833574295044
1733404609344670000,2.651669921875,-2.4948196411132812,-0.3801525831222534,0.8389078378677368
1733404609354679800,2.6616796875,-2.661487579345703,-0.35305988788604736,0.8609200119972229
1733404609364689700,2.671689697265625,-2.582437515258789,-0.3039054870605469,0.8419982194900513
1733404609374668800,2.681668701171875,-2.214911460876465,-0.24778950214385986,0.8850337266921997
1733404609384678700,2.6916787109375,-1.6548714637756348,-0.2609081268310547,0.9065608978271484
1733404609394688500,2.7016884765625,-1.129598617553711,-0.34223079681396484,0.8615584373474121
1733404609404668000,2.71166796875,-0.5908651351928711,-0.40514612197875977,0.8545334339141846
1733404609414677500,2.721677490234375,-0.06712532043457031,-0.43676602840423584,0.8396502733230591
1733404609424687000,2.73168701171875,0.4492511749267578,-0.4146862030029297,0.7598281502723694
1733404609434666500,2.74166650390625,0.8058652877807617,-0.3911757469177246,0.7852261662483215
1733404609444676000,2.751676025390625,0.934117317199707,-0.2594296932220459,0.6527982950210571
1733404609454686000,2.76168603515625,0.8719406127929688,-0.056499600410461426,0.521371066570282
1733404609464665300,2.771665283203125,0.6596918106079102,0.14049220085144043,0.32859551906585693
1733404609474675000,2.781675048828125,0.44199562072753906,0.25711917877197266,0.21330170333385468
1733404609484684800,2.791684814453125,0.37284374237060547,0.26363611221313477,0.22566114366054535
1733404609494664200,2.801664306640625,0.370849609375,0.25761663913726807,0.17919589579105377
1733404609504673800,2.811673828125,0.34917354583740234,0.19537615776062012,0.20695024728775024
1733404609514683600,2.82168359375,0.5014915466308594,0.08287465572357178,0.3065202236175537
1733404609524662800,2.831662841796875,0.9893426895141602,-0.10233962535858154,0.3745970129966736
1733404609534672400,2.84167236328125,1.773045539855957,-0.3454411029815674,0.4068329632282257
1733404609544682200,2.85168212890625,2.833226203918457,-0.42010629177093506,0.2469615638256073
1733404609554692000,2.861692138671875,3.995870590209961,-0.1749652624130249,-0.020052313804626465
1733404609564671200,2.871671142578125,4.539179801940918,-0.048569560050964355,-0.39040201902389526
1733404609574681000,2.88168115234375,4.157318115234375,-0.06224644184112549,-0.5253581404685974
1733404609584691000,2.89169091796875,3.29058837890625,0.03358340263366699,-0.8543321490287781
1733404609594670000,2.901670166015625,2.3382511138916016,0.060613393783569336,-1.2340545654296875
1733404609604680000,2.911679931640625,1.4308786392211914,0.2302088737487793,-1.4360101222991943
1733404609614689500,2.921689453125,0.6699314117431641,0.36042773723602295,-1.5537341833114624
1733404609624668700,2.931668701171875,-0.07037353515625,0.3869948387145996,-1.4003475904464722
1733404609634678500,2.941678466796875,-0.6406850814819336,-0.14185822010040283,-0.5879172682762146
1733404609644688400,2.9516884765625,-0.3791942596435547,-0.9920743703842163,0.04414323717355728
1733404609654667500,2.96166748046875,0.5830144882202148,-2.0366933345794678,-0.05632781982421875
1733404609664677400,2.971677490234375,2.591096878051758,-3.155177593231201,-0.05320508033037186
1733404609674687200,2.981687255859375,4.732248306274414,-3.7324562072753906,-0.015795134007930756
1733404609684666600,2.99166650390625,5.882748603820801,-3.8085527420043945,-0.25766992568969727
1733404609694676200,3.00167626953125,5.884288787841797,-3.204035758972168,-0.974899411201477
1733404609704686000,3.01168603515625,4.694331169128418,-2.474503517150879,-1.7026722431182861
1733404609714665200,3.021665283203125,1.9199256896972656,-2.0742695331573486,-1.8143153190612793
1733404609724675000,3.031675048828125,-1.1810111999511719,-1.8640813827514648,-1.739751935005188
1733404609734684700,3.0416845703125,-4.507016658782959,-1.5139598846435547,-1.961419939994812
1733404609744664000,3.0516640625,-6.976426124572754,-1.2509987354278564,-1.6809343099594116
1733404609754673700,3.061673583984375,-8.84887981414795,-0.8542242050170898,-1.374204158782959
1733404609764683500,3.07168359375,-9.463363647460938,-0.7126674652099609,-0.8496866822242737
1733404609774663000,3.081662841796875,-8.69589614868164,-0.9654473066329956,-0.5125352144241333
1733404609784672500,3.091672607421875,-6.445833683013916,-1.51559579372406,-0.2997034788131714
1733404609794682400,3.101682373046875,-3.9161224365234375,-2.05592679977417,-0.23034638166427612
1733404609804692200,3.111692138671875,-0.8942594528198242,-2.4072036743164062,-0.5792950391769409
1733404609814671400,3.12167138671875,1.465834617614746,-2.5131070613861084,-0.9888656139373779
1733404609824681200,3.13168115234375,3.5072879791259766,-2.372795820236206,-1.2823652029037476
1733404609834690800,3.14169091796875,4.568170547485352,-2.1791744232177734,-1.28738272190094
1733404609844670000,3.151669921875,4.607189178466797,-1.9888972043991089,-1.2205893993377686
1733404609854679800,3.1616796875,3.5869197845458984,-1.6498361825942993,-1.1207787990570068
1733404609864689700,3.171689697265625,1.9781713485717773,-1.1765720844268799,-0.9637959003448486
1733404609874669000,3.1816689453125,0.6335554122924805,-0.7593313455581665,-0.8724368214607239
1733404609884678700,3.1916787109375,-0.46430206298828125,-0.32943999767303467,-0.9177783131599426
1733404609894688500,3.2016884765625,-1.1975584030151367,-0.0462496280670166,-0.9463959336280823
1733404609904667600,3.211667724609375,-1.5456247329711914,0.06446361541748047,-1.01715886592865
1733404609914677500,3.221677490234375,-1.7842679023742676,0.1511068344116211,-1.0870301723480225
1733404609924687400,3.231687255859375,-1.8730134963989258,0.09012901782989502,-1.1159257888793945
1733404609934666500,3.24166650390625,-1.750922679901123,-0.016137003898620605,-1.2087751626968384
1733404609944676000,3.251676025390625,-1.7768306732177734,0.05096578598022461,-1.2026406526565552
1733404609954686000,3.26168603515625,-1.981764793395996,0.1398526430130005,-1.017563819885254
1733404609964665000,3.2716650390625,-2.215301990509033,0.04165148735046387,-0.9975625276565552
1733404609974675000,3.281675048828125,-2.2771077156066895,-0.03881955146789551,-1.0292737483978271
1733404609984684800,3.291684814453125,-2.1749658584594727,-0.0482635498046875,-1.020637035369873
1733404609994664200,3.301664306640625,-2.0434961318969727,0.06168246269226074,-1.1310824155807495
1733404610004673800,3.311673828125,-1.9953088760375977,0.10951113700866699,-1.2338680028915405
1733404610014683600,3.32168359375,-1.8827319145202637,0.1223459243774414,-1.2265585660934448
1733404610024662800,3.331662841796875,-1.7430481910705566,0.0854654312133789,-1.2807246446609497
1733404610034672400,3.34167236328125,-1.3174009323120117,-0.031235098838806152,-1.191988468170166
1733404610044682200,3.35168212890625,-0.7301454544067383,-0.12521278858184814,-1.212435245513916
1733404610054692000,3.361692138671875,-0.1146402359008789,-0.2073204517364502,-1.0006773471832275
1733404610064671500,3.37167138671875,0.5250005722045898,-0.21420025825500488,-0.8117618560791016
1733404610074681000,3.38168115234375,0.7011785507202148,-0.1405266523361206,-0.7878732085227966
1733404610084691000,3.39169091796875,0.576934814453125,-0.09849369525909424,-0.6082755327224731
1733404610094670000,3.401670166015625,0.3582134246826172,-0.11814606189727783,-0.4047372341156006
1733404610104680000,3.411679931640625,0.24655628204345703,-0.1993025541305542,0.18622031807899475
1733404610114689500,3.421689453125,0.4240741729736328,-0.286718487739563,0.5241582989692688
1733404610124669000,3.4316689453125,0.9639959335327148,-0.3041428327560425,0.5173450708389282
1733404610134678500,3.441678466796875,2.0179691314697266,-0.3479264974594116,0.40393584966659546
1733404610144688400,3.4516884765625,3.1611881256103516,-0.3627718687057495,0.3844672441482544
1733404610154667800,3.461667724609375,4.114702224731445,-0.5174816846847534,0.8007529973983765
1733404610164677400,3.471677490234375,4.604954719543457,-0.5931423902511597,0.9483665823936462
1733404610174687200,3.481687255859375,4.941407203674316,-0.5010891556739807,0.9166135191917419
1733404610184666600,3.49166650390625,4.903973579406738,-0.39937150478363037,0.7163150310516357
1733404610194676200,3.50167626953125,4.411399841308594,-0.25196337699890137,0.38008666038513184
1733404610204685800,3.511685791015625,3.492262840270996,-0.2240443229675293,0.14641934633255005
1733404610214665200,3.521665283203125,2.4504356384277344,-0.47279107570648193,0.0986746996641159
1733404610224675000,3.531675048828125,1.4121332168579102,-1.060366153717041,0.1283876597881317
1733404610234684700,3.5416845703125,0.9984035491943359,-1.9281302690505981,0.14084285497665405
1733404610244664000,3.5516640625,1.6175031661987305,-2.6533877849578857,-0.02223777025938034
1733404610254673700,3.561673583984375,2.500944137573242,-3.0519587993621826,-0.3485875725746155
1733404610264683500,3.57168359375,3.123241424560547,-3.2621397972106934,-0.4388524293899536
1733404610274663000,3.581662841796875,3.0095977783203125,-3.1168649196624756,-0.20487478375434875
1733404610284672500,3.591672607421875,1.955460548400879,-2.7293972969055176,0.12356880307197571
1733404610294682400,3.601682373046875,0.43091583251953125,-2.3803560733795166,0.5182702541351318
1733404610304692200,3.611692138671875,-1.5232019424438477,-1.977298378944397,0.8005256652832031
1733404610314671400,3.62167138671875,-2.978017807006836,-1.643545150756836,1.1118558645248413
1733404610324681200,3.63168115234375,-4.288379669189453,-1.2742308378219604,1.3521157503128052
1733404610334690800,3.64169091796875,-5.058653354644775,-1.0434541702270508,1.3106169700622559
1733404610344670000,3.651669921875,-5.111088275909424,-1.0501410961151123,1.422825813293457
1733404610354679800,3.6616796875,-4.452198028564453,-1.305695652961731,1.1693581342697144
1733404610364689700,3.671689697265625,-3.3364410400390625,-1.7524901628494263,0.954282820224762
1733404610374668800,3.681668701171875,-1.758488655090332,-2.0338799953460693,0.48671722412109375
1733404610384678700,3.6916787109375,-0.23510360717773438,-2.0664360523223877,0.18581561744213104
1733404610394688500,3.7016884765625,1.0530567169189453,-1.9899189472198486,-0.05864939093589783
1733404610404667600,3.711667724609375,1.7102384567260742,-1.8310537338256836,-0.3087262511253357
1733404610414677500,3.721677490234375,1.740260124206543,-1.5611685514450073,-0.3829337954521179
1733404610424687400,3.731687255859375,1.1746368408203125,-1.1961252689361572,-0.49073368310928345
1733404610434666500,3.74166650390625,0.4999074935913086,-0.7655683159828186,-0.5038543343544006
1733404610444676000,3.751676025390625,-0.2716989517211914,-0.4338853359222412,-0.44786208868026733
1733404610454686000,3.76168603515625,-0.8454790115356445,-0.1944197416305542,-0.49451565742492676
1733404610464665000,3.7716650390625,-1.2513952255249023,-0.057715535163879395,-0.3878058195114136
1733404610474675000,3.781675048828125,-1.5355453491210938,-0.1230088472366333,-0.07600036263465881
1733404610484684800,3.791684814453125,-1.748560905456543,-0.16069412231445312,0.1822628676891327
1733404610494664200,3.801664306640625,-1.8758716583251953,-0.21251487731933594,0.39383983612060547
1733404610504673800,3.811673828125,-1.9966788291931152,-0.30333828926086426,0.7401576042175293
1733404610514683600,3.82168359375,-1.984023094177246,-0.3420363664627075,0.8852163553237915
1733404610524662800,3.831662841796875,-1.9120674133300781,-0.299938440322876,0.8887599110603333
1733404610534672400,3.84167236328125,-1.7999138832092285,-0.25584959983825684,0.9122525453567505
1733404610544682200,3.85168212890625,-1.7404260635375977,-0.14372360706329346,0.9585288763046265
1733404610554692000,3.861692138671875,-1.6832637786865234,-0.07914113998413086,1.0587563514709473
1733404610564671500,3.87167138671875,-1.5542716979980469,-0.05714917182922363,1.1511659622192383
1733404610574681000,3.88168115234375,-1.3992586135864258,-0.03072655200958252,1.2618169784545898
1733404610584691000,3.89169091796875,-1.1538162231445312,-0.06840074062347412,1.2802691459655762
1733404610594670000,3.901670166015625,-0.7247629165649414,-0.07336890697479248,1.1866466999053955
1733404610604680000,3.911679931640625,-0.28223609924316406,-0.06361818313598633,1.091756820678711
1733404610614689500,3.921689453125,0.19361209869384766,0.03091728687286377,0.848322868347168
1733404610624669000,3.9316689453125,0.4756641387939453,0.06508457660675049,0.6430066823959351
1733404610634678500,3.941678466796875,0.5550632476806641,0.17641210556030273,0.4950283169746399
1733404610644688400,3.9516884765625,0.4131784439086914,0.2998795509338379,0.39843374490737915
1733404610654667800,3.961667724609375,0.12679195404052734,0.44178032875061035,0.3566596508026123
1733404610664677400,3.971677490234375,-0.20650005340576172,0.4950690269470215,0.29092392325401306
1733404610674687200,3.981687255859375,-0.42441844940185547,0.485371470451355,0.2071503847837448
1733404610684666600,3.99166650390625,-0.38422393798828125,0.4453306198120117,0.12343932688236237
1733404610694676200,4.00167626953125,-0.11055183410644531,0.2430042028427124,0.10248944163322449
1733404610704685800,4.011685791015625,0.5829191207885742,0.048583149909973145,0.11982962489128113
1733404610714665200,4.021665283203125,1.4899005889892578,-0.2305845022201538,0.21311989426612854
1733404610724675000,4.031675048828125,2.594008445739746,-0.39867091178894043,0.13179799914360046
1733404610734684700,4.0416845703125,3.42425537109375,-0.4004408121109009,-0.0525377094745636
1733404610744664000,4.0516640625,3.8186769485473633,-0.17014694213867188,-0.5456402897834778
1733404610754673700,4.061673583984375,3.7432327270507812,-0.015887022018432617,-1.1681029796600342
1733404610764683500,4.07168359375,3.2147951126098633,0.09080374240875244,-1.4101547002792358
1733404610774663000,4.081662841796875,2.592442512512207,0.44931864738464355,-1.5857884883880615
1733404610784672500,4.091672607421875,1.9833316802978516,0.6311354637145996,-1.6645026206970215
1733404610794682400,4.101682373046875,1.2096004486083984,0.4194796085357666,-1.5684863328933716
1733404610804661800,4.111661865234375,0.8449802398681641,-0.26992785930633545,-1.131733775138855
1733404610814671400,4.12167138671875,1.098912239074707,-1.6463205814361572,-0.43933141231536865
1733404610824681200,4.13168115234375,2.0882644653320312,-3.240574836730957,0.13332805037498474
1733404610834690800,4.14169091796875,3.91475772857666,-4.6577935218811035,0.260724812746048
1733404610844670000,4.151669921875,5.860928535461426,-5.058565139770508,-0.18596546351909637
1733404610854679800,4.1616796875,7.598882675170898,-4.575711727142334,-0.891960084438324
1733404610864689700,4.171689697265625,7.55601692199707,-3.6197333335876465,-1.47584867477417
1733404610874668800,4.181668701171875,5.541098594665527,-2.876270294189453,-1.8573881387710571
1733404610884678700,4.1916787109375,2.2188796997070312,-2.2341952323913574,-1.9485576152801514
1733404610894688500,4.2016884765625,-0.8315362930297852,-1.9967118501663208,-1.4618511199951172
1733404610904667600,4.211667724609375,-4.2224602699279785,-1.6880536079406738,-0.7928275465965271
1733404610914677500,4.221677490234375,-6.7186737060546875,-1.5441631078720093,-0.737296462059021
1733404610924687400,4.231687255859375,-8.479500770568848,-1.7629696130752563,-0.9773502349853516
1733404610934666500,4.24166650390625,-8.777573585510254,-1.092869758605957,-0.005518734455108643
1733404610944676000,4.251676025390625,-7.301142692565918,-1.646795630455017,0.7277975082397461
1733404610954686000,4.26168603515625,-5.423341274261475,-1.8013031482696533,0.7306967377662659
1733404610964665000,4.2716650390625,-3.247591972351074,-1.950704574584961,0.6930398941040039
1733404610974675000,4.281675048828125,-1.4037704467773438,-1.9650123119354248,0.5812024474143982
1733404610984684800,4.291684814453125,-0.15994644165039062,-1.8861082792282104,0.40769386291503906
1733404610994664200,4.301664306640625,0.9056568145751953,-1.8747437000274658,0.42791444063186646
1733404611004673800,4.311673828125,1.4377241134643555,-1.736828088760376,0.3619110882282257
1733404611014683600,4.32168359375,1.676300048828125,-1.4332420825958252,0.2415538877248764
1733404611024662800,4.331662841796875,1.5991096496582031,-1.0957202911376953,0.1082531213760376
1733404611034672400,4.34167236328125,1.1394281387329102,-0.8198027610778809,-0.039193615317344666
1733404611044682200,4.35168212890625,0.45882701873779297,-0.6168776750564575,-0.10701192170381546
1733404611054692000,4.361692138671875,-0.3860759735107422,-0.4005861282348633,-0.08136340230703354
1733404611064671500,4.37167138671875,-1.0547027587890625,-0.20009613037109375,-0.1265016794204712
1733404611074681000,4.38168115234375,-1.7128982543945312,-0.005425572395324707,-0.13275916874408722
1733404611084691000,4.39169091796875,-2.0907201766967773,0.07079815864562988,-0.08629345148801804
1733404611094670000,4.401670166015625,-2.131303310394287,0.15267610549926758,-0.0681394636631012
1733404611104680000,4.411679931640625,-2.052824020385742,0.19917750358581543,-0.10436367988586426
1733404611114689500,4.421689453125,-1.9706001281738281,0.19131982326507568,-0.13802284002304077
1733404611124669000,4.4316689453125,-1.7621140480041504,0.14024782180786133,-0.16815781593322754
1733404611134678500,4.441678466796875,-1.549403190612793,0.10043621063232422,-0.2977716028690338
1733404611144688400,4.4516884765625,-1.3059511184692383,0.0034683942794799805,-0.4242713451385498
1733404611154667800,4.461667724609375,-1.017258644104004,-0.027159810066223145,-0.5547909140586853
1733404611164677400,4.471677490234375,-0.6617231369018555,-0.07562386989593506,-0.6632486581802368
1733404611174687200,4.481687255859375,-0.39239025115966797,-0.11930668354034424,-0.7622668743133545
1733404611184666600,4.49166650390625,-0.11094951629638672,-0.1409093141555786,-0.8326983451843262
1733404611194676200,4.50167626953125,0.029552459716796875,-0.07754373550415039,-0.767916738986969
1733404611204685800,4.511685791015625,0.0824594497680664,0.0067632198333740234,-0.5489180088043213
1733404611214665200,4.521665283203125,0.041581153869628906,0.12499833106994629,-0.33340975642204285
1733404611224675000,4.531675048828125,-0.031078338623046875,0.16582787036895752,-0.1932695209980011
1733404611234684700,4.5416845703125,0.0033245086669921875,0.17950177192687988,-0.00880846381187439
1733404611244664000,4.5516640625,0.19624996185302734,0.03103053569793701,0.18038539588451385
1733404611254673700,4.561673583984375,0.4904623031616211,-0.16645145416259766,0.3664337992668152
1733404611264683500,4.57168359375,0.928044319152832,-0.2896909713745117,0.48810434341430664
1733404611274663000,4.581662841796875,1.6723928451538086,-0.41866403818130493,0.4799138009548187
1733404611284672500,4.591672607421875,2.32794189453125,-0.5048311352729797,0.4461459517478943
1733404611294682400,4.601682373046875,2.968817710876465,-0.6606909036636353,0.4647156596183777
1733404611304692200,4.611692138671875,3.2937049865722656,-0.9226324558258057,0.7590796947479248
1733404611314671400,4.62167138671875,3.506298065185547,-1.0051778554916382,1.077747106552124
1733404611324681200,4.63168115234375,3.922671318054199,-0.7670758962631226,1.2724031209945679
1733404611334690800,4.64169091796875,4.274589538574219,-0.43248969316482544,1.2697746753692627
1733404611344670000,4.651669921875,4.368481636047363,0.013886332511901855,1.0655193328857422
1733404611354679800,4.6616796875,4.027596473693848,0.12615370750427246,1.0303819179534912
1733404611364689700,4.671689697265625,3.390835762023926,-0.38617652654647827,1.2504949569702148
1733404611374668800,4.681668701171875,2.994107246398926,-1.4390610456466675,1.40073561668396
1733404611384678700,4.6916787109375,3.0475778579711914,-2.643101453781128,0.8726391792297363
1733404611394688500,4.7016884765625,3.6084814071655273,-3.309451103210449,-0.09132282435894012
1733404611404667600,4.711667724609375,4.030865669250488,-3.6550092697143555,-0.683184027671814
1733404611414677500,4.721677490234375,3.589740753173828,-3.44950532913208,-0.5879797339439392
1733404611424687400,4.731687255859375,2.405977249145508,-3.286876678466797,-0.12956790626049042
1733404611434666500,4.74166650390625,0.32276439666748047,-3.0404882431030273,0.49756547808647156
1733404611444676000,4.751676025390625,-1.9170522689819336,-2.750765323638916,1.0829308032989502
1733404611454686000,4.76168603515625,-4.278426170349121,-2.334974765777588,1.6928075551986694
1733404611464665000,4.7716650390625,-6.066673278808594,-1.8487967252731323,1.9483392238616943
1733404611474675000,4.781675048828125,-7.350351333618164,-1.432559609413147,2.1939847469329834
1733404611484684800,4.791684814453125,-7.714044570922852,-1.3559255599975586,2.493828535079956
1733404611494664200,4.801664306640625,-6.92440128326416,-1.5663836002349854,2.3780369758605957
1733404611504673800,4.811673828125,-5.327884197235107,-1.956365704536438,1.6859649419784546
1733404611514683600,4.82168359375,-3.0166730880737305,-2.3161115646362305,1.1071912050247192
1733404611524662800,4.831662841796875,-0.6454048156738281,-2.3438241481781006,0.6541601419448853
1733404611534672400,4.84167236328125,1.2155284881591797,-2.2347850799560547,0.09123757481575012
1733404611544682200,4.85168212890625,2.746074676513672,-2.0894575119018555,-0.4398282766342163
1733404611554692000,4.861692138671875,3.402655601501465,-1.9307548999786377,-0.6867601275444031
1733404611564671500,4.87167138671875,3.415731430053711,-1.6079975366592407,-0.847368597984314
1733404611574681000,4.88168115234375,2.8499584197998047,-1.27957284450531,-0.7906990647315979
1733404611584691000,4.89169091796875,1.7728157043457031,-0.9193597435951233,-0.4953635632991791
1733404611594670000,4.901670166015625,0.7049160003662109,-0.5917955040931702,-0.2924867570400238
1733404611604680000,4.911679931640625,-0.3129539489746094,-0.29366207122802734,-0.0916033387184143
1733404611614689500,4.921689453125,-0.9921627044677734,-0.13235771656036377,0.10624158382415771
1733404611624669000,4.9316689453125,-1.4867706298828125,-0.061698317527770996,0.38073161244392395
1733404611634678500,4.941678466796875,-1.857154369354248,-0.07783114910125732,0.5769976377487183
1733404611644688400,4.9516884765625,-2.1467771530151367,-0.09931528568267822,0.6330386400222778
1733404611654667800,4.961667724609375,-2.460193634033203,-0.15168464183807373,0.7327892780303955
1733404611664677400,4.971677490234375,-2.7090988159179688,-0.25725114345550537,0.7849268913269043
1733404611674687200,4.981687255859375,-2.9223718643188477,-0.36942505836486816,0.8955119848251343
1733404611684666600,4.99166650390625,-2.8536291122436523,-0.3621549606323242,0.9408986568450928
1733404611694676200,5.00167626953125,-2.5773301124572754,-0.3437291383743286,1.051687240600586
1733404611704685800,5.011685791015625,-2.2233591079711914,-0.3322031497955322,1.126072883605957
1733404611714665200,5.021665283203125,-1.9707627296447754,-0.3040121793746948,1.1503348350524902
1733404611724675000,5.031675048828125,-1.7236275672912598,-0.23236382007598877,1.1524152755737305
1733404611734684700,5.0416845703125,-1.4363937377929688,-0.12035107612609863,1.1985725164413452
1733404611744664000,5.0516640625,-1.1280889511108398,-0.02081286907196045,1.2259573936462402
1733404611754673700,5.061673583984375,-0.7672233581542969,0.021961331367492676,1.149532437324524
1733404611764683500,5.07168359375,-0.3848400115966797,0.09882569313049316,1.0901520252227783
1733404611774663000,5.081662841796875,0.12680435180664062,0.22835063934326172,1.0844002962112427
1733404611784672500,5.091672607421875,0.7564840316772461,0.41104745864868164,0.8758490681648254
1733404611794682400,5.101682373046875,1.0801496505737305,0.4351949691772461,0.5489144325256348
1733404611804692200,5.111692138671875,1.0442895889282227,0.40117883682250977,0.5074890851974487
1733404611814671400,5.12167138671875,0.8347940444946289,0.3342721462249756,0.34054651856422424
1733404611824681200,5.13168115234375,0.6257953643798828,0.1721571683883667,0.3786489963531494
1733404611834690800,5.14169091796875,0.666895866394043,-0.010605692863464355,0.43838566541671753
1733404611844670000,5.151669921875,1.207392692565918,-0.35160601139068604,0.3916911780834198
1733404611854679800,5.1616796875,2.214885711669922,-0.6686422824859619,0.22435340285301208
1733404611864689700,5.171689697265625,3.4316940307617188,-0.7002000212669373,0.02924671769142151
1733404611874668800,5.181668701171875,4.631186485290527,-0.4266672134399414,-0.537089467048645
1733404611884678700,5.1916787109375,5.30734920501709,0.013896942138671875,-1.2520524263381958
1733404611894688500,5.2016884765625,5.303607940673828,0.39682531356811523,-1.9242206811904907
1733404611904667600,5.211667724609375,4.515605926513672,0.5496764183044434,-2.0959832668304443
1733404611914677500,5.221677490234375,3.422184944152832,0.8557955026626587,-2.1512365341186523
1733404611924687400,5.231687255859375,2.6597347259521484,1.129342794418335,-2.330577850341797
1733404611934666500,5.24166650390625,1.9236211776733398,0.9778740406036377,-2.5591483116149902
1733404611944676000,5.251676025390625,1.3561487197875977,0.33796048164367676,-2.6903727054595947
1733404611954686000,5.26168603515625,1.245920181274414,-1.1688215732574463,-2.288954019546509
1733404611964665000,5.2716650390625,1.8075876235961914,-3.233325719833374,-1.4620873928070068
1733404611974675000,5.281675048828125,2.9116735458374023,-4.848328590393066,-0.7687317728996277
1733404611984684800,5.291684814453125,4.6353044509887695,-5.8013200759887695,-0.5862644910812378
1733404611994664200,5.301664306640625,6.082329750061035,-5.66524076461792,-1.2329330444335938
1733404612004687000,5.31168701171875,6.349245071411133,-5.154550552368164,-2.2346954345703125
1733404612014683600,5.32168359375,5.036923408508301,-4.725180149078369,-2.698687791824341
1733404612024662800,5.331662841796875,2.559603691101074,-3.937734365463257,-2.626783609390259
1733404612034672400,5.34167236328125,-0.38214778900146484,-3.3814854621887207,-2.3194236755371094
1733404612044682200,5.35168212890625,-4.057883262634277,-2.9173202514648438,-1.801170825958252
1733404612054692000,5.361692138671875,-7.173555850982666,-2.4613306522369385,-1.127029538154602
1733404612064671500,5.37167138671875,-9.867971420288086,-1.9027070999145508,-0.3320613205432892
1733404612074894600,5.38189453125,-11.278803825378418,-1.5990350246429443,0.24534733593463898
1733404612084691000,5.39169091796875,-11.09708309173584,-1.614145040512085,0.46733587980270386
1733404612094670000,5.401670166015625,-8.830281257629395,-1.731224775314331,0.6890965104103088
1733404612104680000,5.411679931640625,-6.059121608734131,-1.8884344100952148,0.4213433861732483
1733404612114689500,5.421689453125,-2.712015151977539,-1.9958932399749756,-0.39350625872612
1733404612124669000,5.4316689453125,0.14347553253173828,-2.003657102584839,-0.9138578772544861
1733404612134678500,5.441678466796875,2.8527650833129883,-1.9273508787155151,-1.4865626096725464
1733404612144688400,5.4516884765625,4.479596138000488,-1.7961461544036865,-1.8068196773529053
1733404612154667800,5.461667724609375,5.064496040344238,-1.677566409111023,-1.9582291841506958
1733404612164677400,5.471677490234375,4.561801910400391,-1.566773533821106,-1.8505463600158691
1733404612174687200,5.481687255859375,3.1905059814453125,-1.361007809638977,-1.5429229736328125
1733404612184666600,5.49166650390625,1.375025749206543,-1.1530449390411377,-1.4123220443725586
1733404612194676200,5.50167626953125,-0.07737541198730469,-0.8947386741638184,-1.340709924697876
1733404612204685800,5.511685791015625,-1.1542625427246094,-0.6252707839012146,-1.1139881610870361
1733404612214665200,5.521665283203125,-1.6736798286437988,-0.49478065967559814,-0.9303002953529358
1733404612224675000,5.531675048828125,-1.8448138236999512,-0.34346628189086914,-0.7736040949821472
1733404612234684700,5.5416845703125,-1.8626394271850586,-0.2511664628982544,-0.7318564653396606
1733404612244664000,5.5516640625,-1.8763432502746582,-0.1757183074951172,-0.7708661556243896
1733404612254673700,5.561673583984375,-1.957601547241211,-0.1374950408935547,-0.772365391254425
1733404612264683500,5.57168359375,-1.9555625915527344,-0.1348285675048828,-0.775255024433136
1733404612274663000,5.581662841796875,-1.843912124633789,-0.20634281635284424,-0.7569066286087036
1733404612284672500,5.591672607421875,-1.7493948936462402,-0.26425647735595703,-0.7175623178482056
1733404612294682400,5.601682373046875,-1.6718173027038574,-0.2875332832336426,-0.7596774101257324
1733404612304692200,5.611692138671875,-1.5346317291259766,-0.30698084831237793,-0.7753114700317383
1733404612314671400,5.62167138671875,-1.2302656173706055,-0.32895004749298096,-0.7402227520942688
1733404612324681200,5.63168115234375,-0.8928604125976562,-0.3081505298614502,-0.7916820645332336
1733404612334690800,5.64169091796875,-0.5629405975341797,-0.19070112705230713,-0.8239442706108093
1733404612344670000,5.651669921875,-0.3168926239013672,-0.08240759372711182,-0.7985999584197998
1733404612354679800,5.6616796875,-0.21088695526123047,0.05125844478607178,-0.9096305966377258
1733404612364689700,5.671689697265625,-0.163421630859375,0.1450662612915039,-0.8765991926193237
1733404612374668800,5.681668701171875,-0.10299110412597656,0.08495676517486572,-0.6884759664535522
1733404612384678700,5.6916787109375,0.09175395965576172,0.08475112915039062,-0.41460713744163513
1733404612394688500,5.7016884765625,0.40596961975097656,-0.10785388946533203,-0.177290141582489
1733404612404667600,5.711667724609375,0.7893209457397461,-0.3457070589065552,0.025527313351631165
1733404612414677500,5.721677490234375,1.310506820678711,-0.5807819962501526,0.09983839094638824
1733404612424687400,5.731687255859375,2.146648406982422,-0.878602147102356,0.010913971811532974
1733404612434666500,5.74166650390625,2.9222517013549805,-0.931560754776001,-0.12445439398288727
1733404612444676000,5.751676025390625,3.647854804992676,-0.8056906461715698,-0.12991996109485626
1733404612454686000,5.76168603515625,3.941220283508301,-0.5954254269599915,0.1169118657708168
1733404612464665000,5.7716650390625,3.707071304321289,-0.4672843813896179,0.4667253792285919
1733404612474675000,5.781675048828125,3.3668365478515625,-0.40015625953674316,0.8631270527839661
1733404612484684800,5.791684814453125,3.1714401245117188,-0.062381625175476074,0.969434380531311
1733404612494664200,5.801664306640625,3.206418991088867,0.34755921363830566,0.7188096642494202
1733404612504673800,5.811673828125,3.2509384155273438,0.3350640535354614,0.681749701499939
1733404612514683600,5.82168359375,3.1322154998779297,-0.4128960371017456,0.7005065083503723
1733404612524662800,5.831662841796875,3.041982650756836,-1.598915696144104,0.7742967009544373
1733404612534672400,5.84167236328125,3.3919925689697266,-2.897406578063965,0.44089314341545105
1733404612544682200,5.85168212890625,4.000221252441406,-3.7458138465881348,-0.2599812150001526
1733404612554692000,5.861692138671875,4.708840370178223,-4.223426342010498,-0.8507299423217773
1733404612564671200,5.871671142578125,4.853219032287598,-4.1647443771362305,-0.642330527305603
1733404612574681000,5.88168115234375,3.8390159606933594,-3.8436689376831055,-0.17021018266677856
1733404612584691000,5.89169091796875,2.03958797454834,-3.5494484901428223,0.3560763895511627
1733404612594670000,5.901670166015625,-0.49578189849853516,-3.1224122047424316,0.9010229110717773
1733404612604680000,5.911679931640625,-2.742981433868408,-2.663724660873413,1.1407382488250732
1733404612614689500,5.921689453125,-4.998559474945068,-2.1522674560546875,1.2734169960021973
1733404612624669000,5.9316689453125,-6.616758823394775,-1.6714550256729126,1.6909456253051758
1733404612634678500,5.941678466796875,-7.304827690124512,-1.5810596942901611,1.8819624185562134
1733404612644688400,5.9516884765625,-7.2574615478515625,-1.638885259628296,1.8237870931625366
1733404612654667800,5.961667724609375,-6.274227142333984,-1.7834429740905762,1.5134516954421997
1733404612664677400,5.971677490234375,-4.6474409103393555,-1.998892903327942,1.0380734205245972
1733404612674687200,5.981687255859375,-2.90885591506958,-2.1558303833007812,0.7969977259635925
1733404612684666600,5.99166650390625,-0.9477519989013672,-2.0728161334991455,0.31900304555892944
1733404612694676200,6.00167626953125,0.5402565002441406,-1.8592908382415771,-0.16193397343158722
1733404612704686000,6.01168603515625,1.8569307327270508,-1.674978494644165,-0.6137698888778687
1733404612714665200,6.021665283203125,2.4779272079467773,-1.4593191146850586,-0.8842055797576904
1733404612724675000,6.031675048828125,2.42559814453125,-1.241456389427185,-1.033916711807251
1733404612734684700,6.0416845703125,1.7771806716918945,-0.9311556816101074,-1.0298019647598267
1733404612744664000,6.0516640625,0.9154491424560547,-0.7338492274284363,-0.887435793876648
1733404612754673700,6.061673583984375,0.048790931701660156,-0.5731585621833801,-0.6685002446174622
1733404612764683500,6.07168359375,-0.5170669555664062,-0.44146835803985596,-0.444642037153244
1733404612774663000,6.081662841796875,-0.9650402069091797,-0.4117422103881836,-0.2172008901834488
1733404612784672500,6.091672607421875,-1.2596282958984375,-0.4549388885498047,-0.0588434562087059
1733404612794682400,6.101682373046875,-1.5378789901733398,-0.40927159786224365,-0.04563209414482117
1733404612804692200,6.111692138671875,-1.813366413116455,-0.37772035598754883,0.09953071177005768
1733404612814671400,6.12167138671875,-2.074211597442627,-0.3619346618652344,0.2625181972980499
1733404612824681200,6.13168115234375,-2.3254318237304688,-0.3700094223022461,0.3559042811393738
1733404612834690800,6.14169091796875,-2.7011923789978027,-0.3056539297103882,0.5153279304504395
1733404612844670000,6.151669921875,-2.9454345703125,-0.3261282444000244,0.7453843951225281
1733404612854679800,6.1616796875,-2.994141101837158,-0.2842773199081421,0.8492356538772583
1733404612864689700,6.171689697265625,-2.8765602111816406,-0.2946254014968872,1.0015013217926025
1733404612874668800,6.181668701171875,-2.481499195098877,-0.38545894622802734,0.9673322439193726
1733404612884678700,6.1916787109375,-1.9159297943115234,-0.4940001964569092,0.9765219688415527
1733404612894688500,6.2016884765625,-1.248952865600586,-0.5044553279876709,1.0072604417800903
1733404612904667600,6.211667724609375,-0.4705314636230469,-0.49306440353393555,0.8896538615226746
1733404612914677500,6.221677490234375,0.28098583221435547,-0.4553428888320923,0.7097691297531128
1733404612924687400,6.231687255859375,1.1282005310058594,-0.29826390743255615,0.4498932659626007
1733404612934666500,6.24166650390625,1.7534427642822266,-0.08180046081542969,0.2753302752971649
1733404612944676000,6.251676025390625,2.1941328048706055,0.12087881565093994,0.12983673810958862
1733404612954686000,6.26168603515625,2.1269922256469727,0.2850271463394165,0.18825119733810425
1733404612964665000,6.2716650390625,1.7028379440307617,0.42911243438720703,0.30879849195480347
1733404612974675000,6.281675048828125,1.2085914611816406,0.5511760711669922,0.4862793982028961
1733404612984684800,6.291684814453125,0.822845458984375,0.5697743892669678,0.6192653179168701
1733404612994664200,6.301664306640625,0.8462562561035156,0.38689124584198,0.7699333429336548
1733404613004673800,6.311673828125,1.3306121826171875,0.19785869121551514,0.9741389751434326
1733404613014683600,6.32168359375,2.203585624694824,-0.0801764726638794,1.2018702030181885
1733404613024662800,6.331662841796875,3.1771602630615234,-0.21969866752624512,1.1821240186691284
1733404613034672400,6.34167236328125,4.238595008850098,-0.27257871627807617,0.8644498586654663
1733404613044682200,6.35168212890625,4.728202819824219,-0.2491624355316162,0.22982999682426453
1733404613054692000,6.361692138671875,4.805203437805176,0.01140439510345459,-0.5603500604629517
1733404613064671500,6.37167138671875,4.381739616394043,0.3910796642303467,-1.1282846927642822
1733404613074681000,6.38168115234375,3.2856979370117188,0.5698233842849731,-1.364647626876831
1733404613084691000,6.39169091796875,1.624711036682129,0.20699059963226318,-1.688008189201355
1733404613094670000,6.401670166015625,0.4701347351074219,-0.7396661639213562,-1.665228247642517
1733404613104680000,6.411679931640625,0.12060737609863281,-2.491037607192993,-0.918015718460083
1733404613114689500,6.421689453125,0.9765548706054688,-4.135944843292236,-0.5528346300125122
1733404613124669000,6.4316689453125,2.785825729370117,-5.672338962554932,-0.41854652762413025
1733404613134678500,6.441678466796875,4.907834053039551,-6.25874137878418,-0.9010151028633118
1733404613144688400,6.4516884765625,6.748598098754883,-5.690516471862793,-1.7930941581726074
1733404613154667800,6.461667724609375,6.923095703125,-4.6613359451293945,-2.0611460208892822
1733404613164677400,6.471677490234375,5.0346574783325195,-3.836775302886963,-2.0785629749298096
1733404613174687200,6.481687255859375,1.8295488357543945,-2.9370076656341553,-2.039926528930664
1733404613184666600,6.49166650390625,-1.5944442749023438,-2.372410535812378,-1.8120248317718506
1733404613194676200,6.50167626953125,-5.649367809295654,-1.7780838012695312,-1.1570122241973877
1733404613204686000,6.51168603515625,-8.74545669555664,-1.1465873718261719,-0.5217804908752441
1733404613214665200,6.521665283203125,-11.2268705368042,-0.7835211753845215,0.08736570179462433
1733404613224675000,6.531675048828125,-11.979116439819336,-0.9414420127868652,0.3922751247882843
1733404613234684700,6.5416845703125,-10.7527437210083,-1.3023552894592285,0.46568238735198975
1733404613244664000,6.5516640625,-8.055618286132812,-1.6510295867919922,0.36355018615722656
1733404613254673700,6.561673583984375,-4.321714401245117,-2.2068982124328613,0.1761944741010666
1733404613264683500,6.57168359375,-1.0381956100463867,-2.564575672149658,-0.11823701113462448
1733404613274663000,6.581662841796875,2.2776994705200195,-2.832747459411621,-0.3751959800720215
1733404613284672500,6.591672607421875,5.132329940795898,-2.769106864929199,-0.5567521452903748
1733404613294682400,6.601682373046875,6.3594512939453125,-2.6626086235046387,-0.612068235874176
1733404613304692200,6.611692138671875,6.295914649963379,-2.5900843143463135,-0.48590517044067383
1733404613314671400,6.62167138671875,5.093684196472168,-2.335822820663452,-0.2778916656970978
1733404613324681200,6.63168115234375,3.165861129760742,-1.8367213010787964,-0.09306067228317261
1733404613334690800,6.64169091796875,1.4919910430908203,-1.4107900857925415,0.23752646148204803
1733404613344670000,6.651669921875,0.2161550521850586,-1.105825662612915,0.3856275975704193
1733404613354679800,6.6616796875,-0.4670133590698242,-0.7918602824211121,0.5188676714897156
1733404613364689700,6.671689697265625,-0.9464550018310547,-0.4756239652633667,0.666190505027771
1733404613374668800,6.681668701171875,-1.3352928161621094,-0.40959250926971436,0.7250921130180359
1733404613384678700,6.6916787109375,-1.681098461151123,-0.2437429428100586,0.769694447517395
1733404613394688500,6.7016884765625,-1.9690794944763184,-0.15160226821899414,0.7819053530693054
1733404613404667600,6.711667724609375,-2.1060633659362793,-0.11270058155059814,0.736544132232666
1733404613414677500,6.721677490234375,-2.233602523803711,-0.23299062252044678,0.6215196847915649
1733404613424687400,6.731687255859375,-1.9475407600402832,-0.39491820335388184,0.5286088585853577
1733404613434666500,6.74166650390625,-1.624098777770996,-0.7044978141784668,0.5290093421936035
1733404613444676000,6.751676025390625,-1.2128105163574219,-0.8924121260643005,0.49315884709358215
1733404613454686000,6.76168603515625,-0.8067331314086914,-1.0228333473205566,0.3376300036907196
1733404613464665000,6.7716650390625,-0.5203380584716797,-1.052856206893921,0.15497151017189026
1733404613474675000,6.781675048828125,-0.23016834259033203,-1.0698822736740112,0.06364720314741135
1733404613484684800,6.791684814453125,-0.16297340393066406,-0.9315978288650513,-0.19530579447746277
1733404613494664200,6.801664306640625,-0.19393444061279297,-0.8019803166389465,-0.3103763163089752
1733404613504673800,6.811673828125,-0.27330875396728516,-0.7038535475730896,-0.43239444494247437
1733404613514683600,6.82168359375,-0.471405029296875,-0.6035869121551514,-0.5373860001564026
1733404613524662800,6.831662841796875,-0.4583463668823242,-0.6272364854812622,-0.5334566235542297
1733404613534672400,6.84167236328125,-0.21403884887695312,-0.7164371013641357,-0.6074708700180054
1733404613544682200,6.85168212890625,0.11381721496582031,-0.7299044728279114,-0.620530366897583
1733404613554692000,6.861692138671875,0.3876047134399414,-0.7364870309829712,-0.758912205696106
1733404613564671500,6.87167138671875,0.6970033645629883,-0.7377891540527344,-0.9541900157928467
1733404613574681000,6.88168115234375,1.1135435104370117,-0.5190428495407104,-0.9648369550704956
1733404613584691000,6.89169091796875,1.822159767150879,-0.13888776302337646,-0.710199236869812
1733404613594670000,6.901670166015625,2.502505302429199,-0.06634151935577393,-1.0568921566009521
1733404613604680000,6.911679931640625,3.2030649185180664,0.14718282222747803,-0.20812639594078064
1733404613614689500,6.921689453125,3.0450944900512695,0.2208712100982666,-0.5867123007774353
1733404613624669000,6.9316689453125,2.651979446411133,0.4062880277633667,-0.4762830436229706
1733404613634678500,6.941678466796875,1.8889455795288086,0.7099215984344482,-0.42423588037490845
1733404613644688400,6.9516884765625,1.2434492111206055,0.39679741859436035,-0.2896684408187866
1733404613654667800,6.961667724609375,0.9732112884521484,-0.6731817722320557,0.04639461636543274
1733404613664677400,6.971677490234375,1.6970605850219727,-1.7806035280227661,0.44818800687789917
1733404613674687200,6.981687255859375,3.167361259460449,-2.854881525039673,0.635330855846405
1733404613684666600,6.99166650390625,4.5955657958984375,-3.55149507522583,0.2909315824508667
1733404613694676200,7.00167626953125,6.111569404602051,-3.84810471534729,-0.405862033367157
1733404613704686000,7.01168603515625,6.652274131774902,-3.730820655822754,-0.7213878631591797
1733404613714665200,7.021665283203125,5.296353340148926,-3.200340986251831,-0.6670436859130859
1733404613724675000,7.031675048828125,2.8070173263549805,-2.524095296859741,-0.4195536673069
1733404613734684700,7.0416845703125,0.4797849655151367,-1.9261772632598877,0.004749417304992676
1733404613744663800,7.051663818359375,-2.215229034423828,-1.3726502656936646,0.5193837881088257
1733404613754673700,7.061673583984375,-4.2403364181518555,-1.0184987783432007,0.7037135362625122
1733404613764683500,7.07168359375,-5.8504838943481445,-0.7474256753921509,0.8853176236152649
1733404613774663000,7.081662841796875,-6.445918083190918,-0.6136112213134766,0.9926254749298096
1733404613784672500,7.091672607421875,-6.235419273376465,-0.7917816638946533,1.1198164224624634
1733404613794682400,7.101682373046875,-5.371968746185303,-1.1418248414993286,1.1894216537475586
1733404613804692200,7.111692138671875,-3.9685463905334473,-1.5601832866668701,0.979026198387146
1733404613814671400,7.12167138671875,-2.63212251663208,-1.8616571426391602,0.8750543594360352
1733404613824681200,7.13168115234375,-1.213932991027832,-1.9490145444869995,0.721964418888092
1733404613834690800,7.14169091796875,0.07098197937011719,-1.799729585647583,0.5914795398712158
1733404613844670000,7.151669921875,1.135798454284668,-1.5631605386734009,0.4742528796195984
1733404613854679800,7.1616796875,1.9531364440917969,-1.400951623916626,0.3524092435836792
1733404613864689700,7.171689697265625,2.183932304382324,-1.173972725868225,0.10855898261070251
1733404613874668800,7.181668701171875,2.0495080947875977,-0.9610579609870911,-0.04711925983428955
1733404613884678700,7.1916787109375,1.5667552947998047,-0.8233581781387329,-0.05487775802612305
1733404613894688500,7.2016884765625,0.8645448684692383,-0.7387686371803284,-0.07857745885848999
1733404613904667600,7.211667724609375,0.30811500549316406,-0.6817416548728943,-0.09249621629714966
1733404613914677500,7.221677490234375,-0.11581993103027344,-0.6635801196098328,-0.08028686046600342
1733404613924687400,7.231687255859375,-0.5322036743164062,-0.6953913569450378,-0.10549318790435791
1733404613934666500,7.24166650390625,-0.990321159362793,-0.7417659163475037,-0.10087352991104126
1733404613944676000,7.251676025390625,-1.3330907821655273,-0.8013416528701782,0.007575571537017822
1733404613954686000,7.26168603515625,-1.6158857345581055,-0.8123278617858887,0.012648910284042358
1733404613964665000,7.2716650390625,-1.8104133605957031,-0.8848734498023987,0.17042401432991028
1733404613974675000,7.281675048828125,-1.623514175415039,-0.9273903369903564,0.3267192542552948
1733404613984684800,7.291684814453125,-1.2825326919555664,-1.0469902753829956,0.40268832445144653
1733404613994664200,7.301664306640625,-0.803919792175293,-1.156829595565796,0.4314943552017212
1733404614004673800,7.311673828125,-0.28307151794433594,-1.1894218921661377,0.41101619601249695
1733404614014683600,7.32168359375,0.09114360809326172,-1.1851482391357422,0.4246695637702942
1733404614024662800,7.331662841796875,0.32875537872314453,-1.18020761013031,0.32120850682258606
1733404614034672400,7.34167236328125,0.3942270278930664,-1.0762320756912231,0.19676737487316132
1733404614044682200,7.35168212890625,0.3189983367919922,-0.9829732775688171,0.017820626497268677
1733404614054692000,7.361692138671875,0.17940616607666016,-0.9509503245353699,-0.024243652820587158
1733404614064671500,7.37167138671875,0.1457815170288086,-0.6385790705680847,0.00782698392868042
1733404614074681000,7.38168115234375,0.2100658416748047,-0.5286338925361633,0.029338136315345764
1733404614084691000,7.39169091796875,0.3372077941894531,-0.4515002965927124,0.006025820970535278
1733404614094670000,7.401670166015625,0.7075214385986328,-0.4754908084869385,0.06981517374515533
1733404614104680000,7.411679931640625,1.0046377182006836,-0.44274193048477173,0.1246783584356308
1733404614114689500,7.421689453125,1.1833915710449219,-0.3608882427215576,0.18607869744300842
1733404614124669000,7.4316689453125,1.2029380798339844,-0.13529467582702637,0.2207494080066681
1733404614134678500,7.441678466796875,1.022334098815918,0.18019339442253113,0.06284521520137787
1733404614144688400,7.4516884765625,0.7681922912597656,0.47647446393966675,-0.22424188256263733
1733404614154667800,7.461667724609375,0.3661518096923828,0.6626297235488892,-0.5000531077384949
1733404614164677400,7.471677490234375,-0.3155059814453125,0.7494919300079346,-0.8784654140472412
1733404614174687200,7.481687255859375,-0.9034872055053711,0.6939260959625244,-1.1633107662200928
1733404614184666600,7.49166650390625,-1.1657466888427734,0.5888199806213379,-1.4181735515594482
1733404614194676200,7.50167626953125,-1.1670618057250977,0.4908615052700043,-1.5981056690216064
1733404614204686000,7.51168603515625,-0.8860998153686523,0.4382190704345703,-1.717841625213623
1733404614214665200,7.521665283203125,-0.6198310852050781,0.35701051354408264,-1.724048376083374
1733404614224675000,7.531675048828125,-0.3705425262451172,0.3312096893787384,-1.7238686084747314
1733404614234684700,7.5416845703125,-0.20268821716308594,0.31228670477867126,-1.675004482269287
1733404614244664000,7.5516640625,-0.25029563903808594,0.24541771411895752,-1.7582253217697144
1733404614254673700,7.561673583984375,-0.3193778991699219,0.1600211262702942,-1.674526572227478
1733404614264683500,7.57168359375,-0.4098176956176758,0.03622919321060181,-1.7064638137817383
1733404614274663000,7.581662841796875,-0.4330558776855469,-0.08404722809791565,-2.0548489093780518
1733404614284672500,7.591672607421875,-0.43941211700439453,-0.2836877703666687,-2.0137407779693604
1733404614294682400,7.601682373046875,-0.5989236831665039,-0.2994746267795563,-2.2237133979797363
1733404614304692200,7.611692138671875,-0.8324470520019531,-0.38600438833236694,-2.2973122596740723
1733404614314671400,7.62167138671875,-1.0106840133666992,-0.44206979870796204,-2.353811740875244
1733404614324681200,7.63168115234375,-1.0500154495239258,-0.4981832206249237,-2.3396382331848145
1733404614334690800,7.64169091796875,-0.9720935821533203,-0.5382788777351379,-2.2939352989196777
1733404614344670000,7.651669921875,-0.5926332473754883,-0.548812210559845,-2.2945871353149414
1733404614354679800,7.6616796875,-0.024117469787597656,-0.5562172532081604,-2.3884682655334473
1733404614364689700,7.671689697265625,0.3887901306152344,-0.5049679279327393,-2.479719638824463
1733404614374668800,7.681668701171875,0.6028537750244141,-0.5151295065879822,-2.4365220069885254
1733404614384678700,7.6916787109375,0.6780109405517578,-0.6113009452819824,-2.3109986782073975
1733404614394688500,7.7016884765625,0.6623668670654297,-0.641528844833374,-2.224539279937744
1733404614404667600,7.711667724609375,0.49864864349365234,-0.7855117321014404,-2.1408209800720215
1733404614414677500,7.721677490234375,0.3452939987182617,-0.9814736247062683,-1.9837701320648193
1733404614424687400,7.731687255859375,0.15421581268310547,-1.1963146924972534,-1.6976780891418457
1733404614434666500,7.74166650390625,-0.009979248046875,-1.3705480098724365,-1.670767068862915
1733404614444676000,7.751676025390625,-0.2240161895751953,-1.5306847095489502,-1.4636144638061523
1733404614454686000,7.76168603515625,-0.3611316680908203,-1.6021119356155396,-1.378697395324707
1733404614464665000,7.7716650390625,-0.4000587463378906,-1.695130467414856,-1.1861169338226318
1733404614474675000,7.781675048828125,-0.33388233184814453,-1.8182358741760254,-1.2136605978012085
1733404614484684800,7.791684814453125,-0.2972240447998047,-1.919351577758789,-1.4034696817398071
1733404614494664200,7.801664306640625,-0.05729198455810547,-1.9848617315292358,-1.7348054647445679
1733404614504673800,7.811673828125,0.3910703659057617,-2.0714223384857178,-1.9059587717056274
1733404614514683600,7.82168359375,1.282149314880371,-3.57118558883667,-5.050079822540283
1733404614524662800,7.831662841796875,1.7383527755737305,-2.484606981277466,-2.5274033546447754
1733404614534672400,7.84167236328125,0.6599721908569336,-1.9896001815795898,0.23456454277038574
1733404614544682200,7.85168212890625,-0.014799118041992188,-2.0416712760925293,0.5173897743225098
1733404614554692000,7.861692138671875,-0.2809896469116211,-1.6635527610778809,0.3015861511230469
1733404614564671500,7.87167138671875,-0.18353748321533203,-1.6272677183151245,0.7381781935691833
1733404614574681000,7.88168115234375,0.35344409942626953,-1.71773362159729,0.9782413244247437
1733404614584691000,7.89169091796875,1.1972360610961914,-1.8398544788360596,0.7170715928077698
1733404614594670000,7.901670166015625,2.183415412902832,-1.9943116903305054,0.5532558560371399
1733404614604680000,7.911679931640625,2.7829980850219727,-1.989790916442871,0.5055253505706787
1733404614614689500,7.921689453125,2.9918107986450195,-1.9709391593933105,0.4149590730667114
1733404614624669000,7.9316689453125,2.980396270751953,-1.8556678295135498,0.21853983402252197
1733404614634678500,7.941678466796875,2.9579458236694336,-1.7593719959259033,0.356894850730896
1733404614644688400,7.9516884765625,2.857724189758301,-1.549098253250122,0.6674256324768066
1733404614654667800,7.961667724609375,2.1176538467407227,-1.5072885751724243,0.8931053876876831
1733404614664677400,7.971677490234375,0.8453540802001953,-1.4145890474319458,0.8413503766059875
1733404614674687200,7.981687255859375,-0.00940704345703125,-1.1652082204818726,1.4264839887619019
1733404614684666600,7.99166650390625,-0.7657146453857422,-1.1223978996276855,1.9161505699157715
1733404614694676200,8.00167626953125,-1.2155017852783203,-1.2471424341201782,1.7983053922653198
1733404614704686000,8.01168603515625,-1.4190559387207031,-1.3166577816009521,1.6384693384170532
1733404614714665200,8.021665283203125,-1.4398078918457031,-1.2366527318954468,1.8086779117584229
1733404614724675000,8.031675048828125,-1.3646554946899414,-1.1895551681518555,1.8767633438110352
1733404614734684700,8.0416845703125,-1.4041147232055664,-1.164017915725708,1.7480524778366089
1733404614744664000,8.0516640625,-1.3981571197509766,-1.1541547775268555,1.7228009700775146
1733404614754673700,8.061673583984375,-1.2180452346801758,-1.1857243776321411,1.649483561515808
1733404614764683500,8.07168359375,-0.8570108413696289,-1.2472964525222778,1.5682094097137451
1733404614774663000,8.081662841796875,-0.2198476791381836,-1.333677887916565,1.6698284149169922
1733404614784672500,8.091672607421875,0.5715303421020508,-1.4667376279830933,1.9200782775878906
1733404614794682400,8.101682373046875,1.3922176361083984,-1.6488947868347168,2.1529293060302734
1733404614804692200,8.111692138671875,1.9459724426269531,-1.7686845064163208,2.29030179977417
1733404614814671400,8.12167138671875,2.269585609436035,-1.7468043565750122,2.209383964538574
1733404614824681200,8.13168115234375,2.2980270385742188,-1.6211597919464111,2.069854736328125
1733404614834690800,8.14169091796875,1.9747772216796875,-1.6097313165664673,1.945651888847351
1733404614844670000,8.151669921875,1.391554832458496,-1.486648440361023,2.0262794494628906
1733404614854679800,8.1616796875,0.8148488998413086,-1.2533979415893555,2.303523063659668
1733404614864689700,8.171689697265625,0.29755401611328125,-1.0596801042556763,2.6789565086364746
1733404614874668800,8.181668701171875,0.03192615509033203,-1.00760018825531,2.9657483100891113
1733404614884678700,8.1916787109375,-0.09283256530761719,-0.921725869178772,3.2683846950531006
1733404614894688500,8.2016884765625,-0.10460376739501953,-0.8161321878433228,3.544313430786133
1733404614904667600,8.211667724609375,-0.1733865737915039,-0.7578439712524414,3.7745885848999023
1733404614914677500,8.221677490234375,-0.27977466583251953,-0.7974818348884583,4.023256301879883
1733404614924687400,8.231687255859375,-0.4784355163574219,-0.9415767788887024,4.00316858291626
1733404614934666500,8.24166650390625,-0.4764566421508789,-1.0136005878448486,3.7033064365386963
1733404614944676000,8.251676025390625,-0.05811882019042969,-1.1232112646102905,3.464962959289551
1733404614954686000,8.26168603515625,0.4799175262451172,-1.1347795724868774,3.2200064659118652
1733404614964665000,8.2716650390625,0.9635200500488281,-1.1412267684936523,3.0708651542663574
1733404614974675000,8.281675048828125,0.9912700653076172,-1.1163498163223267,2.938737392425537
1733404614984684800,8.291684814453125,0.6641550064086914,-0.9022451043128967,2.819638967514038
1733404614994664200,8.301664306640625,0.03693866729736328,-0.6242963075637817,2.7324016094207764
1733404615004673800,8.311673828125,-0.5868377685546875,-0.41884851455688477,2.675788402557373
1733404615014683600,8.32168359375,-1.2274303436279297,-0.2260075807571411,2.533689022064209
1733404615024662800,8.331662841796875,-1.8352108001708984,-0.1688385009765625,2.522975444793701
1733404615034672400,8.34167236328125,-2.240999221801758,-0.17097687721252441,2.5957882404327393
1733404615044682200,8.35168212890625,-2.244748115539551,-0.30425381660461426,2.457915782928467
1733404615054692000,8.361692138671875,-1.587388038635254,-0.4203331470489502,2.4527573585510254
1733404615064671500,8.37167138671875,-0.5323801040649414,-0.42729759216308594,2.4305317401885986
1733404615074681000,8.38168115234375,0.2173480987548828,-0.4367835521697998,2.435307502746582
1733404615084691000,8.39169091796875,0.6013689041137695,-0.5001864433288574,2.2933199405670166
1733404615094670000,8.401670166015625,0.5464754104614258,-0.36464643478393555,2.1223249435424805
1733404615104680000,8.411679931640625,0.22083663940429688,-0.23790991306304932,2.0548553466796875
1733404615114689500,8.421689453125,-0.29045867919921875,-0.06158280372619629,1.9046969413757324
1733404615124669000,8.4316689453125,-0.7081975936889648,0.03713691234588623,1.700937032699585
1733404615134678500,8.441678466796875,-0.9611587524414062,0.1732555627822876,1.6138041019439697
1733404615144688400,8.4516884765625,-0.845184326171875,0.28445756435394287,1.52897047996521
1733404615154667800,8.461667724609375,-0.4388713836669922,0.27390074729919434,1.5085430145263672
1733404615164677400,8.471677490234375,0.06898689270019531,0.20093858242034912,1.469120979309082
1733404615174687200,8.481687255859375,0.762537956237793,0.166107177734375,1.5211281776428223
1733404615184666600,8.49166650390625,0.9991950988769531,0.12378787994384766,1.4445741176605225
1733404615194676200,8.50167626953125,1.0517301559448242,0.07757377624511719,1.2039666175842285
1733404615204686000,8.51168603515625,1.2206554412841797,0.20050454139709473,1.0353443622589111
1733404615214665200,8.521665283203125,1.0726604461669922,0.2973266839981079,0.7797104120254517
1733404615224675000,8.531675048828125,0.6660194396972656,0.3858405351638794,0.628415048122406
1733404615234684700,8.5416845703125,0.11026763916015625,0.5531516075134277,0.5206782221794128
1733404615244664000,8.5516640625,-0.41528892517089844,0.6881444454193115,0.5514686703681946
1733404615254673700,8.561673583984375,-0.8705921173095703,0.7628904581069946,0.6834862232208252
1733404615264683500,8.57168359375,-1.1701526641845703,0.8342461585998535,0.7712750434875488
1733404615274663000,8.581662841796875,-1.3674030303955078,0.7809293270111084,0.8432973623275757
1733404615284672500,8.591672607421875,-1.3045930862426758,0.6647605895996094,0.7379456162452698
1733404615294682400,8.601682373046875,-1.0495128631591797,0.648461103439331,0.6055460572242737
1733404615304692200,8.611692138671875,-0.7594366073608398,0.2925848960876465,0.3191407322883606
1733404615314671400,8.62167138671875,-0.5853137969970703,0.2442551851272583,0.2943800985813141
1733404615324681200,8.63168115234375,-0.5551595687866211,0.1572476625442505,0.2592564523220062
1733404615334690800,8.64169091796875,-0.5178041458129883,0.07994318008422852,0.3961980938911438
1733404615344670000,8.651669921875,-0.398956298828125,0.11478447914123535,0.5971113443374634
1733404615354679800,8.6616796875,-0.3422822952270508,0.13942301273345947,0.8433062434196472
1733404615364689700,8.671689697265625,-0.4410991668701172,0.09164893627166748,0.8559057712554932
1733404615374668800,8.681668701171875,-0.5112552642822266,0.1429651975631714,0.7864110469818115
1733404615384678700,8.6916787109375,-0.5367145538330078,0.08180820941925049,0.6164743900299072
1733404615394688500,8.7016884765625,-0.5797128677368164,0.09795093536376953,0.4939707815647125
1733404615404667600,8.711667724609375,-0.6779108047485352,0.17892777919769287,0.41951480507850647
1733404615414677500,8.721677490234375,-0.8502655029296875,0.22546863555908203,0.376727432012558
1733404615424687400,8.731687255859375,-0.917658805847168,0.19459772109985352,0.398288756608963
1733404615434666500,8.74166650390625,-0.9501256942749023,0.11431169509887695,0.4744147062301636
1733404615444676000,8.751676025390625,-0.7470636367797852,0.02344954013824463,0.3958987593650818
1733404615454686000,8.76168603515625,-0.06744194030761719,-0.04826366901397705,0.23800724744796753
1733404615464665000,8.7716650390625,0.7378654479980469,-0.003373384475708008,0.07187527418136597
1733404615474675000,8.781675048828125,1.5228157043457031,-0.0005159378051757812,-0.09265890717506409
1733404615484684800,8.791684814453125,2.133294105529785,0.08582580089569092,-0.3105567693710327
1733404615494664200,8.801664306640625,2.35003662109375,0.15168225765228271,-0.5225335359573364
1733404615504673800,8.811673828125,2.2023820877075195,0.19347846508026123,-0.6681281328201294
1733404615514683600,8.82168359375,1.7421379089355469,0.17889368534088135,-0.7728406190872192
1733404615524662800,8.831662841796875,1.2527399063110352,0.1915503740310669,-0.8480582237243652
1733404615534672400,8.84167236328125,0.9562978744506836,0.2080061435699463,-0.8400411009788513
1733404615544682200,8.85168212890625,0.6871414184570312,0.24511408805847168,-0.8603134155273438
1733404615554692000,8.861692138671875,0.48787403106689453,0.2647824287414551,-0.8578023910522461
1733404615564671500,8.87167138671875,0.40395355224609375,0.3179354667663574,-0.833054780960083
1733404615574681000,8.88168115234375,0.3347034454345703,0.3846259117126465,-0.8227775692939758
1733404615584691000,8.89169091796875,0.3666257858276367,0.44756460189819336,-0.8162515163421631
1733404615594670000,8.901670166015625,0.4444284439086914,0.5845139026641846,-0.8595594763755798
1733404615604680000,8.911679931640625,0.4531669616699219,0.8581931591033936,-0.728361189365387
1733404615614689500,8.921689453125,0.02097797393798828,1.1051573753356934,-0.6538662314414978
1733404615624669000,8.9316689453125,-0.36830615997314453,1.0829098224639893,-0.6003721356391907
1733404615634678500,8.941678466796875,-0.8962116241455078,0.6573131084442139,-0.5071724653244019
1733404615644688400,8.9516884765625,-1.0190410614013672,-0.1229097843170166,-0.27845871448516846
1733404615654667800,8.961667724609375,-0.2273693084716797,-1.2576931715011597,0.27060332894325256
1733404615664677400,8.971677490234375,1.0596513748168945,-2.3922481536865234,0.7333333492279053
1733404615674687200,8.981687255859375,3.1378421783447266,-3.374500274658203,0.5652943253517151
1733404615684666600,8.99166650390625,4.922111511230469,-3.7603209018707275,0.04779389500617981
1733404615694676200,9.00167626953125,6.050329208374023,-3.5525970458984375,-0.5635887384414673
1733404615704686000,9.01168603515625,6.191555023193359,-2.9736008644104004,-1.0616530179977417
1733404615714665500,9.02166552734375,5.366583824157715,-2.3825931549072266,-1.3336732387542725
1733404615724675000,9.031675048828125,3.606001853942871,-2.0285072326660156,-1.7195653915405273
1733404615734684700,9.0416845703125,1.464324951171875,-1.9438307285308838,-2.0748531818389893
1733404615744664000,9.0516640625,-0.5271892547607422,-1.8312339782714844,-2.0680160522460938
1733404615754673700,9.061673583984375,-1.776364803314209,-1.7106623649597168,-2.245596408843994
1733404615764683500,9.07168359375,-2.628448009490967,-1.5272583961486816,-2.392979145050049
1733404615774663000,9.081662841796875,-2.9951133728027344,-1.3700547218322754,-2.3792734146118164
1733404615784672500,9.091672607421875,-3.356174945831299,-1.1532080173492432,-2.254368305206299
1733404615794682400,9.101682373046875,-3.69364595413208,-0.9771184921264648,-2.0667788982391357
1733404615804692200,9.111692138671875,-3.911162853240967,-0.9079678058624268,-1.8516840934753418
1733404615814671400,9.12167138671875,-4.118001461029053,-1.104891300201416,-1.435074806213379
1733404615824681200,9.13168115234375,-3.862199306488037,-1.4441574811935425,-1.1027095317840576
1733404615834690800,9.14169091796875,-2.8858885765075684,-1.9277490377426147,-0.6647385358810425
1733404615844670000,9.151669921875,-1.4716796875,-2.3005924224853516,-0.6514056921005249
1733404615854679800,9.1616796875,0.23097610473632812,-2.570582866668701,-0.8481466770172119
1733404615864689700,9.171689697265625,1.6640892028808594,-2.6335346698760986,-1.0313138961791992
1733404615874668800,9.181668701171875,2.9245071411132812,-2.6340270042419434,-1.056539535522461
1733404615884678700,9.1916787109375,3.559748649597168,-2.4600512981414795,-0.9363999366760254
1733404615894688500,9.2016884765625,3.5112953186035156,-2.1499266624450684,-0.9075815677642822
1733404615904667600,9.211667724609375,2.951131820678711,-1.7876639366149902,-0.8769053220748901
1733404615914677500,9.221677490234375,1.9236421585083008,-1.3827670812606812,-0.8491978645324707
1733404615924687400,9.231687255859375,0.7698688507080078,-1.0932790040969849,-0.6147643327713013
1733404615934666500,9.24166650390625,-0.214752197265625,-0.8894072771072388,-0.3858591914176941
1733404615944676000,9.251676025390625,-1.2253484725952148,-0.6989127397537231,-0.3123079836368561
1733404615954686000,9.26168603515625,-2.016171455383301,-0.6401170492172241,-0.2715567946434021
1733404615964665000,9.2716650390625,-2.6823296546936035,-0.5479350090026855,-0.1828536093235016
1733404615974675000,9.281675048828125,-3.1193275451660156,-0.5266683101654053,-0.14685797691345215
1733404615984684800,9.291684814453125,-3.392550468444824,-0.4468550682067871,0.028234243392944336
1733404615994664200,9.301664306640625,-3.495537281036377,-0.4400625228881836,0.09959721565246582
1733404616004673800,9.311673828125,-3.4284143447875977,-0.4149796962738037,0.15482911467552185
1733404616014683600,9.32168359375,-3.090826988220215,-0.45003390312194824,0.21611426770687103
1733404616024662800,9.331662841796875,-2.751978874206543,-0.4842064380645752,0.2700241208076477
1733404616034672400,9.34167236328125,-2.316739559173584,-0.49038100242614746,0.18904972076416016
1733404616044682200,9.35168212890625,-1.9306225776672363,-0.5253417491912842,0.20874753594398499
1733404616054692000,9.361692138671875,-1.4232187271118164,-0.5449485778808594,0.17694003880023956
1733404616064671500,9.37167138671875,-0.7633676528930664,-0.5827391147613525,-0.0711224377155304
1733404616074681000,9.38168115234375,0.02790069580078125,-0.5998003482818604,-0.5510330200195312
1733404616084691000,9.39169091796875,0.5251026153564453,-0.5532855987548828,-0.811349630355835
1733404616094670000,9.401670166015625,0.8850765228271484,-0.5196809768676758,-0.9414194226264954
1733404616104679700,9.4116796875,0.8714017868041992,-0.358107328414917,-0.9605287909507751
1733404616114689500,9.421689453125,0.5168485641479492,-0.3285079002380371,-0.8403809070587158
1733404616124669000,9.4316689453125,0.1922903060913086,-0.2994673252105713,-0.8059799671173096
1733404616134678500,9.441678466796875,0.14069461822509766,-0.26599550247192383,-0.6291295886039734
1733404616144688400,9.4516884765625,0.523289680480957,-0.32965660095214844,-0.391999214887619
1733404616154667800,9.461667724609375,1.1689071655273438,-0.43761682510375977,-0.20658457279205322
1733404616164677400,9.471677490234375,2.3799209594726562,-0.6502807140350342,0.031994983553886414
1733404616174687200,9.481687255859375,3.4270858764648438,-0.6811769008636475,0.1521366536617279
1733404616184666600,9.49166650390625,4.423360824584961,-0.3617124557495117,0.16110935807228088
1733404616194676200,9.50167626953125,4.807891845703125,-0.0008001327514648438,0.11300036311149597
1733404616204686000,9.51168603515625,4.493512153625488,0.19902849197387695,0.2790099084377289
1733404616214665500,9.52166552734375,3.873440742492676,0.24457240104675293,0.352417528629303
1733404616224675000,9.531675048828125,3.332498550415039,0.32510972023010254,0.2886257469654083
1733404616234684700,9.5416845703125,2.9675750732421875,0.2904391288757324,0.25435200333595276
1733404616244664000,9.5516640625,2.6942529678344727,0.19588613510131836,0.3012904226779938
1733404616254673700,9.561673583984375,2.3201217651367188,-0.12010717391967773,0.36563676595687866
1733404616264683500,9.57168359375,1.8324346542358398,-0.7022711038589478,0.6201652884483337
1733404616274663000,9.581662841796875,1.4933843612670898,-1.4954185485839844,0.47884342074394226
1733404616284672500,9.591672607421875,1.5387916564941406,-2.362635612487793,0.06931911408901215
1733404616294682400,9.601682373046875,2.348745346069336,-3.394317626953125,-0.6893383860588074
1733404616304692200,9.611692138671875,3.6315383911132812,-4.098095417022705,-1.1413944959640503
1733404616314671400,9.62167138671875,5.171492576599121,-4.281811714172363,-1.3042711019515991
1733404616324681200,9.63168115234375,5.559730529785156,-4.053248882293701,-1.0528929233551025
1733404616334690800,9.64169091796875,4.227355003356934,-3.4382920265197754,-0.8491551280021667
1733404616344670000,9.651669921875,1.9853219985961914,-2.8967273235321045,-0.21949148178100586
1733404616354679800,9.6616796875,-0.6163597106933594,-2.3075156211853027,0.48928195238113403
1733404616364689700,9.671689697265625,-3.1245999336242676,-1.9222506284713745,0.9980208873748779
1733404616374668800,9.681668701171875,-4.9416351318359375,-1.7465766668319702,1.3136621713638306
1733404616384678700,9.6916787109375,-6.260038375854492,-1.4694337844848633,1.550098180770874
1733404616394688500,9.7016884765625,-6.675134658813477,-1.3005638122558594,1.6856834888458252
1733404616404667600,9.711667724609375,-6.281280517578125,-1.3993241786956787,1.7825400829315186
1733404616414677500,9.721677490234375,-5.23574161529541,-1.6755146980285645,1.7740074396133423
1733404616424687400,9.731687255859375,-3.820620536804199,-2.0739054679870605,1.571332335472107
1733404616434666500,9.74166650390625,-2.682927131652832,-2.3806586265563965,1.1675351858139038
1733404616444676000,9.751676025390625,-1.3464784622192383,-2.8302693367004395,0.8406851887702942
1733404616454686000,9.76168603515625,0.09974861145019531,-3.062530040740967,0.6809180378913879
1733404616464665000,9.7716650390625,1.3079347610473633,-3.008441209793091,0.357273668050766
1733404616474675000,9.781675048828125,2.409687042236328,-2.7589335441589355,0.09884688258171082
1733404616484684800,9.791684814453125,2.891477584838867,-2.4056971073150635,-0.06689225137233734
1733404616494664200,9.801664306640625,2.721133232116699,-1.9049211740493774,-0.4210030138492584
1733404616504673800,9.811673828125,2.165740966796875,-1.4416799545288086,-0.5970499515533447
1733404616514683600,9.82168359375,1.223134994506836,-0.941389799118042,-0.8259977102279663
1733404616524662800,9.831662841796875,0.25611114501953125,-0.6734684705734253,-1.0701067447662354
1733404616534672400,9.84167236328125,0.13432979583740234,0.5488076210021973,-1.0850833654403687
1733404616544682200,9.85168212890625,-1.2500152587890625,-0.882992148399353,-0.5298848152160645
1733404616554692000,9.861692138671875,-2.003387451171875,-0.4788013696670532,-0.491974413394928
1733404616564671500,9.87167138671875,-2.18595552444458,-0.7792805433273315,-0.42614051699638367
1733404616574681000,9.88168115234375,-2.226818084716797,-0.9727979898452759,-0.2656683325767517
1733404616584691000,9.89169091796875,-2.1235742568969727,-1.0623682737350464,0.01800064742565155
1733404616594670000,9.901670166015625,-1.9141430854797363,-1.1237494945526123,0.12221944332122803
1733404616604680000,9.911679931640625,-1.7987604141235352,-1.1053242683410645,0.0452551394701004
1733404616614689500,9.921689453125,-1.8481965065002441,-1.06877863407135,0.08786709606647491
1733404616624669000,9.9316689453125,-2.076171875,-0.8732240200042725,0.16315963864326477
1733404616634678500,9.941678466796875,-2.4683351516723633,-0.6864588260650635,0.15072664618492126
1733404616644688400,9.9516884765625,-2.8288259506225586,-0.5401021242141724,0.2138582170009613
1733404616654667800,9.961667724609375,-2.708549976348877,-0.3558540344238281,0.25023573637008667
1733404616664677400,9.971677490234375,-2.1780638694763184,-0.23954319953918457,0.28553643822669983
1733404616674687200,9.981687255859375,-1.5206542015075684,-0.25798654556274414,0.33131298422813416
1733404616684666600,9.99166650390625,-0.8307085037231445,-0.23311185836791992,0.3127090036869049
1733404616694676200,10.00167626953125,-0.14464569091796875,-0.20744729042053223,0.30926454067230225
1733404616704686000,10.01168603515625,0.4349660873413086,-0.21095705032348633,0.34605661034584045
1733404616714665500,10.02166552734375,1.169682502746582,-0.15448737144470215,0.2848881483078003
1733404616724675000,10.031675048828125,1.911820411682129,-0.05977201461791992,0.23461906611919403
1733404616734684700,10.0416845703125,2.3198089599609375,0.009843111038208008,0.5824236869812012
1733404616744664000,10.0516640625,2.4328927993774414,0.10519123077392578,0.8846597075462341
1733404616754673700,10.061673583984375,2.425967216491699,0.1536567211151123,0.9850345849990845
1733404616764683500,10.07168359375,2.4950857162475586,0.1464991569519043,0.9827001094818115
1733404616774663000,10.081662841796875,2.7298669815063477,0.03711557388305664,0.8362319469451904
1733404616784672500,10.091672607421875,3.2273807525634766,-0.08882594108581543,0.5547277927398682
1733404616794682400,10.101682373046875,3.74786376953125,-0.18196821212768555,0.14536124467849731
1733404616804692200,10.111692138671875,4.30606746673584,-0.3277038335800171,-0.7411933541297913
1733404616814671400,10.12167138671875,4.417000770568848,-0.41074955463409424,-1.6329700946807861
1733404616824681200,10.13168115234375,4.3259077072143555,-0.3616241216659546,-2.1337532997131348
1733404616834690800,10.14169091796875,3.9506940841674805,-0.12511706352233887,-2.243785858154297
1733404616844670000,10.151669921875,3.421794891357422,0.259418249130249,-2.230428695678711
1733404616854679800,10.1616796875,2.984707832336426,0.43311476707458496,-2.2414679527282715
1733404616864689700,10.171689697265625,2.157045364379883,-0.008920669555664062,-1.8485918045043945
1733404616874668800,10.181668701171875,1.5888233184814453,-1.1076831817626953,-1.1478943824768066
1733404616884678700,10.1916787109375,1.754873275756836,-2.8902859687805176,-0.3940069377422333
1733404616894688500,10.2016884765625,3.01992130279541,-4.361450672149658,-0.1262941062450409
1733404616904667600,10.211667724609375,5.019693374633789,-5.176535606384277,-0.42584726214408875
1733404616914677500,10.221677490234375,6.472679138183594,-5.021478176116943,-1.0075169801712036
1733404616924687400,10.231687255859375,6.455944061279297,-4.175076484680176,-1.4468200206756592
1733404616934666500,10.24166650390625,4.534212112426758,-3.329143524169922,-1.716797947883606
1733404616944676000,10.251676025390625,1.7759113311767578,-2.861032009124756,-1.8684120178222656
1733404616954686000,10.26168603515625,-1.9958057403564453,-2.5484752655029297,-1.8693690299987793
1733404616964665000,10.2716650390625,-5.327069282531738,-2.2556402683258057,-1.6951775550842285
1733404616974675000,10.281675048828125,-8.14854907989502,-1.8955004215240479,-1.272986650466919
1733404616984684800,10.291684814453125,-9.666829109191895,-1.6711407899856567,-1.010265827178955
1733404616994784000,10.301783935546876,-9.997715950012207,-1.6862337589263916,-0.6131787896156311
1733404617004918000,10.31191796875,-8.445631980895996,-2.01060152053833,-0.43640607595443726
1733404617014683600,10.32168359375,-6.153074264526367,-2.3095014095306396,-0.4022250771522522
1733404617024662800,10.331662841796875,-2.9368886947631836,-2.650020122528076,-0.081764817237854
1733404617034672400,10.34167236328125,-0.32421398162841797,-2.753213882446289,-0.18124526739120483
1733404617044682200,10.35168212890625,2.2595720291137695,-2.6995532512664795,-0.3563273549079895
1733404617054692000,10.361692138671875,4.018312454223633,-2.7781317234039307,-0.11998754739761353
1733404617064671500,10.37167138671875,4.805420875549316,-2.980551242828369,0.2180999517440796
1733404617074681000,10.38168115234375,4.558445930480957,-2.8545777797698975,0.19887983798980713
1733404617084691000,10.39169091796875,3.6263580322265625,-2.5640838146209717,0.09030243754386902
1733404617094670000,10.401670166015625,2.469721794128418,-2.166414260864258,0.08065256476402283
1733404617104680000,10.411679931640625,1.2375001907348633,-1.6726151704788208,0.10387721657752991
1733404617114689500,10.421689453125,0.11000823974609375,-1.2952762842178345,0.041438013315200806
1733404617124669000,10.4316689453125,-0.8219814300537109,-0.9872409105300903,-0.06580796837806702
1733404617134678500,10.441678466796875,-1.680633544921875,-0.7433345317840576,-0.022153601050376892
1733404617144688400,10.4516884765625,-2.258439064025879,-0.5172984600067139,-0.0316806435585022
1733404617154667800,10.461667724609375,-2.8676538467407227,-0.42278003692626953,0.006937772035598755
1733404617164677400,10.471677490234375,-3.365110397338867,-0.39352869987487793,-0.01399616152048111
1733404617174687200,10.481687255859375,-3.5766892433166504,-0.39386773109436035,-0.030924707651138306
1733404617184666600,10.49166650390625,-3.615783214569092,-0.44742870330810547,0.027934595942497253
1733404617194676200,10.50167626953125,-3.341709613800049,-0.5358273983001709,0.08606237173080444
1733404617204686000,10.51168603515625,-2.9068856239318848,-0.6250684261322021,0.14364318549633026
1733404617214665500,10.52166552734375,-2.409914970397949,-0.7150251865386963,0.029072802513837814
1733404617224675000,10.531675048828125,-1.6609926223754883,-0.8152059316635132,-0.10353709012269974
1733404617234684700,10.5416845703125,-0.788670539855957,-0.8707126379013062,-0.20726430416107178
1733404617244664000,10.5516640625,-0.2205829620361328,-0.9111504554748535,-0.39749008417129517
1733404617254673700,10.561673583984375,0.07806110382080078,-0.8141638040542603,-0.4854135811328888
1733404617264683500,10.57168359375,0.3114767074584961,-0.5990831851959229,-0.4775460660457611
1733404617274663000,10.581662841796875,0.22194671630859375,-0.41742467880249023,-0.5172096490859985
1733404617284672500,10.591672607421875,0.08693790435791016,-0.2743551731109619,-0.4300558567047119
1733404617294682400,10.601682373046875,0.17272663116455078,-0.25991129875183105,-0.25140875577926636
1733404617304692200,10.611692138671875,0.5665349960327148,-0.13494062423706055,-0.3815363049507141
1733404617314671400,10.62167138671875,1.0252227783203125,-0.07993936538696289,-0.38262778520584106
1733404617324681200,10.63168115234375,1.4758291244506836,-0.19918227195739746,-0.2876906991004944
1733404617334690800,10.64169091796875,2.08139705657959,-0.26820504665374756,-0.28663137555122375
1733404617344670000,10.651669921875,2.5122528076171875,-0.3479067087173462,-0.15862122178077698
1733404617354679800,10.6616796875,2.9247398376464844,-0.26898014545440674,-0.011638641357421875
1733404617364689700,10.671689697265625,3.0173568725585938,-0.07370686531066895,0.22359301149845123
1733404617374668800,10.681668701171875,3.0246686935424805,-0.03817629814147949,0.771111249923706
1733404617384678700,10.6916787109375,3.0373973846435547,0.005645036697387695,1.122367024421692
1733404617394688500,10.7016884765625,3.162778854370117,0.09533047676086426,1.312888741493225
1733404617404667600,10.711667724609375,3.4338932037353516,0.22541308403015137,1.3079071044921875
1733404617414677500,10.721677490234375,3.584885597229004,0.4089317321777344,1.1510257720947266
1733404617424687400,10.731687255859375,3.3097991943359375,0.26626014709472656,0.9064792394638062
1733404617434666500,10.74166650390625,2.714183807373047,-0.5260633230209351,0.5946573615074158
1733404617444676000,10.751676025390625,2.565898895263672,-1.548319697380066,0.49658381938934326
1733404617454686000,10.76168603515625,2.9287595748901367,-2.5380194187164307,0.11826848983764648
1733404617464665000,10.7716650390625,3.422292709350586,-3.112192392349243,-0.10451215505599976
1733404617474675000,10.781675048828125,3.564345359802246,-3.240609645843506,-0.18162110447883606
1733404617484684800,10.791684814453125,2.9329748153686523,-3.2491555213928223,-0.12524843215942383
1733404617494664200,10.801664306640625,1.663548469543457,-3.160839557647705,0.5957517623901367
1733404617504673800,10.811673828125,-0.07096481323242188,-2.7969236373901367,1.170434594154358
1733404617514683600,10.82168359375,-1.5734095573425293,-2.4037528038024902,1.5386366844177246
1733404617524662800,10.831662841796875,-2.817471504211426,-2.062983512878418,1.8952044248580933
1733404617534672400,10.84167236328125,-3.3484597206115723,-1.733567476272583,1.8080625534057617
1733404617544682200,10.85168212890625,-3.2185683250427246,-1.5285208225250244,1.5467522144317627
1733404617554692000,10.861692138671875,-2.455801486968994,-1.5594308376312256,1.4041388034820557
1733404617564671500,10.87167138671875,-1.7044696807861328,-1.8008134365081787,1.0079114437103271
1733404617574681000,10.88168115234375,-0.9298295974731445,-2.0812175273895264,0.48729652166366577
1733404617584691000,10.89169091796875,-0.46333885192871094,-2.1800343990325928,0.22261187434196472
1733404617594670000,10.901670166015625,0.008475303649902344,-2.2525713443756104,0.052555859088897705
1733404617604680000,10.911679931640625,0.3358621597290039,-2.101562976837158,-0.14786779880523682
1733404617614689500,10.921689453125,0.3618459701538086,-1.9353903532028198,-0.24878549575805664
1733404617624669000,10.9316689453125,0.047402381896972656,-1.7716596126556396,-0.3056984543800354
1733404617634678800,10.9416787109375,-0.5657958984375,-1.4070490598678589,-0.43793046474456787
1733404617644688400,10.9516884765625,-1.2035303115844727,-1.053983449935913,-0.48953574895858765
1733404617654667800,10.961667724609375,-1.7501273155212402,-0.7798964977264404,-0.3008071780204773
1733404617664677400,10.971677490234375,-2.2792510986328125,-0.6579514741897583,-0.36223381757736206
1733404617674687200,10.981687255859375,-2.549654483795166,-0.5204544067382812,-0.44956111907958984
1733404617684666600,10.99166650390625,-2.767604351043701,-0.4564284086227417,-0.46623653173446655
1733404617694676200,11.00167626953125,-2.957265853881836,-0.6347450017929077,-0.2682892084121704
1733404617704686000,11.01168603515625,-2.807328701019287,-0.7825381755828857,-0.17095541954040527
1733404617714665500,11.02166552734375,-2.7271041870117188,-0.8879108428955078,-0.1656872034072876
1733404617724675000,11.031675048828125,-2.6550521850585938,-0.985801100730896,-0.04958087205886841
1733404617734684700,11.0416845703125,-2.5120058059692383,-1.0564746856689453,0.22964835166931152
1733404617744664000,11.0516640625,-2.341026782989502,-0.9748085737228394,0.4328157901763916
1733404617754673700,11.061673583984375,-2.223766803741455,-0.7711107730865479,0.4532797336578369
1733404617764683500,11.07168359375,-2.122048854827881,-0.5648446083068848,0.7156680226325989
1733404617774663000,11.081662841796875,-2.0767784118652344,-0.2788982391357422,0.7317141890525818
1733404617784672500,11.091672607421875,-1.9093151092529297,-0.0765615701675415,0.8350498676300049
1733404617794682400,11.101682373046875,-1.4270210266113281,0.09466242790222168,0.7561280727386475
1733404617804692200,11.111692138671875,-0.8834190368652344,0.0690007209777832,0.9033324122428894
1733404617814671400,11.12167138671875,-0.2993440628051758,0.08958673477172852,0.9336640238761902
1733404617824681200,11.13168115234375,0.28032588958740234,0.0382540225982666,0.9542745351791382
1733404617834690800,11.14169091796875,0.8513813018798828,-0.021356940269470215,0.856779932975769
1733404617844670000,11.151669921875,1.2873306274414062,-0.017693758010864258,0.8897786736488342
1733404617854679800,11.1616796875,1.5716705322265625,0.07749795913696289,0.9780619144439697
1733404617864689700,11.171689697265625,1.4686222076416016,0.20776057243347168,0.9351191520690918
1733404617874668800,11.181668701171875,1.3481254577636719,0.25287747383117676,1.0233116149902344
1733404617884678700,11.1916787109375,1.1904211044311523,0.26443278789520264,1.0736355781555176
1733404617894688500,11.2016884765625,1.3587532043457031,0.17920386791229248,1.068963646888733
1733404617904667600,11.211667724609375,2.16119384765625,-0.033663392066955566,1.0180522203445435
1733404617914677500,11.221677490234375,3.324155807495117,-0.2462853193283081,1.0819194316864014
1733404617924687400,11.231687255859375,4.65085506439209,-0.36483466625213623,1.1164367198944092
1733404617934666500,11.24166650390625,5.681285858154297,-0.2668282985687256,0.9612630605697632
1733404617944676000,11.251676025390625,6.326801300048828,-0.08079540729522705,0.6722170114517212
1733404617954686000,11.26168603515625,6.144193649291992,0.19884324073791504,0.1300148069858551
1733404617964665000,11.2716650390625,5.221128463745117,0.34897494316101074,-0.3887520432472229
1733404617974675000,11.281675048828125,4.077469825744629,0.4140859842300415,-0.6809949278831482
1733404617984684800,11.291684814453125,2.772557258605957,0.5900524854660034,-0.8421183228492737
1733404617994664200,11.301664306640625,1.7769289016723633,0.7040402889251709,-1.1757936477661133
1733404618004673800,11.311673828125,1.0506401062011719,0.4609665870666504,-1.2884976863861084
1733404618014683600,11.32168359375,0.707855224609375,-0.4226186275482178,-1.048736572265625
1733404618024662800,11.331662841796875,1.193629264831543,-1.7594223022460938,-0.47513890266418457
1733404618034672400,11.34167236328125,2.408432960510254,-3.353271961212158,-0.016316115856170654
1733404618044682200,11.35168212890625,4.065649032592773,-4.075427055358887,-0.29622936248779297
1733404618054692000,11.361692138671875,5.179314613342285,-4.168010234832764,-0.7770607471466064
1733404618064671200,11.371671142578125,4.753593444824219,-3.727200746536255,-1.2564778327941895
1733404618074681000,11.38168115234375,3.020627975463867,-3.171353816986084,-1.505582332611084
1733404618084691000,11.39169091796875,0.8273143768310547,-2.7611498832702637,-1.5120571851730347
1733404618094670000,11.401670166015625,-2.0869269371032715,-2.35382080078125,-1.4299755096435547
1733404618104680000,11.411679931640625,-4.821372985839844,-2.1273462772369385,-0.9533436894416809
1733404618114689500,11.421689453125,-6.743524551391602,-1.8370342254638672,-0.409376859664917
1733404618124669000,11.4316689453125,-7.933546543121338,-1.5874162912368774,0.153641939163208
1733404618134678800,11.4416787109375,-8.095752716064453,-1.5835459232330322,0.6429140567779541
1733404618144688400,11.4516884765625,-7.110333442687988,-1.9086058139801025,1.0145820379257202
1733404618154667500,11.46166748046875,-5.215487003326416,-2.158433675765991,0.9706965684890747
1733404618164677400,11.471677490234375,-2.531679630279541,-2.2731282711029053,0.8904568552970886
1733404618174687200,11.481687255859375,-0.4778270721435547,-2.2526063919067383,0.67462557554245
1733404618184666600,11.49166650390625,0.9493379592895508,-2.102126359939575,0.29076626896858215
1733404618194676200,11.50167626953125,1.7368965148925781,-1.7946007251739502,0.16289561986923218
1733404618204686000,11.51168603515625,1.9471807479858398,-1.4985846281051636,0.08669120073318481
1733404618214665200,11.521665283203125,1.4449939727783203,-1.2032769918441772,0.05009126663208008
1733404618224675000,11.531675048828125,0.7248010635375977,-0.9415582418441772,0.12497931718826294
1733404618234685000,11.541684814453125,-0.2558021545410156,-0.7374982833862305,0.09583026170730591
1733404618244664000,11.5516640625,-0.9562234878540039,-0.6345244646072388,-0.04075360298156738
1733404618254673700,11.561673583984375,-1.339808464050293,-0.5848174095153809,-0.16452860832214355
1733404618264683500,11.57168359375,-1.4483165740966797,-0.5982669591903687,-0.3448767066001892
1733404618274663000,11.581662841796875,-1.3014240264892578,-0.5625529289245605,-0.48366785049438477
1733404618284672500,11.591672607421875,-1.2892799377441406,-0.5167181491851807,-0.3667128384113312
1733404618294682400,11.601682373046875,-1.3945770263671875,-0.4988839626312256,-0.24969637393951416
1733404618304692200,11.611692138671875,-1.5640254020690918,-0.4440521001815796,-0.14161008596420288
1733404618314671600,11.621671630859375,-1.7856688499450684,-0.4097813367843628,-0.028562724590301514
1733404618324681200,11.63168115234375,-1.9687118530273438,-0.3596707582473755,0.05231127142906189
1733404618334690800,11.64169091796875,-2.027279853820801,-0.2806262969970703,0.008799165487289429
1733404618344670000,11.651669921875,-1.9379000663757324,-0.23288607597351074,-0.07049989700317383
1733404618354679800,11.6616796875,-1.7343850135803223,-0.16724681854248047,-0.2308184802532196
1733404618364689700,11.671689697265625,-1.3713970184326172,-0.13814949989318848,-0.20925799012184143
1733404618374669000,11.6816689453125,-1.1098432540893555,-0.12182021141052246,-0.3552936017513275
1733404618384678700,11.6916787109375,-0.8243684768676758,-0.08597064018249512,-0.383484423160553
1733404618394688500,11.7016884765625,-0.6178293228149414,-0.13881969451904297,-0.30865636467933655
1733404618404668000,11.71166796875,-0.34415626525878906,-0.15834498405456543,-0.295833021402359
1733404618414677500,11.721677490234375,0.05651283264160156,-0.07030344009399414,-0.3685300052165985
1733404618424687000,11.73168701171875,0.44537830352783203,0.034491539001464844,-0.3272038698196411
1733404618434666500,11.74166650390625,0.6337499618530273,0.16591119766235352,-0.48301953077316284
1733404618444676000,11.751676025390625,0.8088903427124023,0.34085750579833984,-0.5569884777069092
1733404618454686000,11.76168603515625,1.0253753662109375,0.3798339366912842,-0.581155002117157
1733404618464665300,11.771665283203125,1.3297128677368164,0.2446577548980713,-0.39032694697380066
1733404618474675000,11.781675048828125,2.005862236022949,-0.024900197982788086,-0.31651848554611206
1733404618484684800,11.791684814453125,2.824129104614258,-0.28635668754577637,-0.39729347825050354
1733404618494664200,11.801664306640625,3.6440773010253906,-0.3983032703399658,-0.4874624013900757
1733404618504673800,11.811673828125,4.074248313903809,-0.25835657119750977,-0.3336116373538971
1733404618514683600,11.82168359375,3.3572206497192383,0.20309126377105713,-0.43147012591362
1733404618524662800,11.831662841796875,3.0034589767456055,0.3498193025588989,-0.0931616723537445
1733404618534672400,11.84167236328125,2.549694061279297,0.21294403076171875,0.7210572361946106
1733404618544682200,11.85168212890625,2.4319114685058594,0.06503152847290039,0.8147442936897278
1733404618554692000,11.861692138671875,2.6850032806396484,0.21240651607513428,0.5709191560745239
1733404618564671500,11.87167138671875,2.808222770690918,0.4868307113647461,0.17166370153427124
1733404618574681000,11.88168115234375,2.581498146057129,0.2864917516708374,-0.011319130659103394
1733404618584691000,11.89169091796875,2.0288734436035156,-0.6550943851470947,0.22867965698242188
1733404618594670000,11.901670166015625,1.5281658172607422,-1.8113667964935303,0.6398649215698242
1733404618604680000,11.911679931640625,1.7349748611450195,-3.1578617095947266,0.6541818380355835
1733404618614689500,11.921689453125,2.550541877746582,-3.941926956176758,0.40095019340515137
1733404618624669000,11.9316689453125,3.846266746520996,-4.092164039611816,-0.24413323402404785
1733404618634678800,11.9416787109375,4.252433776855469,-3.89866304397583,-0.4703458249568939
1733404618644688400,11.9516884765625,3.2574729919433594,-3.256868600845337,-0.27400386333465576
1733404618654667800,11.961667724609375,1.1295623779296875,-2.7938437461853027,0.346478134393692
1733404618664677400,11.971677490234375,-1.2347221374511719,-2.3988494873046875,0.8277332782745361
1733404618674687200,11.981687255859375,-3.706768035888672,-1.938286304473877,1.578400731086731
1733404618684666600,11.99166650390625,-5.423144817352295,-1.6218057870864868,1.7471222877502441
1733404618694676200,12.00167626953125,-6.579440593719482,-1.2751903533935547,2.01883864402771
1733404618704686000,12.01168603515625,-6.812559127807617,-1.0621105432510376,2.247870922088623
1733404618714665500,12.02166552734375,-6.156538486480713,-1.112307071685791,2.181793689727783
1733404618724675000,12.031675048828125,-4.863916397094727,-1.3862690925598145,1.8843495845794678
1733404618734684700,12.0416845703125,-3.28102970123291,-1.8189725875854492,1.6725366115570068
1733404618744664000,12.0516640625,-1.846205234527588,-2.040114164352417,1.327177882194519
1733404618754673700,12.061673583984375,-0.24390029907226562,-2.136138439178467,0.8943471908569336
1733404618764683500,12.07168359375,1.1043081283569336,-2.1910717487335205,0.3931058943271637
1733404618774663000,12.081662841796875,2.0187692642211914,-2.1671299934387207,-0.049317359924316406
1733404618784672500,12.091672607421875,2.7158899307250977,-2.099031686782837,-0.38465386629104614
1733404618794682400,12.101682373046875,2.9474334716796875,-1.9665377140045166,-0.5879790782928467
1733404618804692200,12.111692138671875,2.6920299530029297,-1.686338186264038,-0.7590354681015015
1733404618814671400,12.12167138671875,2.0557050704956055,-1.3572502136230469,-0.709026575088501
1733404618824681200,12.13168115234375,1.0472898483276367,-0.9084745645523071,-0.5315277576446533
1733404618834690800,12.14169091796875,0.12167072296142578,-0.6333879232406616,-0.3480480909347534
1733404618844670000,12.151669921875,-0.9457559585571289,-0.3989495038986206,-0.0742563009262085
1733404618854679800,12.1616796875,-1.9233360290527344,-0.27986764907836914,0.14304369688034058
1733404618864689700,12.171689697265625,-2.8236589431762695,-0.22138237953186035,0.4326092600822449
1733404618874668800,12.181668701171875,-3.286238670349121,-0.23846065998077393,0.5904691219329834
1733404618884678700,12.1916787109375,-3.3893795013427734,-0.26113271713256836,0.6863366961479187
1733404618894688500,12.2016884765625,-3.142434597015381,-0.4159238338470459,0.9292352199554443
1733404618904667600,12.211667724609375,-2.727229118347168,-0.4401947259902954,0.8832980990409851
1733404618914677500,12.221677490234375,-2.2484560012817383,-0.4614286422729492,0.8370574712753296
1733404618924687400,12.231687255859375,-2.0335330963134766,-0.46654605865478516,0.9346392750740051
1733404618934666500,12.24166650390625,-1.9050202369689941,-0.465556263923645,1.1051325798034668
1733404618944676000,12.251676025390625,-1.7982993125915527,-0.4159356355667114,1.1264210939407349
1733404618954686000,12.26168603515625,-1.5508155822753906,-0.35271167755126953,1.0641547441482544
1733404618964665000,12.2716650390625,-1.1394996643066406,-0.29637253284454346,0.9664397239685059
1733404618974675000,12.281675048828125,-0.6763181686401367,-0.20560264587402344,0.9252393245697021
1733404618984684800,12.291684814453125,-0.08928871154785156,-0.08349084854125977,0.8519411087036133
1733404618994664200,12.301664306640625,0.2989006042480469,-0.044722557067871094,0.8638632297515869
1733404619004673800,12.311673828125,0.7448101043701172,0.12117636203765869,0.8313539028167725
1733404619014683600,12.32168359375,1.0716686248779297,0.3879793882369995,0.6599431037902832
1733404619024662800,12.331662841796875,1.1915016174316406,0.6376509666442871,0.49670982360839844
1733404619034672400,12.34167236328125,1.0530176162719727,0.822359561920166,0.43099308013916016
1733404619044682200,12.35168212890625,0.8442249298095703,0.9154837131500244,0.4419384002685547
1733404619054692000,12.361692138671875,0.7824106216430664,0.8201959133148193,0.5429953932762146
1733404619064671200,12.371671142578125,0.7614841461181641,0.5987077951431274,0.5650562047958374
1733404619074681000,12.38168115234375,1.1852684020996094,0.24433612823486328,0.5571717619895935
1733404619084691000,12.39169091796875,2.292538642883301,-0.14498388767242432,0.6551879644393921
1733404619094670000,12.401670166015625,3.343533515930176,-0.4765568971633911,0.5222083330154419
1733404619104680000,12.411679931640625,4.170853614807129,-0.5347117185592651,0.23678526282310486
1733404619114689500,12.421689453125,4.802549362182617,-0.30481499433517456,-0.10249143838882446
1733404619124669000,12.4316689453125,4.782220840454102,-0.08147656917572021,-0.7204053997993469
1733404619134678800,12.4416787109375,3.7779111862182617,0.05770742893218994,-1.0593451261520386
1733404619144688400,12.4516884765625,2.723477363586426,0.34206831455230713,-1.1361253261566162
1733404619154667500,12.46166748046875,1.7114601135253906,0.6674548387527466,-1.3151276111602783
1733404619164677400,12.471677490234375,0.8723878860473633,0.7141714096069336,-1.5429391860961914
1733404619174687200,12.481687255859375,0.4036598205566406,0.006401181221008301,-1.4032559394836426
1733404619184666400,12.491666259765625,0.7813844680786133,-1.1134499311447144,-0.7098264098167419
1733404619194676200,12.50167626953125,1.809408187866211,-2.856816291809082,0.04497885704040527
1733404619204686000,12.51168603515625,3.619387626647949,-4.395843982696533,0.34336337447166443
1733404619214665500,12.52166552734375,5.197192192077637,-4.901244163513184,0.09164583683013916
1733404619224675000,12.531675048828125,6.520951271057129,-4.734540939331055,-0.4749584197998047
1733404619234684700,12.5416845703125,6.465873718261719,-4.029303073883057,-0.9749744534492493
1733404619244664000,12.5516640625,4.685859680175781,-2.9359636306762695,-1.403679370880127
1733404619254673700,12.561673583984375,1.9735107421875,-2.2431890964508057,-1.2817771434783936
1733404619264683500,12.57168359375,-2.1106834411621094,-1.6398204565048218,-0.8034215569496155
1733404619274662700,12.58166259765625,-5.55964994430542,-1.209563136100769,-0.5059401392936707
1733404619284672500,12.591672607421875,-8.55990982055664,-0.7078334093093872,0.1714564561843872
1733404619294682400,12.601682373046875,-9.895248413085938,-0.6942623853683472,0.38185057044029236
1733404619304692200,12.611692138671875,-9.405643463134766,-1.2212557792663574,0.6565207839012146
1733404619314671600,12.621671630859375,-6.560640811920166,-1.7151515483856201,0.8460912108421326
1733404619324681200,12.63168115234375,-3.03733491897583,-2.1826870441436768,0.8290109634399414
1733404619334690800,12.64169091796875,0.7090024948120117,-2.4658493995666504,0.3342422842979431
1733404619344670000,12.651669921875,3.3711280822753906,-2.3380606174468994,0.14498794078826904
1733404619354679800,12.6616796875,5.242659568786621,-2.181770086288452,0.1107243001461029
1733404619364689700,12.671689697265625,5.703962326049805,-1.8316742181777954,0.03002464771270752
1733404619374669000,12.6816689453125,4.816062927246094,-1.4252822399139404,0.13484230637550354
1733404619384678700,12.6916787109375,3.059695243835449,-1.155632734298706,0.31172603368759155
1733404619394688500,12.7016884765625,0.8931436538696289,-0.7495985627174377,0.27735060453414917
1733404619404668000,12.71166796875,-0.5948963165283203,-0.5134886503219604,0.328334242105484
1733404619414677500,12.721677490234375,-1.710688591003418,-0.33891165256500244,0.2642636299133301
1733404619424687000,12.73168701171875,-2.2016348838806152,-0.23413360118865967,0.058897703886032104
1733404619434666500,12.74166650390625,-2.386857509613037,-0.17781472206115723,-0.059128642082214355
1733404619444676000,12.751676025390625,-2.4870400428771973,-0.18245446681976318,-0.09047642350196838
1733404619454686000,12.76168603515625,-2.664215087890625,-0.10738050937652588,-0.013833701610565186
1733404619464665000,12.7716650390625,-2.9376182556152344,-0.12724745273590088,0.026307404041290283
1733404619474675000,12.781675048828125,-3.1567392349243164,-0.13750934600830078,0.08929863572120667
1733404619484684800,12.791684814453125,-3.2401113510131836,-0.11229062080383301,0.20894305408000946
1733404619494664200,12.801664306640625,-3.278891086578369,-0.08868396282196045,0.3052377700805664
1733404619504673800,12.811673828125,-3.151198387145996,-0.18775296211242676,0.435059517621994
1733404619514683600,12.82168359375,-2.8406567573547363,-0.21863985061645508,0.4170050323009491
1733404619524662800,12.831662841796875,-2.2611403465270996,-0.3268834352493286,0.3686909079551697
1733404619534672400,12.84167236328125,-1.7715845108032227,-0.46519970893859863,0.329852432012558
1733404619544682200,12.85168212890625,-1.2163047790527344,-0.5754753351211548,0.13352176547050476
1733404619554692000,12.861692138671875,-0.4889183044433594,-0.5773632526397705,-0.04268181324005127
1733404619564671200,12.871671142578125,0.042351722717285156,-0.535826563835144,-0.1263796091079712
1733404619574681000,12.88168115234375,0.33985328674316406,-0.3739197254180908,-0.15695783495903015
1733404619584691000,12.89169091796875,0.45169544219970703,-0.189672589302063,-0.22045272588729858
1733404619594670000,12.901670166015625,0.3801565170288086,0.030960798263549805,-0.27435916662216187
1733404619604680000,12.911679931640625,0.32761096954345703,0.14492225646972656,-0.19958099722862244
1733404619614689500,12.921689453125,0.3762321472167969,0.17251253128051758,-0.15255269408226013
1733404619624669000,12.9316689453125,0.6711959838867188,0.12630128860473633,-0.009503394365310669
1733404619634678800,12.9416787109375,1.214186668395996,0.06567668914794922,0.09405848383903503
1733404619644688400,12.9516884765625,1.979048728942871,-0.06532299518585205,0.14916415512561798
1733404619654667500,12.96166748046875,2.7623519897460938,-0.09056603908538818,-0.015503883361816406
1733404619664677400,12.971677490234375,3.459148406982422,-0.07450735569000244,-0.1856933832168579
1733404619674687200,12.981687255859375,3.8283348083496094,-0.15813064575195312,-0.08373814821243286
