time,seconds_elapsed,z,y,x
1733404607204782600,0.511782470703125,0.00733038317412138,-0.014049900695681572,-0.06902777403593063
1733404607214489000,0.521489013671875,0.006719517521560192,-0.010995574295520782,-0.06475171446800232
1733404607224747500,0.53174755859375,0.004886921960860491,-0.00855211354792118,-0.04337143152952194
1733404607234779100,0.541779052734375,-0.0012217304902151227,-0.005497787147760391,-0.029932396486401558
1733404607244736500,0.551736572265625,-0.01038470957428217,0.0012217304902151227,-0.02076941914856434
1733404607254768000,0.56176806640625,-0.014049900695681572,-0.005497787147760391,-0.016493361443281174
1733404607264756200,0.571756103515625,-0.018325956538319588,-0.01466076634824276,-0.00733038317412138
1733404607274757400,0.58175732421875,-0.01466076634824276,-0.015271631069481373,0.00427605677396059
1733404607284745000,0.591744873046875,-0.00733038317412138,-0.015882495790719986,0.01710422709584236
1733404607294776800,0.60177685546875,0.004886921960860491,-0.009162978269159794,0.02687807008624077
1733404607304734000,0.61173388671875,0.012217304669320583,-0.001832595793530345,0.02321287989616394
1733404607314765800,0.621765869140625,0.01771509274840355,-0.001832595793530345,0.012217304669320583
1733404607324753700,0.631753662109375,0.02015855349600315,-0.006108652334660292,0.0006108652451075613
1733404607334785300,0.641785400390625,0.016493361443281174,-0.012217304669320583,-0.013439035043120384
1733404607344742700,0.65174267578125,0.012217304669320583,-0.019547687843441963,-0.02321287989616394
1733404607354774300,0.661774169921875,0.005497787147760391,-0.02626720629632473,-0.02871066704392433
1733404607364762400,0.671762451171875,0.0012217304902151227,-0.019547687843441963,-0.021991148591041565
1733404607374763300,0.68176318359375,-0.0024434609804302454,-0.01038470957428217,-0.014049900695681572
1733404607384751000,0.691751220703125,-0.00427605677396059,-0.00366519158706069,-0.00855211354792118
1733404607394783200,0.701783203125,-0.0024434609804302454,0.012217304669320583,-0.01160643994808197
1733404607404740000,0.711739990234375,-0.00366519158706069,0.021380282938480377,-0.015882495790719986
1733404607414772000,0.72177197265625,-0.006719517521560192,0.024434609338641167,-0.024434609338641167
1733404607424759800,0.731759765625,-0.004886921960860491,0.030543262138962746,-0.02932153269648552
1733404607434761000,0.741760986328125,-0.006108652334660292,0.033597588539123535,-0.029932396486401558
1733404607444748800,0.751748779296875,-0.004886921960860491,0.025656340643763542,-0.021380282938480377
1733404607454780400,0.761780517578125,-0.0012217304902151227,0.022602014243602753,-0.015271631069481373
1733404607464737800,0.77173779296875,0.0012217304902151227,0.014049900695681572,-0.01038470957428217
1733404607474769400,0.781769287109375,0.0006108652451075613,0.007941247895359993,-0.016493361443281174
1733404607484757200,0.79175732421875,0.006108652334660292,0.006719517521560192,-0.028099801391363144
1733404607494758700,0.801758544921875,0.00855211354792118,0.012828170321881771,-0.03848451003432274
1733404607504746200,0.811746337890625,0.010995574295520782,0.018936822190880775,-0.04703662544488907
1733404607514778400,0.8217783203125,0.014049900695681572,0.027488935738801956,-0.04948008432984352
1733404607524735500,0.831735595703125,0.015882495790719986,0.031154127791523933,-0.04581489413976669
1733404607534767000,0.84176708984375,0.01160643994808197,0.028099801391363144,-0.042760565876960754
1733404607544755000,0.8517548828125,0.007941247895359993,0.02871066704392433,-0.04153883829712868
1733404607554755600,0.861755615234375,0.001832595793530345,0.03420845419168472,-0.04886921867728233
1733404607564744000,0.871743896484375,-0.00366519158706069,0.031154127791523933,-0.060475658625364304
1733404607574775800,0.88177587890625,-0.010995574295520782,0.03176499158143997,-0.0708603709936142
1733404607584763100,0.89176318359375,-0.019547687843441963,0.033597588539123535,-0.07941248267889023
1733404607594764500,0.9017646484375,-0.024434609338641167,0.04703662544488907,-0.07819075137376785
1733404607604752400,0.91175244140625,-0.02871066704392433,0.06841690838336945,-0.0757472887635231
1733404607614784000,0.921783935546875,-0.02871066704392433,0.07880161702632904,-0.06780604273080826
1733404607624741400,0.931741455078125,-0.019547687843441963,0.07635815441608429,-0.05497787147760391
1733404607634773000,0.94177294921875,-0.022602014243602753,0.04948008432984352,-0.03726277872920036
1733404607644761000,0.951760986328125,-0.005497787147760391,0.0507018156349659,-0.03298672288656235
1733404607654762200,0.96176220703125,0.0012217304902151227,0.05375614017248154,-0.022602014243602753
1733404607664749800,0.971749755859375,0.01466076634824276,0.02687807008624077,0.00366519158706069
1733404607674781700,0.98178173828125,0.01771509274840355,0.013439035043120384,0.012217304669320583
1733404607684738800,0.99173876953125,0.016493361443281174,0.015882495790719986,0.01466076634824276
1733404607694770700,1.001770751953125,0.012217304669320583,0.021380282938480377,0.01038470957428217
1733404607704758500,1.011758544921875,0.009162978269159794,0.01710422709584236,-0.0012217304902151227
1733404607714759700,1.021759765625,0.007941247895359993,0.02076941914856434,-0.021991148591041565
1733404607724747500,1.03174755859375,0.001832595793530345,0.02382374368607998,-0.039095375686883926
1733404607734779100,1.041779052734375,-0.001832595793530345,0.029932396486401558,-0.06963863968849182
1733404607744736500,1.051736572265625,-0.006108652334660292,0.03176499158143997,-0.08674286305904388
1733404607754768100,1.06176806640625,-0.01038470957428217,0.028099801391363144,-0.09896016865968704
1733404607764756000,1.071755859375,-0.01038470957428217,0.02626720629632473,-0.10934487730264664
1733404607774757000,1.081757080078125,-0.009773843921720982,0.03176499158143997,-0.11056660860776901
1733404607784745200,1.0917451171875,-0.009162978269159794,0.036041051149368286,-0.10323622822761536
1733404607794776800,1.10177685546875,-0.007941247895359993,0.03237585723400116,-0.09040805697441101
1733404607804734000,1.11173388671875,-0.0006108652451075613,0.031154127791523933,-0.06169738993048668
1733404607814765800,1.121765869140625,0.007941247895359993,0.028099801391363144,-0.03420845419168472
1733404607824753700,1.131753662109375,0.012828170321881771,0.018936822190880775,-0.00855211354792118
1733404607834785500,1.14178564453125,0.022602014243602753,0.006108652334660292,0.005497787147760391
1733404607844742700,1.15174267578125,0.02626720629632473,-0.005497787147760391,0.0024434609804302454
1733404607854774300,1.161774169921875,0.02626720629632473,-0.012828170321881771,-0.019547687843441963
1733404607864762400,1.171762451171875,0.028099801391363144,-0.010995574295520782,-0.05009094998240471
1733404607874763500,1.181763427734375,0.031154127791523933,-0.003054326167330146,-0.07269296050071716
1733404607884751000,1.191751220703125,0.03298672288656235,-0.0024434609804302454,-0.07330382615327835
1733404607894783000,1.201782958984375,0.03176499158143997,-0.009162978269159794,-0.05742133408784866
1733404607904740000,1.211739990234375,0.029932396486401558,-0.02382374368607998,-0.042760565876960754
1733404607914771700,1.221771728515625,0.03237585723400116,-0.02626720629632473,-0.03848451003432274
1733404607924759800,1.231759765625,0.03420845419168472,-0.01038470957428217,-0.04398229718208313
1733404607934760700,1.2417607421875,0.03726277872920036,-0.004886921960860491,-0.05253441259264946
1733404607944748800,1.251748779296875,0.04459316283464432,0.009773843921720982,-0.05619960278272629
1733404607954780200,1.2617802734375,0.056810468435287476,0.015882495790719986,-0.04642575979232788
1733404607964737800,1.27173779296875,0.06352998316287994,0.004886921960860491,-0.04459316283464432
1733404607974769400,1.281769287109375,0.060475658625364304,-0.00855211354792118,-0.05742133408784866
1733404607984757200,1.29175732421875,0.05925392732024193,-0.01771509274840355,-0.09162978827953339
1733404607994758100,1.301758056640625,0.05375614017248154,-0.028099801391363144,-0.12889257073402405
1733404608004746200,1.311746337890625,0.045204028487205505,-0.039706241339445114,-0.1508837193250656
1733404608014777900,1.32177783203125,0.03726277872920036,-0.04703662544488907,-0.15821409225463867
1733404608024735500,1.331735595703125,0.021991148591041565,-0.0555887371301651,-0.1417207419872284
1733404608034766800,1.341766845703125,0.005497787147760391,-0.054367005825042725,-0.10934487730264664
1733404608044755000,1.3517548828125,-0.006719517521560192,-0.04948008432984352,-0.07635815441608429
1733404608054786600,1.36178662109375,-0.015882495790719986,-0.03787364438176155,-0.039095375686883926
1733404608064744000,1.371743896484375,-0.019547687843441963,-0.018936822190880775,-0.00733038317412138
1733404608074775600,1.381775634765625,-0.02015855349600315,0.004886921960860491,0.01160643994808197
1733404608084763400,1.391763427734375,-0.018325956538319588,0.02687807008624077,0.012828170321881771
1733404608094764800,1.401764892578125,-0.028099801391363144,0.05192354694008827,-0.003054326167330146
1733404608104752400,1.41175244140625,-0.03420845419168472,0.07452555745840073,-0.054367005825042725
1733404608114783200,1.421783203125,-0.042760565876960754,0.06719517707824707,-0.09162978827953339
1733404608124741000,1.4317412109375,-0.0555887371301651,0.03848451003432274,-0.12339477986097336
1733404608134772700,1.441772705078125,-0.07208210229873657,0.003054326167330146,-0.1411098688840866
1733404608144760300,1.45176025390625,-0.08307767659425735,-0.02321287989616394,-0.1459967941045761
1733404608154761700,1.46176171875,-0.09285151958465576,-0.03237585723400116,-0.1319468915462494
1733404608164749600,1.47174951171875,-0.09407325088977814,-0.028099801391363144,-0.1014036312699318
1733404608174781400,1.481781494140625,-0.07819075137376785,0.022602014243602753,-0.04764748737215996
1733404608184738600,1.491738525390625,-0.06108652427792549,0.06169738993048668,-0.015882495790719986
1733404608194770400,1.5017705078125,-0.04153883829712868,0.08735372871160507,0.0012217304902151227
1733404608204758000,1.511758056640625,-0.025656340643763542,0.09162978827953339,-0.004886921960860491
1733404608214759700,1.521759765625,-0.018325956538319588,0.08246681094169617,-0.033597588539123535
1733404608224747500,1.53174755859375,-0.015271631069481373,0.06475171446800232,-0.06780604273080826
1733404608234779100,1.541779052734375,-0.018325956538319588,0.04459316283464432,-0.08918632566928864
1733404608244736500,1.551736572265625,-0.018936822190880775,0.03481931984424591,-0.07391469180583954
1733404608254768400,1.561768310546875,-0.018325956538319588,0.03298672288656235,-0.0354301854968071
1733404608264756200,1.571756103515625,-0.014049900695681572,0.03176499158143997,0.013439035043120384
1733404608274757400,1.58175732421875,-0.004886921960860491,0.045204028487205505,0.07147123664617538
1733404608284745200,1.5917451171875,0.003054326167330146,0.07513642311096191,0.12339477986097336
1733404608294776800,1.60177685546875,0.018325956538319588,0.10567969083786011,0.16920967400074005
1733404608304764700,1.6117646484375,0.03420845419168472,0.12889257073402405,0.21013765037059784
1733404608314765800,1.621765869140625,0.05253441259264946,0.1362229436635971,0.23884831368923187
1733404608324753700,1.631753662109375,0.07330382615327835,0.10812314599752426,0.2321287989616394
1733404608334785300,1.641785400390625,0.07147123664617538,0.07391469180583954,0.18631389737129211
1733404608344742700,1.65174267578125,0.08002334833145142,0.04581489413976669,0.11728613078594208
1733404608354774000,1.66177392578125,0.0861319974064827,0.013439035043120384,0.039095375686883926
1733404608364762000,1.67176220703125,0.10018189996480942,-0.009162978269159794,-0.036041051149368286
1733404608374763300,1.68176318359375,0.11911872029304504,-0.016493361443281174,-0.08918632566928864
1733404608384751000,1.691751220703125,0.14477506279945374,-0.015271631069481373,-0.10384709388017654
1733404608394783000,1.701782958984375,0.18997909128665924,0.012217304669320583,-0.0507018156349659
1733404608404740000,1.711739990234375,0.2174680233001709,0.019547687843441963,0.01160643994808197
1733404608414772200,1.721772216796875,0.23884831368923187,0.009162978269159794,0.06169738993048668
1733404608424759800,1.731759765625,0.25045475363731384,-0.0012217304902151227,0.0757472887635231
1733404608434759700,1.741759765625,0.2541199326515198,-0.009162978269159794,0.04337143152952194
1733404608444748800,1.751748779296875,0.2474004179239273,-0.018325956538319588,-0.02687807008624077
1733404608454780000,1.76177978515625,0.23029619455337524,-0.03298672288656235,-0.11789698898792267
1733404608464737800,1.77173779296875,0.1875356286764145,-0.06169738993048668,-0.26450464129447937
1733404608474769400,1.781769287109375,0.15577064454555511,-0.08491026610136032,-0.3488040566444397
1733404608484757200,1.79175732421875,0.13072516024112701,-0.09346238523721695,-0.4098905920982361
1733404608494758400,1.80175830078125,0.11423180252313614,-0.08674286305904388,-0.4392121136188507
1733404608504746200,1.811746337890625,0.10506882518529892,-0.05619960278272629,-0.42210787534713745
1733404608514777900,1.82177783203125,0.09957103431224823,-0.02076941914856434,-0.3695734739303589
1733404608524735500,1.831735595703125,0.11789698898792267,0.006719517521560192,-0.28099802136421204
1733404608534766800,1.841766845703125,0.14416420459747314,0.03787364438176155,-0.17104226350784302
1733404608544755000,1.8517548828125,0.18936823308467865,0.06108652427792549,0.01160643994808197
1733404608554786600,1.86178662109375,0.2168571650981903,0.05925392732024193,0.11362093687057495
1733404608564744000,1.871743896484375,0.24373523890972137,0.05803219974040985,0.17592918872833252
1733404608574774500,1.8817744140625,0.25473082065582275,0.04581489413976669,0.2021963894367218
1733404608584763100,1.89176318359375,0.2583959996700287,0.025045474991202354,0.19608774781227112
1733404608594763800,1.901763671875,0.2590068578720093,0.004886921960860491,0.16859880089759827
1733404608604752400,1.91175244140625,0.25595253705978394,-0.01466076634824276,0.13439035415649414
1733404608614783500,1.921783447265625,0.24068090319633484,-0.048258353024721146,0.07513642311096191
1733404608624741400,1.931741455078125,0.2278527319431305,-0.05314527451992035,0.03420845419168472
1733404608634773000,1.94177294921875,0.21868975460529327,-0.04092797264456749,0.003054326167330146
1733404608644761000,1.951760986328125,0.20891591906547546,-0.021991148591041565,-0.01771509274840355
1733404608654761500,1.961761474609375,0.19425514340400696,-0.014049900695681572,-0.030543262138962746
1733404608664749800,1.971749755859375,0.1716531366109848,-0.015271631069481373,-0.04459316283464432
1733404608674781000,1.981781005859375,0.14905111491680145,-0.012828170321881771,-0.06536258012056351
1733404608684738800,1.99173876953125,0.11667526513338089,-0.006108652334660292,-0.11178833991289139
1733404608694769700,2.001769775390625,0.09896016865968704,-0.00733038317412138,-0.1362229436635971
1733404608704758500,2.011758544921875,0.07635815441608429,-0.022602014243602753,-0.15577064454555511
1733404608714759000,2.021759033203125,0.05925392732024193,-0.039706241339445114,-0.1716531366109848
1733404608724747500,2.03174755859375,0.048258353024721146,-0.039706241339445114,-0.17837265133857727
1733404608734778400,2.0417783203125,0.04398229718208313,-0.02382374368607998,-0.1661553531885147
1733404608744736500,2.051736572265625,0.04703662544488907,-0.012217304669320583,-0.13316862285137177
1733404608754767400,2.061767333984375,0.05009094998240471,-0.007941247895359993,-0.08246681094169617
1733404608764756200,2.071756103515625,0.05375614017248154,-0.031154127791523933,-0.02382374368607998
1733404608774756600,2.081756591796875,0.04764748737215996,-0.060475658625364304,-0.015882495790719986
1733404608784745200,2.0917451171875,0.03298672288656235,-0.0861319974064827,-0.03420845419168472
1733404608794776000,2.101776123046875,0.00733038317412138,-0.12095131725072861,-0.07330382615327835
1733404608804764400,2.111764404296875,-0.025656340643763542,-0.17531833052635193,-0.12278391420841217
1733404608814765000,2.12176513671875,-0.0555887371301651,-0.23151792585849762,-0.1612684279680252
1733404608824753700,2.131753662109375,-0.07513642311096191,-0.2675589919090271,-0.16310101747512817
1733404608834785300,2.141785400390625,-0.08124507963657379,-0.26633724570274353,-0.07696902006864548
1733404608844742700,2.15174267578125,-0.0708603709936142,-0.2638937830924988,0.02626720629632473
1733404608854802000,2.161802001953125,-0.051312681287527084,-0.252287358045578,0.13316862285137177
1733404608864762400,2.171762451171875,-0.02626720629632473,-0.22479841113090515,0.21380282938480377
1733404608874763000,2.181762939453125,-0.015882495790719986,-0.2070833146572113,0.25473082065582275
1733404608884751000,2.191751220703125,-0.012217304669320583,-0.1869247704744339,0.24617868661880493
1733404608894782200,2.2017822265625,-0.010995574295520782,-0.16920967400074005,0.192422553896904
1733404608904740000,2.211739990234375,-0.030543262138962746,-0.15027284622192383,0.048258353024721146
1733404608914771200,2.221771240234375,-0.04886921867728233,-0.152105450630188,-0.05619960278272629
1733404608924759800,2.231759765625,-0.05497787147760391,-0.1466076523065567,-0.14538592100143433
1733404608934761000,2.241760986328125,-0.05742133408784866,-0.12828169763088226,-0.21013765037059784
1733404608944748800,2.251748779296875,-0.06291911751031876,-0.11667526513338089,-0.2480112910270691
1733404608954780400,2.261780517578125,-0.060475658625364304,-0.11362093687057495,-0.27122417092323303
1733404608964738000,2.271738037109375,-0.05009094998240471,-0.09712757170200348,-0.28466320037841797
1733404608974769400,2.281769287109375,-0.04642575979232788,-0.08552113175392151,-0.2883284091949463
1733404608984757200,2.29175732421875,-0.04581489413976669,-0.07024950534105301,-0.2877175211906433
1733404608994758400,2.30175830078125,-0.05803219974040985,-0.06719517707824707,-0.2669481039047241
1733404609004746200,2.311746337890625,-0.08307767659425735,-0.06475171446800232,-0.21074850857257843
1733404609014777900,2.32177783203125,-0.11362093687057495,-0.06841690838336945,-0.12034045159816742
1733404609024735200,2.3317353515625,-0.1411098688840866,-0.06780604273080826,0.007941247895359993
1733404609034767000,2.34176708984375,-0.16004669666290283,-0.036651913076639175,0.15882496535778046
1733404609044755000,2.3517548828125,-0.16554448008537292,0.03848451003432274,0.32681289315223694
1733404609054786600,2.36178662109375,-0.1771509200334549,0.16249015927314758,0.5656611919403076
1733404609064744000,2.371743896484375,-0.1875356286764145,0.2528982162475586,0.6982190012931824
1733404609074775600,2.381775634765625,-0.19547687470912933,0.323147714138031,0.7849618196487427
1733404609084763400,2.391763427734375,-0.1966986060142517,0.36102136969566345,0.817337691783905
1733404609094764500,2.4017646484375,-0.192422553896904,0.36651915311813354,0.7922922372817993
1733404609104752400,2.41175244140625,-0.19364428520202637,0.3396410644054413,0.7128797173500061
1733404609114782000,2.421781982421875,-0.20402899384498596,0.2816088795661926,0.588263213634491
1733404609124741000,2.4317412109375,-0.21868975460529327,0.23090706765651703,0.3597996234893799
1733404609134771200,2.441771240234375,-0.23884831368923187,0.17043140530586243,0.1814269721508026
1733404609144760600,2.451760498046875,-0.26083946228027344,0.13072516024112701,0.001832595793530345
1733404609154760400,2.461760498046875,-0.2767219543457031,0.08429940044879913,-0.1661553531885147
1733404609164749600,2.47174951171875,-0.2883284091949463,0.015271631069481373,-0.3237585723400116
1733404609174781400,2.481781494140625,-0.2919935882091522,-0.06291911751031876,-0.46181413531303406
1733404609184738600,2.491738525390625,-0.29077184200286865,-0.14355333149433136,-0.5681046843528748
1733404609194770200,2.501770263671875,-0.2987131178379059,-0.2064724564552307,-0.6133087277412415
1733404609204758000,2.511758056640625,-0.32009339332580566,-0.2528982162475586,-0.5681046843528748
1733404609214759700,2.521759765625,-0.3323107063770294,-0.26022860407829285,-0.4758640229701996
1733404609224747500,2.53174755859375,-0.33536502718925476,-0.24373523890972137,-0.3390302062034607
1733404609234779100,2.541779052734375,-0.3323107063770294,-0.20402899384498596,-0.16249015927314758
1733404609244736500,2.551736572265625,-0.3225368559360504,-0.1612684279680252,0.01710422709584236
1733404609254768400,2.561768310546875,-0.3072652220726013,-0.1258382350206375,0.15821409225463867
1733404609264756200,2.571756103515625,-0.2932153046131134,-0.0910189226269722,0.24923302233219147
1733404609274757400,2.58175732421875,-0.28588494658470154,-0.06719517707824707,0.29993483424186707
1733404609284745200,2.5917451171875,-0.2791654169559479,-0.04398229718208313,0.29504790902137756
1733404609294777000,2.601777099609375,-0.2773328125476837,-0.025656340643763542,0.27977627515792847
1733404609304764700,2.6117646484375,-0.2767219543457031,-0.018325956538319588,0.2626720666885376
1733404609314765300,2.621765380859375,-0.2718350291252136,-0.018936822190880775,0.24617868661880493
1733404609324753700,2.631753662109375,-0.2669481039047241,-0.01160643994808197,0.23090706765651703
1733404609334784500,2.641784423828125,-0.26145032048225403,-0.006719517521560192,0.21807889640331268
1733404609344742700,2.65174267578125,-0.251676470041275,0.006719517521560192,0.17959438264369965
1733404609354773800,2.661773681640625,-0.24678955972194672,0.02932153269648552,0.12339477986097336
1733404609364762400,2.671762451171875,-0.24068090319633484,0.05253441259264946,0.051312681287527084
1733404609374762800,2.6817626953125,-0.23273965716362,0.054367005825042725,-0.025656340643763542
1733404609384751000,2.691751220703125,-0.22418753802776337,0.036651913076639175,-0.08857546001672745
1733404609394782200,2.7017822265625,-0.21991148591041565,0.009162978269159794,-0.13011430203914642
1733404609404740000,2.711739990234375,-0.2125810980796814,-0.02076941914856434,-0.15821409225463867
1733404609414772000,2.72177197265625,-0.20402899384498596,-0.021991148591041565,-0.16798794269561768
1733404609424759800,2.731759765625,-0.1918116807937622,-0.003054326167330146,-0.12889257073402405
1733404609434761000,2.741760986328125,-0.17898350954055786,0.0024434609804302454,-0.07147123664617538
1733404609444748800,2.751748779296875,-0.16554448008537292,0.019547687843441963,0.00427605677396059
1733404609454780400,2.761780517578125,-0.15454891324043274,0.0507018156349659,0.08368854224681854
1733404609464737800,2.77173779296875,-0.1459967941045761,0.0659734457731247,0.14355333149433136
1733404609474769000,2.781768798828125,-0.13500121235847473,0.09040805697441101,0.17776179313659668
1733404609484757500,2.791757568359375,-0.12339477986097336,0.10323622822761536,0.18387043476104736
1733404609494757600,2.801757568359375,-0.11423180252313614,0.08002334833145142,0.1459967941045761
1733404609504746200,2.811746337890625,-0.1111774742603302,0.08185594528913498,0.09712757170200348
1733404609514778000,2.821778076171875,-0.11178833991289139,0.09529497474431992,0.015271631069481373
1733404609524735200,2.8317353515625,-0.1160643994808197,0.09040805697441101,-0.08674286305904388
1733404609534767000,2.84176708984375,-0.13500121235847473,0.05742133408784866,-0.17104226350784302
1733404609544755000,2.8517548828125,-0.13866640627384186,0.014049900695681572,-0.21074850857257843
1733404609554786600,2.86178662109375,-0.11178833991289139,-0.03481931984424591,-0.16982053220272064
1733404609564744000,2.871743896484375,-0.007941247895359993,-0.08491026610136032,0.06719517707824707
1733404609574775600,2.881775634765625,0.07208210229873657,-0.04764748737215996,0.2968805134296417
1733404609584763100,2.89176318359375,0.14477506279945374,0.05864306539297104,0.4917465150356293
1733404609594764500,2.9017646484375,0.19975294172763824,0.17409659922122955,0.6029239892959595
1733404609604752400,2.91175244140625,0.23579397797584534,0.28588494658470154,0.6157521605491638
1733404609614783500,2.921783447265625,0.23884831368923187,0.36713001132011414,0.5461135506629944
1733404609624741400,2.931741455078125,0.22602014243602753,0.4001167416572571,0.3995058834552765
1733404609634772200,2.941772216796875,0.20525072515010834,0.38606682419776917,0.17837265133857727
1733404609644761000,2.951760986328125,0.1160643994808197,0.2718350291252136,-0.26511552929878235
1733404609654761500,2.961761474609375,0.04153883829712868,0.08979719132184982,-0.5668829679489136
1733404609664749800,2.971749755859375,0.016493361443281174,-0.10567969083786011,-0.7916813492774963
1733404609674781700,2.98178173828125,0.01771509274840355,-0.17043140530586243,-0.7953465580940247
1733404609684739000,2.991739013671875,0.04398229718208313,-0.03176499158143997,-0.5088507533073425
1733404609694770700,3.001770751953125,0.10445795953273773,0.23945917189121246,0.007941247895359993
1733404609704758300,3.01175830078125,0.21441370248794556,0.4905247986316681,0.6407976150512695
1733404609714759700,3.021759765625,0.41599923372268677,0.5974262356758118,1.5167783498764038
1733404609724747500,3.03174755859375,0.5155702829360962,0.5833762884140015,1.8832975625991821
1733404609734777900,3.04177783203125,0.5510004758834839,0.5699372887611389,2.0146336555480957
1733404609744736500,3.051736572265625,0.5479460954666138,0.5345070958137512,1.8875735998153687
1733404609754769000,3.061768798828125,0.4801400899887085,0.3995058834552765,1.4941763877868652
1733404609764764200,3.07176416015625,0.36224308609962463,0.21807889640331268,0.8918632864952087
1733404609774755800,3.081755859375,0.2076941877603531,0.003054326167330146,0.16737708449363708
1733404609784745200,3.0917451171875,-0.018325956538319588,-0.2840523421764374,-0.8680394887924194
1733404609794776800,3.10177685546875,-0.1258382350206375,-0.35246923565864563,-1.3365731239318848
1733404609804764700,3.1117646484375,-0.2015855312347412,-0.35185837745666504,-1.5754214525222778
1733404609814765800,3.121765869140625,-0.2223549485206604,-0.31459560990333557,-1.5888605117797852
1733404609824753700,3.131753662109375,-0.18875735998153687,-0.26633724570274353,-1.4184291362762451
1733404609834785300,3.141785400390625,-0.12461651116609573,-0.20036379992961884,-1.1020009517669678
1733404609844742700,3.15174267578125,-0.05925392732024193,-0.11850785464048386,-0.6884451508522034
1733404609854774300,3.161774169921875,-0.001832595793530345,-0.060475658625364304,-0.2638937830924988
1733404609864762400,3.171762451171875,0.04703662544488907,-0.03726277872920036,0.1918116807937622
1733404609874763300,3.18176318359375,0.051312681287527084,-0.06352998316287994,0.3335324227809906
1733404609884751000,3.191751220703125,0.0403171069920063,-0.14049901068210602,0.36590829491615295
1733404609894782200,3.2017822265625,0.027488935738801956,-0.23151792585849762,0.34086281061172485
1733404609904740000,3.211739990234375,0.03176499158143997,-0.2981022298336029,0.29504790902137756
1733404609914771200,3.221771240234375,0.05192354694008827,-0.34147366881370544,0.26145032048225403
1733404609924759800,3.231759765625,0.08246681094169617,-0.3591887652873993,0.24678955972194672
1733404609934760200,3.24176025390625,0.12767083942890167,-0.3219259977340698,0.2535090744495392
1733404609944748800,3.251748779296875,0.14905111491680145,-0.26145032048225403,0.2736676335334778
1733404609954780000,3.26177978515625,0.15515977144241333,-0.2076941877603531,0.2767219543457031
1733404609964737800,3.27173779296875,0.14049901068210602,-0.1771509200334549,0.24373523890972137
1733404609974769000,3.281768798828125,0.10934487730264664,-0.18570303916931152,0.17531833052635193
1733404609984757200,3.29175732421875,0.07330382615327835,-0.2376265823841095,0.07880161702632904
1733404609994758000,3.3017578125,0.04214970022439957,-0.2889392673969269,-0.02321287989616394
1733404610004746200,3.311746337890625,0.025656340643763542,-0.2932153046131134,-0.15821409225463867
1733404610014777300,3.32177734375,0.03420845419168472,-0.2571742534637451,-0.2376265823841095
1733404610024735200,3.3317353515625,0.04581489413976669,-0.21441370248794556,-0.30543261766433716
1733404610034766300,3.341766357421875,0.06536258012056351,-0.17409659922122955,-0.3640756905078888
1733404610044755000,3.3517548828125,0.08185594528913498,-0.12217304855585098,-0.3885102868080139
1733404610054786000,3.3617861328125,0.09896016865968704,-0.05742133408784866,-0.37140607833862305
1733404610064744000,3.371743896484375,0.09468411654233932,-0.00733038317412138,-0.31520646810531616
1733404610074775600,3.381775634765625,0.07269296050071716,0.01038470957428217,-0.23884831368923187
1733404610084763400,3.391763427734375,0.0403171069920063,-0.003054326167330146,-0.1716531366109848
1733404610094764300,3.401764404296875,0.01710422709584236,-0.005497787147760391,-0.19425514340400696
1733404610104752400,3.41175244140625,-0.010995574295520782,0.00855211354792118,-0.2724458873271942
1733404610114783200,3.421783203125,-0.05253441259264946,0.006719517521560192,-0.3933972120285034
1733404610124741000,3.4317412109375,-0.1007927656173706,-0.02687807008624077,-0.5375614166259766
1733404610134772700,3.441772705078125,-0.15027284622192383,-0.05314527451992035,-0.6603453159332275
1733404610144760600,3.451760498046875,-0.17959438264369965,-0.1062905490398407,-0.7263187766075134
1733404610154761700,3.46176171875,-0.2064724564552307,-0.16371189057826996,-0.675616979598999
1733404610164749600,3.47174951171875,-0.2272418737411499,-0.18814650177955627,-0.578489363193512
1733404610174781200,3.48178125,-0.24129177629947662,-0.19792033731937408,-0.4538728892803192
1733404610184738600,3.491738525390625,-0.251676470041275,-0.16920967400074005,-0.31093040108680725
1733404610194770400,3.5017705078125,-0.24068090319633484,-0.12095131725072861,-0.16371189057826996
1733404610204758000,3.511758056640625,-0.2070833146572113,-0.0757472887635231,-0.027488935738801956
1733404610214760000,3.521760009765625,-0.16432274878025055,-0.036651913076639175,0.05925392732024193
1733404610224747500,3.53174755859375,-0.12278391420841217,-0.01160643994808197,0.0354301854968071
1733404610234779100,3.541779052734375,-0.12034045159816742,0.005497787147760391,-0.0757472887635231
1733404610244736500,3.551736572265625,-0.13255776464939117,0.04886921867728233,-0.18631389737129211
1733404610254768400,3.561768310546875,-0.15271630883216858,0.10995574295520782,-0.2015855312347412
1733404610264756200,3.571756103515625,-0.15393804013729095,0.17043140530586243,-0.09040805697441101
1733404610274757400,3.58175732421875,-0.14233160018920898,0.2321287989616394,0.12767083942890167
1733404610284745000,3.591744873046875,-0.1362229436635971,0.2742784917354584,0.40072759985923767
1733404610294776800,3.60177685546875,-0.1258382350206375,0.2993239760398865,0.656069278717041
1733404610304764700,3.6117646484375,-0.10751228034496307,0.2816088795661926,0.8808676600456238
1733404610314765800,3.621765869140625,-0.08735372871160507,0.2174680233001709,0.8845328688621521
1733404610324753700,3.631753662109375,-0.07391469180583954,0.12828169763088226,0.7843509912490845
1733404610334784000,3.641783935546875,-0.06963863968849182,0.03420845419168472,0.588874101638794
1733404610344742700,3.65174267578125,-0.06230825558304787,-0.05742133408784866,0.3182607889175415
1733404610354772700,3.661772705078125,-0.07391469180583954,-0.13255776464939117,0.016493361443281174
1733404610364762400,3.671762451171875,-0.09040805697441101,-0.1472185254096985,-0.2583959996700287
1733404610374763300,3.68176318359375,-0.11850785464048386,-0.08674286305904388,-0.5283984541893005
1733404610384751000,3.691751220703125,-0.12217304855585098,0.001832595793530345,-0.5919284224510193
1733404610394783000,3.701782958984375,-0.12034045159816742,0.09285151958465576,-0.5491678714752197
1733404610404740000,3.711739990234375,-0.12278391420841217,0.17959438264369965,-0.4129449129104614
1733404610414771700,3.721771728515625,-0.11667526513338089,0.2278527319431305,-0.23090706765651703
1733404610424759800,3.731759765625,-0.11178833991289139,0.22907446324825287,-0.048258353024721146
1733404610434760700,3.7417607421875,-0.10201449692249298,0.1918116807937622,0.08796459436416626
1733404610444748800,3.751748779296875,-0.06963863968849182,0.1258382350206375,0.19914206862449646
1733404610454780400,3.761780517578125,-0.04764748737215996,0.0806342139840126,0.22052235901355743
1733404610464737800,3.77173779296875,-0.02015855349600315,0.027488935738801956,0.20586158335208893
1733404610474769400,3.781769287109375,-0.00366519158706069,-0.02932153269648552,0.1765400618314743
1733404610484757200,3.79175732421875,-0.005497787147760391,-0.0659734457731247,0.13988813757896423
1733404610494758400,3.80175830078125,-0.016493361443281174,-0.08552113175392151,0.09773843735456467
1733404610504746200,3.811746337890625,-0.031154127791523933,-0.06475171446800232,0.054367005825042725
1733404610514777900,3.82177783203125,-0.05314527451992035,-0.021380282938480377,0.01160643994808197
1733404610524735200,3.8317353515625,-0.08491026610136032,0.05619960278272629,-0.03298672288656235
1733404610534766800,3.841766845703125,-0.09162978827953339,0.11667526513338089,-0.042760565876960754
1733404610544755000,3.8517548828125,-0.08857546001672745,0.15577064454555511,-0.04642575979232788
1733404610554786000,3.8617861328125,-0.08674286305904388,0.17348572611808777,-0.051312681287527084
1733404610564744000,3.871743896484375,-0.0861319974064827,0.16554448008537292,-0.07269296050071716
1733404610574775000,3.881775146484375,-0.09407325088977814,0.1258382350206375,-0.10201449692249298
1733404610584763400,3.891763427734375,-0.10873401165008545,0.07941248267889023,-0.14294247329235077
1733404610594764500,3.9017646484375,-0.13316862285137177,0.03787364438176155,-0.19486601650714874
1733404610604752400,3.91175244140625,-0.14233160018920898,0.03420845419168472,-0.20586158335208893
1733404610614784000,3.921783935546875,-0.1472185254096985,0.045204028487205505,-0.18081611394882202
1733404610624741400,3.931741455078125,-0.13805554807186127,0.08002334833145142,-0.12339477986097336
1733404610634773000,3.94177294921875,-0.1215621829032898,0.11056660860776901,-0.04153883829712868
1733404610644761000,3.951760986328125,-0.10262536257505417,0.11728613078594208,0.04214970022439957
1733404610654761500,3.961761474609375,-0.0861319974064827,0.09896016865968704,0.10506882518529892
1733404610664750000,3.97175,-0.06536258012056351,0.08307767659425735,0.13377949595451355
1733404610674781000,3.981781005859375,-0.0659734457731247,0.07757988572120667,0.09834930300712585
1733404610684739000,3.991739013671875,-0.07330382615327835,0.07941248267889023,0.018936822190880775
1733404610694770000,4.00177001953125,-0.08674286305904388,0.07819075137376785,-0.0861319974064827
1733404610704758500,4.011758544921875,-0.10873401165008545,0.056810468435287476,-0.20402899384498596
1733404610714759700,4.021759765625,-0.12767083942890167,0.031154127791523933,-0.31154128909111023
1733404610724747500,4.03174755859375,-0.14782938361167908,-0.021380282938480377,-0.37201693654060364
1733404610734779100,4.041779052734375,-0.15027284622192383,-0.09407325088977814,-0.3683517575263977
1733404610744736500,4.051736572265625,-0.09773843735456467,-0.1618792861700058,-0.23029619455337524
1733404610754768100,4.06176806640625,-0.006108652334660292,-0.17531833052635193,-0.08735372871160507
1733404610764756200,4.071756103515625,0.10567969083786011,-0.1918116807937622,0.05253441259264946
1733404610774757000,4.081757080078125,0.20891591906547546,-0.18997909128665924,0.14355333149433136
1733404610784745200,4.0917451171875,0.2889392673969269,-0.15454891324043274,0.17531833052635193
1733404610794777000,4.101777099609375,0.3390302062034607,-0.08918632566928864,0.13805554807186127
1733404610804734000,4.11173388671875,0.36713001132011414,-0.01710422709584236,0.013439035043120384
1733404610814765800,4.121765869140625,0.33475416898727417,-0.021991148591041565,-0.30543261766433716
1733404610824753400,4.13175341796875,0.2480112910270691,-0.08429940044879913,-0.5497786998748779
1733404610834784800,4.14178466796875,0.12339477986097336,-0.16982053220272064,-0.7538077235221863
1733404610844742700,4.15174267578125,0.018325956538319588,-0.14294247329235077,-0.807563841342926
1733404610854804200,4.16180419921875,-0.01038470957428217,0.001832595793530345,-0.617584764957428
1733404610864762400,4.171762451171875,0.04642575979232788,0.19364428520202637,-0.1618792861700058
1733404610874763300,4.18176318359375,0.17531833052635193,0.33719760179519653,0.45875978469848633
1733404610884751000,4.191751220703125,0.4153883755207062,0.42699480056762695,1.3151928186416626
1733404610894781400,4.201781494140625,0.5467243790626526,0.4050036668777466,1.6578882932662964
1733404610904740000,4.211739990234375,0.5949827432632446,0.32009339332580566,1.7660114765167236
1733404610914770700,4.221770751953125,0.5357288122177124,0.18448130786418915,1.623068928718567
1733404610924759800,4.231759765625,0.45326200127601624,0.1820378452539444,1.2315043210983276
1733404610934761700,4.24176171875,0.3494149148464203,0.1258382350206375,0.6939429044723511
1733404610944748800,4.251748779296875,0.24129177629947662,-0.0959058403968811,0.05497787147760391
1733404610954780400,4.261780517578125,0.10445795953273773,-0.24556782841682434,-0.4899139404296875
1733404610964737800,4.27173779296875,-0.04703662544488907,-0.2015855312347412,-0.998153805732727
1733404610974769400,4.281769287109375,-0.08979719132184982,-0.20097467303276062,-1.1343767642974854
1733404610984757200,4.29175732421875,-0.09346238523721695,-0.2278527319431305,-1.131933331489563
1733404610994758400,4.30175830078125,-0.06536258012056351,-0.24678955972194672,-1.0268645286560059
1733404611004746200,4.311746337890625,-0.02687807008624077,-0.2577851414680481,-0.8594874143600464
1733404611014777900,4.32177783203125,0.018936822190880775,-0.2583959996700287,-0.6646214127540588
1733404611024735200,4.3317353515625,0.05803219974040985,-0.2535090744495392,-0.4447098970413208
1733404611034766800,4.341766845703125,0.1007927656173706,-0.242513507604599,-0.12767083942890167
1733404611044755000,4.3517548828125,0.11423180252313614,-0.23884831368923187,0.039706241339445114
1733404611054786600,4.36178662109375,0.11239920556545258,-0.2272418737411499,0.15271630883216858
1733404611064744000,4.371743896484375,0.08918632566928864,-0.22602014243602753,0.21441370248794556
1733404611074775600,4.381775634765625,0.05742133408784866,-0.2278527319431305,0.22479841113090515
1733404611084763400,4.391763427734375,0.02382374368607998,-0.22907446324825287,0.192422553896904
1733404611094763800,4.401763671875,-0.003054326167330146,-0.22540926933288574,0.13744467496871948
1733404611104752400,4.41175244140625,-0.03298672288656235,-0.20341812074184418,0.05619960278272629
1733404611114782500,4.421782470703125,-0.039706241339445114,-0.16737708449363708,0.007941247895359993
1733404611124741000,4.4317412109375,-0.039095375686883926,-0.13255776464939117,-0.03420845419168472
1733404611134772000,4.44177197265625,-0.03848451003432274,-0.09957103431224823,-0.06169738993048668
1733404611144760600,4.451760498046875,-0.03298672288656235,-0.06658431142568588,-0.07941248267889023
1733404611154761700,4.46176171875,-0.02932153269648552,-0.036041051149368286,-0.09285151958465576
1733404611164749600,4.47174951171875,-0.025045474991202354,-0.012217304669320583,-0.09285151958465576
1733404611174781400,4.481781494140625,-0.025656340643763542,0.00427605677396059,-0.0757472887635231
1733404611184738600,4.491738525390625,-0.0403171069920063,0.001832595793530345,-0.03298672288656235
1733404611194770700,4.501770751953125,-0.05192354694008827,0.0024434609804302454,0.001832595793530345
1733404611204758000,4.511758056640625,-0.060475658625364304,0.005497787147760391,0.030543262138962746
1733404611214759700,4.521759765625,-0.0757472887635231,0.003054326167330146,0.056810468435287476
1733404611224747500,4.53174755859375,-0.09285151958465576,-0.012828170321881771,0.06536258012056351
1733404611234779100,4.541779052734375,-0.09957103431224823,-0.03237585723400116,0.04092797264456749
1733404611244736500,4.551736572265625,-0.09407325088977814,-0.05375614017248154,-0.00427605677396059
1733404611254768400,4.561768310546875,-0.08918632566928864,-0.08429940044879913,-0.08307767659425735
1733404611264756200,4.571756103515625,-0.08307767659425735,-0.09712757170200348,-0.1459967941045761
1733404611274757000,4.581757080078125,-0.08429940044879913,-0.11239920556545258,-0.19486601650714874
1733404611284745200,4.5917451171875,-0.09407325088977814,-0.1417207419872284,-0.2168571650981903
1733404611294776800,4.60177685546875,-0.12095131725072861,-0.18875735998153687,-0.2076941877603531
1733404611304764700,4.6117646484375,-0.16065755486488342,-0.26450464129447937,-0.1814269721508026
1733404611314765800,4.621765869140625,-0.21624629199504852,-0.3396410644054413,-0.15393804013729095
1733404611324753700,4.631753662109375,-0.3237585723400116,-0.43676865100860596,-0.13561208546161652
1733404611334785000,4.641784912109375,-0.3885102868080139,-0.44776421785354614,-0.10323622822761536
1733404611344742700,4.65174267578125,-0.4202753007411957,-0.3891211748123169,-0.04214970022439957
1733404611354774500,4.6617744140625,-0.41111230850219727,-0.2968805134296417,0.027488935738801956
1733404611364762400,4.671762451171875,-0.3732386529445648,-0.22418753802776337,0.07024950534105301
1733404611374763500,4.681763427734375,-0.33047810196876526,-0.17776179313659668,0.07269296050071716
1733404611384751000,4.691751220703125,-0.30054569244384766,-0.1264491081237793,0.05803219974040985
1733404611394783000,4.701782958984375,-0.26511552929878235,0.010995574295520782,0.08246681094169617
1733404611404740000,4.711739990234375,-0.15577064454555511,0.394618958234787,0.32620203495025635
1733404611414771700,4.721771728515625,-0.08185594528913498,0.6389650702476501,0.6163630485534668
1733404611424759800,4.731759765625,-0.030543262138962746,0.8087855577468872,0.940732479095459
1733404611434760700,4.7417607421875,-0.0012217304902151227,0.9010262489318848,1.2345587015151978
1733404611444748800,4.751748779296875,0.006108652334660292,0.911410927772522,1.4208725690841675
1733404611454779100,4.761779052734375,-0.0006108652451075613,0.8594874143600464,1.4587461948394775
1733404611464737800,4.77173779296875,-0.01771509274840355,0.7367035150527954,1.3298536539077759
1733404611474770400,4.7817705078125,-0.04642575979232788,0.4691445231437683,0.8484918475151062
1733404611484757200,4.79175732421875,-0.0806342139840126,0.24923302233219147,0.3781255781650543
1733404611494759400,4.801759521484375,-0.14477506279945374,0.01771509274840355,-0.14355333149433136
1733404611504746200,4.811746337890625,-0.21380282938480377,-0.16310101747512817,-0.6304129362106323
1733404611514777900,4.82177783203125,-0.24923302233219147,-0.2541199326515198,-0.9896016716957092
1733404611524735200,4.8317353515625,-0.27611109614372253,-0.30482175946235657,-1.1966849565505981
1733404611534766800,4.841766845703125,-0.294437050819397,-0.3439171314239502,-1.2626584768295288
1733404611544755000,4.8517548828125,-0.2828305959701538,-0.2974913716316223,-1.083064079284668
1733404611554786300,4.861786376953125,-0.252287358045578,-0.21319197118282318,-0.8203920125961304
1733404611564743700,4.87174365234375,-0.21807889640331268,-0.13927727937698364,-0.5143485069274902
1733404611574775600,4.881775634765625,-0.18509216606616974,-0.08674286305904388,-0.2223549485206604
1733404611584763400,4.891763427734375,-0.1563815027475357,-0.05314527451992035,0.012217304669320583
1733404611594764500,4.9017646484375,-0.1417207419872284,-0.04703662544488907,0.1667662113904953
1733404611604752400,4.91175244140625,-0.1313360333442688,-0.05253441259264946,0.24434609711170197
1733404611614784000,4.921783935546875,-0.10567969083786011,-0.07330382615327835,0.2632829248905182
1733404611624741400,4.931741455078125,-0.08307767659425735,-0.08735372871160507,0.24556782841682434
1733404611634773000,4.94177294921875,-0.06414084881544113,-0.09224065393209457,0.21930062770843506
1733404611644761000,4.951760986328125,-0.04642575979232788,-0.06475171446800232,0.1973094791173935
1733404611654761500,4.961761474609375,-0.025656340643763542,-0.03420845419168472,0.1765400618314743
1733404611664749800,4.971749755859375,-0.01038470957428217,0.003054326167330146,0.14538592100143433
1733404611674781700,4.98178173828125,0,0.048258353024721146,0.09773843735456467
1733404611684739000,4.991739013671875,0.0006108652451075613,0.1062905490398407,0.03237585723400116
1733404611694770700,5.001770751953125,-0.007941247895359993,0.14844025671482086,-0.06902777403593063
1733404611704758500,5.011758544921875,-0.02015855349600315,0.12400564551353455,-0.11728613078594208
1733404611714759400,5.021759521484375,-0.036041051149368286,0.06536258012056351,-0.14477506279945374
1733404611724747500,5.03174755859375,-0.04886921867728233,-0.0006108652451075613,-0.16554448008537292
1733404611734779000,5.04177880859375,-0.05619960278272629,-0.04703662544488907,-0.18387043476104736
1733404611744736500,5.051736572265625,-0.056810468435287476,-0.05619960278272629,-0.192422553896904
1733404611754768400,5.061768310546875,-0.05925392732024193,-0.05314527451992035,-0.1966986060142517
1733404611764756200,5.071756103515625,-0.06169738993048668,-0.06841690838336945,-0.1973094791173935
1733404611774757000,5.081757080078125,-0.05742133408784866,-0.05009094998240471,-0.19303341209888458
1733404611784745200,5.0917451171875,-0.04764748737215996,-0.005497787147760391,-0.16859880089759827
1733404611794776800,5.10177685546875,-0.031154127791523933,0.04337143152952194,-0.11667526513338089
1733404611804764700,5.1117646484375,-0.009773843921720982,0.09651670604944229,-0.05314527451992035
1733404611814765300,5.121765380859375,-0.007941247895359993,0.1313360333442688,-0.01466076634824276
1733404611824753700,5.131753662109375,-0.024434609338641167,0.13072516024112701,-0.031154127791523933
1733404611834785000,5.141784912109375,-0.08124507963657379,0.1215621829032898,-0.16249015927314758
1733404611844742700,5.15174267578125,-0.14233160018920898,0.1014036312699318,-0.2974913716316223
1733404611854774300,5.161774169921875,-0.20036379992961884,0.0555887371301651,-0.4245513379573822
1733404611864762400,5.171762451171875,-0.23029619455337524,0.02626720629632473,-0.48747047781944275
1733404611874763300,5.18176318359375,-0.21930062770843506,0.02687807008624077,-0.4306600093841553
1733404611884751000,5.191751220703125,-0.1661553531885147,0.056810468435287476,-0.2535090744495392
1733404611894783000,5.201782958984375,-0.08368854224681854,0.06841690838336945,0
1733404611904740000,5.211739990234375,0.006108652334660292,0.07330382615327835,0.251676470041275
1733404611914771700,5.221771728515625,0.0757472887635231,0.11178833991289139,0.4648684561252594
1733404611924759800,5.231759765625,0.08735372871160507,0.12522737681865692,0.455705463886261
1733404611934759700,5.241759765625,0.10262536257505417,0.14416420459747314,0.35735616087913513
1733404611944748800,5.251748779296875,0.1362229436635971,0.1368338167667389,0.1875356286764145
1733404611954780400,5.261780517578125,0.19486601650714874,0.11362093687057495,-0.03420845419168472
1733404611964737800,5.27173779296875,0.25473082065582275,0.07941248267889023,-0.2742784917354584
1733404611974769000,5.281768798828125,0.2938261926174164,0.07452555745840073,-0.4801400899887085
1733404611984757200,5.29175732421875,0.2736676335334778,0.21074850857257843,-0.5540547966957092
1733404611994758000,5.3017578125,0.25045475363731384,0.37079519033432007,-0.3439171314239502
1733404612004751600,5.311751708984375,0.29016098380088806,0.5393940210342407,0.09957103431224823
1733404612014777300,5.32177734375,0.39645153284072876,0.6487388610839844,0.6774495840072632
1733404612024735200,5.3317353515625,0.5436700582504272,0.7134906053543091,1.2681562900543213
1733404612034765800,5.341765869140625,0.6902777552604675,0.6963863968849182,1.7660114765167236
1733404612044755000,5.3517548828125,0.7953465580940247,0.6126978397369385,2.085494041442871
1733404612054785300,5.361785400390625,0.8136724829673767,0.42149701714515686,2.0861048698425293
1733404612064743700,5.37174365234375,0.7067710757255554,0.2681698501110077,1.7177530527114868
1733404612074988800,5.38198876953125,0.5277875661849976,0.09834930300712585,1.0891727209091187
1733404612084763400,5.391763427734375,0.313373863697052,-0.08491026610136032,0.2822197377681732
1733404612094767600,5.401767578125,0.11728613078594208,-0.2431243658065796,-0.5613851547241211
1733404612104752400,5.41175244140625,-0.05619960278272629,-0.3744603991508484,-1.2614367008209229
1733404612114783200,5.421783203125,-0.1716531366109848,-0.4715879559516907,-1.718363881111145
1733404612124741000,5.4317412109375,-0.1814269721508026,-0.5186246037483215,-1.9034560918807983
1733404612134772500,5.4417724609375,-0.0708603709936142,-0.5277875661849976,-1.7061465978622437
1733404612144760600,5.451760498046875,0.05742133408784866,-0.49235737323760986,-1.3267992734909058
1733404612154761700,5.46176171875,0.192422553896904,-0.4147774875164032,-0.8417723178863525
1733404612164749600,5.47174951171875,0.3084869384765625,-0.33597588539123535,-0.3585779070854187
1733404612174781400,5.481781494140625,0.3793473243713379,-0.2730567753314972,0.04337143152952194
1733404612184738600,5.491738525390625,0.3878994286060333,-0.21502456068992615,0.3176499307155609
1733404612194770400,5.5017705078125,0.3628539443016052,-0.1716531366109848,0.44715335965156555
1733404612204758000,5.511758056640625,0.29626965522766113,-0.1319468915462494,0.423329621553421
1733404612214759400,5.521759521484375,0.24190263450145721,-0.1466076523065567,0.3292563557624817
1733404612224747500,5.53174755859375,0.1966986060142517,-0.15332718193531036,0.2321287989616394
1733404612234778400,5.5417783203125,0.15943582355976105,-0.14844025671482086,0.15760323405265808
1733404612244736500,5.551736572265625,0.13866640627384186,-0.1411098688840866,0.10812314599752426
1733404612254767600,5.561767578125,0.1313360333442688,-0.13072516024112701,0.07880161702632904
1733404612264756000,5.571755859375,0.1368338167667389,-0.10873401165008545,0.054367005825042725
1733404612274756600,5.581756591796875,0.1417207419872284,-0.08857546001672745,0.03787364438176155
1733404612284745000,5.591744873046875,0.12828169763088226,-0.09162978827953339,0.025656340643763542
1733404612294776800,5.60177685546875,0.10995574295520782,-0.09285151958465576,0.009773843921720982
1733404612304764700,5.6117646484375,0.09346238523721695,-0.09162978827953339,-0.01466076634824276
1733404612314765800,5.621765869140625,0.07330382615327835,-0.07391469180583954,-0.03726277872920036
1733404612324753400,5.63175341796875,0.04459316283464432,-0.05375614017248154,-0.048258353024721146
1733404612334785000,5.641784912109375,0.013439035043120384,-0.05742133408784866,-0.054367005825042725
1733404612344742700,5.65174267578125,-0.012828170321881771,-0.07880161702632904,-0.051312681287527084
1733404612354773800,5.661773681640625,-0.04581489413976669,-0.13255776464939117,-0.03176499158143997
1733404612364762400,5.671762451171875,-0.056810468435287476,-0.17837265133857727,-0.03787364438176155
1733404612374762500,5.681762451171875,-0.06291911751031876,-0.2076941877603531,-0.07024950534105301
1733404612384751000,5.691751220703125,-0.05314527451992035,-0.20463985204696655,-0.12339477986097336
1733404612394783000,5.701782958984375,-0.04398229718208313,-0.19608774781227112,-0.17470745742321014
1733404612404740000,5.711739990234375,-0.033597588539123535,-0.19975294172763824,-0.23090706765651703
1733404612414771700,5.721771728515625,-0.031154127791523933,-0.20525072515010834,-0.28588494658470154
1733404612424759800,5.731759765625,-0.04642575979232788,-0.21807889640331268,-0.3433062732219696
1733404612434760700,5.7417607421875,-0.0708603709936142,-0.23945917189121246,-0.33536502718925476
1733404612444748800,5.751748779296875,-0.10018189996480942,-0.2590068578720093,-0.2681698501110077
1733404612454780400,5.761780517578125,-0.1368338167667389,-0.2871066629886627,-0.1618792861700058
1733404612464737500,5.771737548828125,-0.1869247704744339,-0.3341432809829712,-0.05314527451992035
1733404612474769400,5.781769287109375,-0.24190263450145721,-0.3927863538265228,0.018325956538319588
1733404612484757200,5.79175732421875,-0.3072652220726013,-0.4550946056842804,0.03726277872920036
1733404612494758700,5.801758544921875,-0.36224308609962463,-0.45753806829452515,0.02076941914856434
1733404612504746200,5.811746337890625,-0.3634648323059082,-0.35185837745666504,-0.0006108652451075613
1733404612514777900,5.82177783203125,-0.32681289315223694,-0.2474004179239273,-0.0012217304902151227
1733404612524735200,5.8317353515625,-0.2779437005519867,-0.14477506279945374,-0.0006108652451075613
1733404612534766800,5.841766845703125,-0.24373523890972137,-0.028099801391363144,0.0006108652451075613
1733404612544755000,5.8517548828125,-0.22602014243602753,0.1472185254096985,0.02932153269648552
1733404612554786000,5.8617861328125,-0.20525072515010834,0.36529740691185,0.12889257073402405
1733404612564743700,5.87174365234375,-0.16432274878025055,0.6004805564880371,0.34025195240974426
1733404612574774500,5.8817744140625,-0.11972958594560623,0.7898487448692322,0.8130616545677185
1733404612584763400,5.891763427734375,-0.10506882518529892,0.7904596328735352,1.1288789510726929
1733404612594764300,5.901764404296875,-0.09957103431224823,0.7043276429176331,1.348179578781128
1733404612604752400,5.91175244140625,-0.09896016865968704,0.5638286471366882,1.4275920391082764
1733404612614783000,5.921782958984375,-0.08979719132184982,0.3640756905078888,1.3463469743728638
1733404612624741400,5.931741455078125,-0.07513642311096191,0.15393804013729095,1.1105530261993408
1733404612634774000,5.94177392578125,-0.07819075137376785,-0.025045474991202354,0.7531968355178833
1733404612644761000,5.951760986328125,-0.11728613078594208,-0.2431243658065796,0.0861319974064827
1733404612654761000,5.961760986328125,-0.1563815027475357,-0.32498031854629517,-0.3744603991508484
1733404612664750000,5.97175,-0.19486601650714874,-0.33597588539123535,-0.7611380815505981
1733404612674781700,5.98178173828125,-0.2272418737411499,-0.2883284091949463,-1.036027431488037
1733404612684739000,5.991739013671875,-0.26572638750076294,-0.20036379992961884,-1.179580807685852
1733404612694770700,6.001770751953125,-0.3017674386501312,-0.09957103431224823,-1.188132882118225
1733404612704758500,6.011758544921875,-0.32131510972976685,-0.006108652334660292,-1.0690141916275024
1733404612714759700,6.021759765625,-0.3225368559360504,0.08124507963657379,-0.7171558141708374
1733404612724747500,6.03174755859375,-0.2993239760398865,0.11789698898792267,-0.4349360466003418
1733404612734779100,6.041779052734375,-0.27611109614372253,0.12339477986097336,-0.182648703455925
1733404612744736500,6.051736572265625,-0.25045475363731384,0.0959058403968811,-0.0012217304902151227
1733404612754768400,6.061768310546875,-0.2223549485206604,0.051312681287527084,0.10018189996480942
1733404612764756200,6.071756103515625,-0.2021963894367218,-0.00733038317412138,0.13988813757896423
1733404612774757400,6.08175732421875,-0.18081611394882202,-0.05009094998240471,0.1508837193250656
1733404612784745200,6.0917451171875,-0.15882496535778046,-0.07024950534105301,0.1514945775270462
1733404612794776800,6.10177685546875,-0.12522737681865692,-0.056810468435287476,0.15515977144241333
1733404612804764700,6.1117646484375,-0.09712757170200348,-0.014049900695681572,0.15943582355976105
1733404612814765800,6.121765869140625,-0.06719517707824707,0.03848451003432274,0.15821409225463867
1733404612824753700,6.131753662109375,-0.04948008432984352,0.0806342139840126,0.152105450630188
1733404612834784500,6.141784423828125,-0.04214970022439957,0.11850785464048386,0.13744467496871948
1733404612844742700,6.15174267578125,-0.039095375686883926,0.1270599663257599,0.08796459436416626
1733404612854802000,6.161802001953125,-0.051312681287527084,0.10445795953273773,0.00855211354792118
1733404612864762400,6.171762451171875,-0.07941248267889023,0.054367005825042725,-0.14966198801994324
1733404612874763300,6.18176318359375,-0.09834930300712585,0.00427605677396059,-0.2626720666885376
1733404612884751000,6.191751220703125,-0.1111774742603302,-0.04703662544488907,-0.36102136969566345
1733404612894783000,6.201782958984375,-0.11972958594560623,-0.07147123664617538,-0.43615779280662537
1733404612904740000,6.211739990234375,-0.12461651116609573,-0.09712757170200348,-0.48869219422340393
1733404612914771700,6.221771728515625,-0.12278391420841217,-0.10567969083786011,-0.5057964324951172
1733404612924759800,6.231759765625,-0.11056660860776901,-0.08796459436416626,-0.47830748558044434
1733404612934760700,6.2417607421875,-0.06475171446800232,-0.028099801391363144,-0.33597588539123535
1733404612944748800,6.251748779296875,-0.02687807008624077,0.006108652334660292,-0.18631389737129211
1733404612954780400,6.261780517578125,0.005497787147760391,0.03237585723400116,-0.02626720629632473
1733404612964737800,6.27173779296875,0.018936822190880775,0.048258353024721146,0.09896016865968704
1733404612974769400,6.281769287109375,0.009773843921720982,0.0555887371301651,0.1508837193250656
1733404612984757200,6.29175732421875,-0.02015855349600315,0.060475658625364304,0.13072516024112701
1733404612994758700,6.301758544921875,-0.059864792972803116,0.05925392732024193,0.04764748737215996
1733404613004746200,6.311746337890625,-0.10201449692249298,0.03787364438176155,-0.06963863968849182
1733404613014778000,6.321778076171875,-0.15760323405265808,-0.028099801391363144,-0.2370157092809677
1733404613024735500,6.331735595703125,-0.18387043476104736,-0.09162978827953339,-0.2926044464111328
1733404613034766800,6.341766845703125,-0.18387043476104736,-0.14905111491680145,-0.2626720666885376
1733404613044755000,6.3517548828125,-0.152105450630188,-0.19364428520202637,-0.14233160018920898
1733404613054786600,6.36178662109375,-0.07513642311096191,-0.1869247704744339,0.0354301854968071
1733404613064744000,6.371743896484375,0.02871066704392433,-0.11301007121801376,0.23090706765651703
1733404613074775600,6.381775634765625,0.13744467496871948,-0.00733038317412138,0.4056145250797272
1733404613084763400,6.391763427734375,0.26572638750076294,0.17348572611808777,0.47708576917648315
1733404613094764500,6.4017646484375,0.33597588539123535,0.22357667982578278,0.33047810196876526
1733404613104752400,6.41175244140625,0.3744603991508484,0.21624629199504852,0.07147123664617538
1733404613114783000,6.421782958984375,0.34025195240974426,0.15027284622192383,-0.2321287989616394
1733404613124741000,6.4317412109375,0.24556782841682434,0.09651670604944229,-0.475253164768219
1733404613134772200,6.441772216796875,0.1258382350206375,0.1007927656173706,-0.5748242139816284
1733404613144760600,6.451760498046875,0.05742133408784866,0.20586158335208893,-0.41661009192466736
1733404613154761200,6.46176123046875,0.13011430203914642,0.47830748558044434,0.35735616087913513
1733404613164749600,6.47174951171875,0.2431243658065796,0.5308418869972229,1.036027431488037
1733404613174780200,6.4817802734375,0.375071257352829,0.4807509481906891,1.6694947481155396
1733404613184738600,6.491738525390625,0.5106833577156067,0.40133845806121826,2.144136905670166
1733404613194769000,6.501768798828125,0.6041457056999207,0.25045475363731384,2.3438899517059326
1733404613204758000,6.511758056640625,0.6206390857696533,0.07208210229873657,2.216830015182495
1733404613214761200,6.52176123046875,0.5742133259773254,-0.10384709388017654,1.7641788721084595
1733404613224747500,6.53174755859375,0.475253164768219,-0.29077184200286865,1.0403034687042236
1733404613234780700,6.54178076171875,0.28099802136421204,-0.4715879559516907,-0.2926044464111328
1733404613244736500,6.551736572265625,0.19425514340400696,-0.43799036741256714,-1.112385630607605
1733404613254768000,6.56176806640625,0.13439035415649414,-0.3927863538265228,-1.718363881111145
1733404613264756200,6.571756103515625,0.1111774742603302,-0.3842342495918274,-2.052507162094116
1733404613274757000,6.581757080078125,0.1215621829032898,-0.34513887763023376,-2.105041742324829
1733404613284745200,6.5917451171875,0.15577064454555511,-0.2730567753314972,-1.8985692262649536
1733404613294776800,6.60177685546875,0.19303341209888458,-0.17409659922122955,-1.4856243133544922
1733404613304764700,6.6117646484375,0.24373523890972137,-0.016493361443281174,-0.6963863968849182
1733404613314765800,6.621765869140625,0.24862214922904968,0.0403171069920063,-0.20830504596233368
1733404613324753700,6.631753662109375,0.23396138846874237,0.059864792972803116,0.1508837193250656
1733404613334785500,6.64178564453125,0.2076941877603531,0.0757472887635231,0.3597996234893799
1733404613344742700,6.65174267578125,0.15943582355976105,0.11423180252313614,0.44287729263305664
1733404613354774300,6.661774169921875,0.10995574295520782,0.10384709388017654,0.44104471802711487
1733404613364762400,6.671762451171875,0.07208210229873657,0.0757472887635231,0.40622538328170776
1733404613374763300,6.68176318359375,0.036651913076639175,0.021380282938480377,0.35613444447517395
1733404613384751000,6.691751220703125,0.025656340643763542,-0.02076941914856434,0.32620203495025635
1733404613394782200,6.7017822265625,0.02076941914856434,-0.05497787147760391,0.29504790902137756
1733404613404740000,6.711739990234375,0.018936822190880775,-0.06902777403593063,0.26022860407829285
1733404613414771200,6.721771240234375,0.015882495790719986,-0.06658431142568588,0.21319197118282318
1733404613424759800,6.731759765625,0.00855211354792118,-0.04398229718208313,0.1563815027475357
1733404613434760700,6.7417607421875,-0.012217304669320583,-0.02626720629632473,0.1111774742603302
1733404613444748800,6.751748779296875,-0.04948008432984352,0.01710422709584236,0.0861319974064827
1733404613454780400,6.761780517578125,-0.12461651116609573,0.06963863968849182,0.08735372871160507
1733404613464737800,6.77173779296875,-0.1716531366109848,0.1062905490398407,0.11423180252313614
1733404613474769700,6.781769775390625,-0.20830504596233368,0.13988813757896423,0.16310101747512817
1733404613484757500,6.791757568359375,-0.23579397797584534,0.16737708449363708,0.22479841113090515
1733404613494758700,6.801758544921875,-0.24434609711170197,0.18570303916931152,0.29504790902137756
1733404613504746200,6.811746337890625,-0.25045475363731384,0.18448130786418915,0.3500257730484009
1733404613514777900,6.82177783203125,-0.252287358045578,0.16737708449363708,0.3695734739303589
1733404613524735200,6.8317353515625,-0.242513507604599,0.12767083942890167,0.3127630054950714
1733404613534766800,6.841766845703125,-0.24190263450145721,0.06414084881544113,0.23640485107898712
1733404613544755000,6.8517548828125,-0.24923302233219147,0.01038470957428217,0.15821409225463867
1733404613554786600,6.86178662109375,-0.26511552929878235,-0.006108652334660292,0.08368854224681854
1733404613564743700,6.87174365234375,-0.2730567753314972,0.025045474991202354,0.015882495790719986
1733404613574775600,6.881775634765625,-0.2736676335334778,0.12522737681865692,-0.03176499158143997
1733404613584763400,6.891763427734375,-0.2877175211906433,0.21807889640331268,-0.04459316283464432
1733404613594764500,6.9017646484375,-0.3170390725135803,0.24678955972194672,0.03420845419168472
1733404613604752400,6.91175244140625,-0.29077184200286865,0.18509216606616974,0.14233160018920898
1733404613614784000,6.921783935546875,-0.2834414839744568,0.19058994948863983,0.2974913716316223
1733404613624741400,6.931741455078125,-0.2620611786842346,0.13500121235847473,0.413555771112442
1733404613634773000,6.94177294921875,-0.24373523890972137,0.048258353024721146,0.4495968222618103
1733404613644761000,6.951760986328125,-0.22296582162380219,0.004886921960860491,0.4043927788734436
1733404613654762200,6.96176220703125,-0.19975294172763824,-0.0555887371301651,0.27061331272125244
1733404613664750000,6.97175,-0.18448130786418915,-0.14416420459747314,0.07635815441608429
1733404613674782000,6.981781982421875,-0.21135938167572021,-0.22113321721553802,-0.1869247704744339
1733404613684739000,6.991739013671875,-0.24190263450145721,-0.20586158335208893,-0.2632829248905182
1733404613694770700,7.001770751953125,-0.2321287989616394,-0.09834930300712585,-0.18509216606616974
1733404613704758300,7.01175830078125,-0.17043140530586243,0.09407325088977814,0.09285151958465576
1733404613714759700,7.021759765625,-0.08307767659425735,0.26939156651496887,0.5106833577156067
1733404613724747500,7.03174755859375,0.005497787147760391,0.37690386176109314,0.9205739498138428
1733404613734779000,7.04177880859375,0.09162978827953339,0.40683624148368835,1.2223412990570068
1733404613744736500,7.051736572265625,0.16493362188339233,0.375071257352829,1.4104878902435303
1733404613754768100,7.06176806640625,0.17043140530586243,0.3237585723400116,1.3457361459732056
1733404613764756200,7.071756103515625,0.1661553531885147,0.22663100063800812,1.1386528015136719
1733404613774756600,7.081756591796875,0.14416420459747314,0.10690141469240189,0.8240572214126587
1733404613784745200,7.0917451171875,0.11178833991289139,-0.025045474991202354,0.44776421785354614
1733404613794776000,7.101776123046875,0.060475658625364304,-0.13377949595451355,0.06414084881544113
1733404613804764700,7.1117646484375,0.0006108652451075613,-0.18570303916931152,-0.2773328125476837
1733404613814765800,7.121765869140625,-0.07269296050071716,-0.18814650177955627,-0.6322455406188965
1733404613824753700,7.131753662109375,-0.10934487730264664,-0.15882496535778046,-0.7507534027099609
1733404613834785300,7.141785400390625,-0.12950342893600464,-0.12278391420841217,-0.7812966704368591
1733404613844742700,7.15174267578125,-0.12828169763088226,-0.12034045159816742,-0.7348709106445312
1733404613854774300,7.161774169921875,-0.10018189996480942,-0.13744467496871948,-0.607810914516449
1733404613864762400,7.171762451171875,-0.05375614017248154,-0.13377949595451355,-0.41722095012664795
1733404613874763300,7.18176318359375,0.01038470957428217,-0.14782938361167908,-0.21807889640331268
1733404613884751000,7.191751220703125,0.08307767659425735,-0.16249015927314758,-0.0403171069920063
1733404613894783000,7.201782958984375,0.1722639948129654,-0.16493362188339233,0.14355333149433136
1733404613904740000,7.211739990234375,0.21380282938480377,-0.18631389737129211,0.19853121042251587
1733404613914772200,7.221772216796875,0.24678955972194672,-0.19425514340400696,0.2174680233001709
1733404613924759800,7.231759765625,0.27000242471694946,-0.17959438264369965,0.22540926933288574
1733404613934760700,7.2417607421875,0.29138273000717163,-0.14294247329235077,0.21624629199504852
1733404613944748800,7.251748779296875,0.30543261766433716,-0.09529497474431992,0.1875356286764145
1733404613954780400,7.261780517578125,0.30970868468284607,-0.048258353024721146,0.13500121235847473
1733404613964737800,7.27173779296875,0.31581732630729675,0.012217304669320583,0.009162978269159794
1733404613974769400,7.281769287109375,0.3176499307155609,0.02382374368607998,-0.08796459436416626
1733404613984757200,7.29175732421875,0.32681289315223694,0.03237585723400116,-0.16493362188339233
1733404613994758700,7.301758544921875,0.34147366881370544,0.04581489413976669,-0.21502456068992615
1733404614004746200,7.311746337890625,0.35552358627319336,0.03237585723400116,-0.23640485107898712
1733404614014778000,7.321778076171875,0.37262779474258423,0.015882495790719986,-0.22663100063800812
1733404614024735200,7.3317353515625,0.39217549562454224,0.001832595793530345,-0.19792033731937408
1733404614034767000,7.34176708984375,0.42088615894317627,-0.012828170321881771,-0.15027284622192383
1733404614044755000,7.3517548828125,0.44165557622909546,-0.007941247895359993,-0.13072516024112701
1733404614054786600,7.36178662109375,0.46731191873550415,0.00366519158706069,-0.1368338167667389
1733404614064743700,7.37174365234375,0.4862487316131592,-0.001832595793530345,-0.1716531366109848
1733404614074775600,7.381775634765625,0.4966334402561188,-0.018325956538319588,-0.21930062770843506
1733404614084763400,7.391763427734375,0.4996877610683441,-0.03176499158143997,-0.2742784917354584
1733404614094764800,7.401764892578125,0.5002986192703247,-0.015271631069481373,-0.32681289315223694
1733404614104752400,7.41175244140625,0.4917465150356293,0.00855211354792118,-0.3536909818649292
1733404614114783500,7.421783447265625,0.47708576917648315,0.0708603709936142,-0.32681289315223694
1733404614124741000,7.4317412109375,0.47342056035995483,0.11728613078594208,-0.2718350291252136
1733404614134772700,7.441772705078125,0.47769662737846375,0.15882496535778046,-0.1918116807937622
1733404614144760600,7.451760498046875,0.5070181488990784,0.2076941877603531,-0.09162978827953339
1733404614154761700,7.46176171875,0.5613851547241211,0.23335053026676178,0.01771509274840355
1733404614164749600,7.47174951171875,0.6218608021736145,0.21991148591041565,0.11056660860776901
1733404614174781400,7.481781494140625,0.6805039048194885,0.18631389737129211,0.14844025671482086
1733404614184738600,7.491738525390625,0.7489207983016968,0.14049901068210602,0.08918632566928864
1733404614194769200,7.50176904296875,0.778853178024292,0.13744467496871948,0.01710422709584236
1733404614204758000,7.511758056640625,0.8014551997184753,0.11667526513338089,-0.05864306539297104
1733404614214758700,7.521758544921875,0.826500654220581,0.09834930300712585,-0.11362093687057495
1733404614224747500,7.53174755859375,0.8588765263557434,0.0959058403968811,-0.13866640627384186
1733404614234777900,7.54177783203125,0.9071348905563354,0.08246681094169617,-0.14049901068210602
1733404614244736500,7.551736572265625,0.9724974632263184,0.0708603709936142,-0.12522737681865692
1733404614254766800,7.561766845703125,1.0971139669418335,0.08796459436416626,-0.10201449692249298
1733404614264756200,7.571756103515625,1.1820242404937744,0.10262536257505417,-0.08979719132184982
1733404614274756000,7.581756103515625,1.2736539840698242,0.11545353382825851,-0.08552113175392151
1733404614284745200,7.5917451171875,1.36955988407135,0.1160643994808197,-0.08124507963657379
1733404614294775800,7.60177587890625,1.4489723443984985,0.1417207419872284,-0.06841690838336945
1733404614304764700,7.6117646484375,1.519832730293274,0.1771509200334549,-0.06352998316287994
1733404614314764800,7.621764892578125,1.5778648853302002,0.1966986060142517,-0.09040805697441101
1733404614324753700,7.631753662109375,1.6194037199020386,0.20525072515010834,-0.13500121235847473
1733404614334784300,7.6417841796875,1.6646077632904053,0.2119702398777008,-0.21991148591041565
1733404614344742700,7.65174267578125,1.6939293146133423,0.18509216606616974,-0.2779437005519867
1733404614354773200,7.661773193359375,1.7366899251937866,0.1466076523065567,-0.3139847218990326
1733404614364762400,7.671762451171875,1.8026633262634277,0.11484266817569733,-0.3084869384765625
1733404614374762000,7.681761962890625,1.8930714130401611,0.10934487730264664,-0.2742784917354584
1733404614384751000,7.691751220703125,1.9950858354568481,0.13072516024112701,-0.2278527319431305
1733404614394781700,7.70178173828125,2.1001546382904053,0.17104226350784302,-0.17837265133857727
1733404614404740000,7.711739990234375,2.2485949993133545,0.25045475363731384,-0.1014036312699318
1733404614414771000,7.72177099609375,2.3322834968566895,0.3017674386501312,-0.06352998316287994
1733404614424759800,7.731759765625,2.397646188735962,0.3481931984424591,-0.042760565876960754
1733404614434760000,7.741760009765625,2.434908866882324,0.37629300355911255,-0.039706241339445114
1733404614444748800,7.751748779296875,2.4715607166290283,0.39584067463874817,-0.06352998316287994
1733404614454779400,7.761779296875,2.4947736263275146,0.39156460762023926,-0.10934487730264664
1733404614464737800,7.77173779296875,2.510045289993286,0.3701843321323395,-0.16554448008537292
1733404614474768400,7.781768310546875,2.537534236907959,0.2993239760398865,-0.24495697021484375
1733404614484757200,7.79175732421875,2.5809056758880615,0.27611109614372253,-0.2773328125476837
1733404614494757400,7.80175732421875,2.6505444049835205,0.2877175211906433,-0.2840523421764374
1733404614504746200,7.811746337890625,2.7458393573760986,0.3225368559360504,-0.252287358045578
1733404614514776800,7.82177685546875,2.866790533065796,0.3744603991508484,-0.1820378452539444
1733404614524735500,7.831735595703125,3.19665789604187,0.5418374538421631,-0.031154127791523933
1733404614534767000,7.84176708984375,3.29134202003479,0.5937610268592834,0.09957103431224823
1733404614544755000,7.8517548828125,3.154508113861084,0.5021312236785889,0.11362093687057495
1733404614554786600,7.86178662109375,2.9553661346435547,0.49357911944389343,0.022602014243602753
1733404614564743700,7.87174365234375,2.8466320037841797,0.4764748811721802,-0.10323622822761536
1733404614574775600,7.881775634765625,2.705522060394287,0.37690386176109314,-0.26145032048225403
1733404614584763400,7.891763427734375,2.576018810272217,0.29565876722335815,-0.37568211555480957
1733404614594764800,7.901764892578125,2.5002715587615967,0.22846360504627228,-0.42760565876960754
1733404614604752400,7.91175244140625,2.4605650901794434,0.17837265133857727,-0.3988949954509735
1733404614614784300,7.9217841796875,2.4391849040985107,0.1472185254096985,-0.30482175946235657
1733404614624741400,7.931741455078125,2.462397813796997,0.14782938361167908,-0.11178833991289139
1733404614634773000,7.94177294921875,2.5112669467926025,0.18081611394882202,0.036041051149368286
1733404614644761000,7.951760986328125,2.5644123554229736,0.23518311977386475,0.21074850857257843
1733404614654762200,7.96176220703125,2.6059510707855225,0.2583959996700287,0.3933972120285034
1733404614664750000,7.97175,2.6395487785339355,0.23396138846874237,0.5259549617767334
1733404614674781700,7.98178173828125,2.65726375579834,0.18936823308467865,0.5760459303855896
1733404614684739000,7.991739013671875,2.6224443912506104,0.16798794269561768,0.5650503635406494
1733404614694771000,8.00177099609375,2.5057692527770996,0.1667662113904953,0.47708576917648315
1733404614704758500,8.011758544921875,2.436741352081299,0.16554448008537292,0.4092797040939331
1733404614714759700,8.021759765625,2.3634376525878906,0.16432274878025055,0.35613444447517395
1733404614724747500,8.03174755859375,2.277916431427002,0.1612684279680252,0.3078760802745819
1733404614734779400,8.041779296875,2.194227933883667,0.14477506279945374,0.251676470041275
1733404614744736500,8.051736572265625,2.124589204788208,0.1258382350206375,0.18020524084568024
1733404614754768100,8.06176806640625,2.0641136169433594,0.11239920556545258,0.09468411654233932
1733404614764756000,8.071755859375,2.015244483947754,0.10567969083786011,0.0012217304902151227
1733404614774757400,8.08175732421875,1.9547687768936157,0.06352998316287994,-0.14049901068210602
1733404614784745200,8.0917451171875,1.9052886962890625,0.0012217304902151227,-0.21624629199504852
1733404614794777000,8.101777099609375,1.8411478996276855,-0.05314527451992035,-0.2535090744495392
1733404614804764700,8.1117646484375,1.7751743793487549,-0.09346238523721695,-0.24373523890972137
1733404614814766000,8.12176611328125,1.7177530527114868,-0.10995574295520782,-0.18997909128665924
1733404614824753700,8.131753662109375,1.6872098445892334,-0.06352998316287994,-0.09407325088977814
1733404614834785500,8.14178564453125,1.681712031364441,0.06536258012056351,0.03237585723400116
1733404614844742700,8.15174267578125,1.6920967102050781,0.23029619455337524,0.21441370248794556
1733404614854801200,8.16180126953125,1.6792685985565186,0.27061331272125244,0.28588494658470154
1733404614864762400,8.171762451171874,1.6285667419433594,0.27061331272125244,0.29993483424186707
1733404614874762000,8.181761962890626,1.5485434532165527,0.22296582162380219,0.2620611786842346
1733404614884751000,8.191751220703125,1.445918083190918,0.1563815027475357,0.20097467303276062
1733404614894782000,8.201781982421876,1.330464482307434,0.08552113175392151,0.1362229436635971
1733404614904740000,8.211739990234374,1.2192870378494263,0.029932396486401558,0.07635815441608429
1733404614914771000,8.22177099609375,1.0714576244354248,0.02321287989616394,0.012217304669320583
1733404614924759800,8.231759765625,0.9767735004425049,0.054367005825042725,-0.024434609338641167
1733404614934759700,8.241759765625,0.8900306820869446,0.10934487730264664,-0.07147123664617538
1733404614944748800,8.251748779296875,0.8191702961921692,0.16065755486488342,-0.11728613078594208
1733404614954779400,8.261779296875,0.7538077235221863,0.192422553896904,-0.12339477986097336
1733404614964737800,8.27173779296875,0.6927211880683899,0.23396138846874237,-0.07819075137376785
1733404614974768000,8.28176806640625,0.6322455406188965,0.24984388053417206,0.021991148591041565
1733404614984757200,8.29175732421875,0.5742133259773254,0.24007004499435425,0.13866640627384186
1733404614994757000,8.301757080078126,0.48685958981513977,0.18448130786418915,0.26145032048225403
1733404615004746200,8.311746337890625,0.42638394236564636,0.11362093687057495,0.29626965522766113
1733404615014776800,8.32177685546875,0.3689626157283783,0.027488935738801956,0.2919935882091522
1733404615024735200,8.3317353515625,0.3170390725135803,-0.05864306539297104,0.24373523890972137
1733404615034766000,8.34176611328125,0.27061331272125244,-0.11667526513338089,0.14966198801994324
1733404615044755000,8.3517548828125,0.21563543379306793,-0.14477506279945374,0.021380282938480377
1733404615054785300,8.361785400390625,0.16982053220272064,-0.11423180252313614,-0.11056660860776901
1733404615064743700,8.37174365234375,0.11301007121801376,-0.05497787147760391,-0.23518311977386475
1733404615074775600,8.381775634765624,0.07635815441608429,-0.018936822190880775,-0.2174680233001709
1733404615084763400,8.391763427734375,0.04703662544488907,0.022602014243602753,-0.14355333149433136
1733404615094764500,8.4017646484375,0.02626720629632473,0.0403171069920063,-0.04703662544488907
1733404615104752400,8.41175244140625,0.01466076634824276,-0.0024434609804302454,0.03176499158143997
1733404615114783200,8.421783203125,-0.0012217304902151227,-0.09040805697441101,0.060475658625364304
1733404615124741000,8.4317412109375,-0.01466076634824276,-0.15454891324043274,0.03848451003432274
1733404615134772200,8.441772216796876,-0.025656340643763542,-0.22540926933288574,-0.08124507963657379
1733404615144760600,8.451760498046875,-0.04886921867728233,-0.26083946228027344,-0.1875356286764145
1733404615154761200,8.46176123046875,-0.0806342139840126,-0.252287358045578,-0.28649580478668213
1733404615164749600,8.47174951171875,-0.12400564551353455,-0.251676470041275,-0.3604104816913605
1733404615174781000,8.481781005859375,-0.16737708449363708,-0.24862214922904968,-0.3933972120285034
1733404615184738600,8.491738525390625,-0.21930062770843506,-0.24007004499435425,-0.3628539443016052
1733404615194770200,8.501770263671874,-0.2626720666885376,-0.20341812074184418,-0.2987131178379059
1733404615204758000,8.511758056640625,-0.28099802136421204,-0.16493362188339233,-0.2272418737411499
1733404615214759700,8.521759765625,-0.28466320037841797,-0.11178833991289139,-0.09285151958465576
1733404615224747500,8.53174755859375,-0.2669481039047241,-0.054367005825042725,0.003054326167330146
1733404615234778600,8.541778564453125,-0.2382374405860901,0.00366519158706069,0.08002334833145142
1733404615244736500,8.551736572265625,-0.2125810980796814,0.02871066704392433,0.12034045159816742
1733404615254767900,8.561767822265624,-0.20036379992961884,0.029932396486401558,0.11423180252313614
1733404615264756000,8.571755859375,-0.20036379992961884,0.021380282938480377,0.06963863968849182
1733404615274756600,8.581756591796875,-0.20402899384498596,0.027488935738801956,0.006719517521560192
1733404615284745000,8.591744873046874,-0.2168571650981903,0.03237585723400116,-0.1062905490398407
1733404615294776000,8.601776123046875,-0.21807889640331268,0.03481931984424591,-0.17104226350784302
1733404615304764700,8.6117646484375,-0.21991148591041565,0.03298672288656235,-0.21319197118282318
1733404615314765000,8.62176513671875,-0.21319197118282318,0.02382374368607998,-0.23273965716362
1733404615324753400,8.63175341796875,-0.21013765037059784,0.02076941914856434,-0.23273965716362
1733404615334784800,8.64178466796875,-0.21135938167572021,0.015882495790719986,-0.2272418737411499
1733404615344742700,8.65174267578125,-0.2223549485206604,-0.00733038317412138,-0.2223549485206604
1733404615354773800,8.661773681640625,-0.2528982162475586,-0.02932153269648552,-0.19975294172763824
1733404615364762400,8.671762451171874,-0.2791654169559479,-0.03237585723400116,-0.17898350954055786
1733404615374762800,8.6817626953125,-0.2993239760398865,-0.030543262138962746,-0.15882496535778046
1733404615384751000,8.691751220703125,-0.31154128909111023,-0.030543262138962746,-0.14477506279945374
1733404615394782200,8.7017822265625,-0.31154128909111023,-0.006108652334660292,-0.12400564551353455
1733404615404740000,8.711739990234374,-0.3072652220726013,0.039095375686883926,-0.0910189226269722
1733404615414771500,8.721771484375,-0.30543261766433716,0.059864792972803116,-0.0659734457731247
1733404615424759800,8.731759765625,-0.3090978264808655,0.05375614017248154,-0.06414084881544113
1733404615434760400,8.741760498046874,-0.3335324227809906,0.03848451003432274,-0.10995574295520782
1733404615444748800,8.751748779296875,-0.3628539443016052,0.02687807008624077,-0.17104226350784302
1733404615454780000,8.76177978515625,-0.3878994286060333,0.013439035043120384,-0.2370157092809677
1733404615464737800,8.77173779296875,-0.4031710624694824,-0.022602014243602753,-0.2785545587539673
1733404615474769400,8.781769287109375,-0.40194934606552124,-0.05375614017248154,-0.2730567753314972
1733404615484757200,8.79175732421875,-0.3897320330142975,-0.06352998316287994,-0.20952677726745605
1733404615494758700,8.801758544921874,-0.3634648323059082,-0.06963863968849182,-0.10567969083786011
1733404615504746200,8.811746337890625,-0.3090978264808655,-0.05253441259264946,0.08429940044879913
1733404615514777300,8.82177734375,-0.27977627515792847,-0.01466076634824276,0.20036379992961884
1733404615524735200,8.8317353515625,-0.2565633952617645,0.033597588539123535,0.2889392673969269
1733404615534766000,8.84176611328125,-0.24373523890972137,0.08857546001672745,0.34697145223617554
1733404615544755000,8.8517548828125,-0.24373523890972137,0.1472185254096985,0.38179078698158264
1733404615554785800,8.861785888671875,-0.25106561183929443,0.1966986060142517,0.40622538328170776
1733404615564744000,8.871743896484375,-0.26145032048225403,0.21502456068992615,0.4184426963329315
1733404615574775000,8.881775146484374,-0.2742784917354584,0.1918116807937622,0.4294382631778717
1733404615584763400,8.891763427734375,-0.26939156651496887,0.17043140530586243,0.4337143301963806
1733404615594763800,8.901763671875,-0.252287358045578,0.14477506279945374,0.44715335965156555
1733404615604752400,8.91175244140625,-0.22357667982578278,0.12461651116609573,0.4642575979232788
1733404615614783500,8.921783447265625,-0.18875735998153687,0.13439035415649414,0.47280970215797424
1733404615624741400,8.931741455078125,-0.15393804013729095,0.17592918872833252,0.42699480056762695
1733404615634772500,8.9417724609375,-0.12522737681865692,0.21991148591041565,0.3139847218990326
1733404615644761000,8.951760986328125,-0.10934487730264664,0.2571742534637451,0.12889257073402405
1733404615654762000,8.961761962890625,-0.10384709388017654,0.2822197377681732,-0.2535090744495392
1733404615664750000,8.97175,-0.1508837193250656,0.2583959996700287,-0.4954117238521576
1733404615674781400,8.981781494140625,-0.2223549485206604,0.21441370248794556,-0.6688974499702454
1733404615684739000,8.991739013671875,-0.2730567753314972,0.19914206862449646,-0.6933320760726929
1733404615694770700,9.001770751953124,-0.27000242471694946,0.23273965716362,-0.5375614166259766
1733404615704758300,9.01175830078125,-0.18631389737129211,0.31642818450927734,-0.21502456068992615
1733404615714759700,9.021759765625,-0.03848451003432274,0.3384193480014801,0.20586158335208893
1733404615724747500,9.03174755859375,0.2168571650981903,0.17104226350784302,0.8130616545677185
1733404615734777900,9.04177783203125,0.35185837745666504,0.03848451003432274,1.0653489828109741
1733404615744736500,9.051736572265625,0.43799036741256714,-0.036651913076639175,1.140485405921936
1733404615754766800,9.061766845703126,0.46731191873550415,-0.05742133408784866,1.0781772136688232
1733404615764756200,9.071756103515625,0.46547931432724,-0.021380282938480377,0.9321803450584412
1733404615774755800,9.081755859375,0.43737950921058655,0.036651913076639175,0.7586946487426758
1733404615784745000,9.091744873046874,0.3927863538265228,0.07330382615327835,0.5876523852348328
1733404615794775600,9.101775634765625,0.3274237811565399,0.07513642311096191,0.32131510972976685
1733404615804764400,9.111764404296874,0.2968805134296417,0.04459316283464432,0.12217304855585098
1733404615814764500,9.1217646484375,0.2791654169559479,0.03420845419168472,-0.09651670604944229
1733404615824753700,9.131753662109375,0.2571742534637451,0.05497787147760391,-0.34513887763023376
1733404615834785500,9.14178564453125,0.23273965716362,0.08796459436416626,-0.6041457056999207
1733404615844742700,9.15174267578125,0.19303341209888458,0.1062905490398407,-0.8356636762619019
1733404615854774300,9.161774169921875,0.152105450630188,0.10873401165008545,-0.9902125597000122
1733404615864762400,9.171762451171874,0.1313360333442688,0.1258382350206375,-1.043968677520752
1733404615874763300,9.18176318359375,0.1514945775270462,0.14782938361167908,-0.9108000993728638
1733404615884751000,9.191751220703125,0.182648703455925,0.1258382350206375,-0.7055493593215942
1733404615894783000,9.201782958984374,0.2174680233001709,0.0806342139840126,-0.4544837474822998
1733404615904740000,9.211739990234374,0.2583959996700287,0.024434609338641167,-0.20586158335208893
1733404615914772200,9.221772216796875,0.2974913716316223,-0.02626720629632473,0.014049900695681572
1733404615924759800,9.231759765625,0.3323107063770294,-0.0757472887635231,0.18387043476104736
1733404615934761000,9.241760986328124,0.35185837745666504,-0.11728613078594208,0.2993239760398865
1733404615944748800,9.251748779296875,0.35185837745666504,-0.15943582355976105,0.37690386176109314
1733404615954780000,9.26177978515625,0.34574973583221436,-0.18325957655906677,0.3781255781650543
1733404615964737800,9.27173779296875,0.33475416898727417,-0.1875356286764145,0.34758231043815613
1733404615974769000,9.281768798828125,0.3194825351238251,-0.18631389737129211,0.28466320037841797
1733404615984757200,9.29175732421875,0.303600013256073,-0.17409659922122955,0.19853121042251587
1733404615994758100,9.301758056640624,0.27611109614372253,-0.14905111491680145,0.10751228034496307
1733404616004746200,9.311746337890625,0.24495697021484375,-0.11911872029304504,0.01038470957428217
1733404616014777600,9.321777587890624,0.20097467303276062,-0.10751228034496307,-0.12400564551353455
1733404616024735200,9.3317353515625,0.16920967400074005,-0.1264491081237793,-0.192422553896904
1733404616034766300,9.341766357421875,0.14355333149433136,-0.1313360333442688,-0.24007004499435425
1733404616044755000,9.3517548828125,0.12217304855585098,-0.1258382350206375,-0.27611109614372253
1733404616054786000,9.3617861328125,0.10506882518529892,-0.11301007121801376,-0.30970868468284607
1733404616064743700,9.37174365234375,0.08857546001672745,-0.08918632566928864,-0.3280346393585205
1733404616074774500,9.3817744140625,0.08246681094169617,-0.07208210229873657,-0.3139847218990326
1733404616084763600,9.391763671875,0.09651670604944229,-0.033597588539123535,-0.25473082065582275
1733404616094763800,9.401763671875,0.13316862285137177,0.04642575979232788,-0.09529497474431992
1733404616104752400,9.41175244140625,0.14782938361167908,0.015271631069481373,0.00366519158706069
1733404616114783000,9.421782958984375,0.15515977144241333,-0.03726277872920036,0.06352998316287994
1733404616124741000,9.4317412109375,0.14355333149433136,-0.08491026610136032,0.0708603709936142
1733404616134772200,9.441772216796876,0.13011430203914642,-0.13866640627384186,0.015271631069481373
1733404616144760600,9.451760498046875,0.10690141469240189,-0.1661553531885147,-0.0861319974064827
1733404616154760700,9.4617607421875,0.07819075137376785,-0.19058994948863983,-0.2070833146572113
1733404616164749300,9.471749267578126,0.036041051149368286,-0.21319197118282318,-0.35552358627319336
1733404616174781400,9.481781494140625,0.0012217304902151227,-0.23151792585849762,-0.38667771220207214
1733404616184738600,9.491738525390625,-0.02932153269648552,-0.23640485107898712,-0.34636059403419495
1733404616194770000,9.50177001953125,-0.04703662544488907,-0.2278527319431305,-0.23640485107898712
1733404616204758000,9.511758056640625,-0.04703662544488907,-0.22052235901355743,-0.1007927656173706
1733404616214759000,9.521759033203125,-0.036651913076639175,-0.22540926933288574,0.009162978269159794
1733404616224747500,9.53174755859375,-0.018325956538319588,-0.2382374405860901,0.06230825558304787
1733404616234778400,9.5417783203125,0.001832595793530345,-0.20952677726745605,0.08735372871160507
1733404616244736500,9.551736572265625,-0.005497787147760391,-0.18081611394882202,0.07513642311096191
1733404616254767600,9.561767578125,-0.03848451003432274,-0.1514945775270462,0.02871066704392433
1733404616264756000,9.571755859375,-0.09834930300712585,-0.14966198801994324,-0.06902777403593063
1733404616274757400,9.58175732421875,-0.17776179313659668,-0.16859880089759827,-0.2217440903186798
1733404616284745000,9.591744873046874,-0.2565633952617645,-0.1820378452539444,-0.40622538328170776
1733404616294776800,9.60177685546875,-0.3090978264808655,-0.16554448008537292,-0.578489363193512
1733404616304764700,9.6117646484375,-0.31154128909111023,-0.09468411654233932,-0.6609562039375305
1733404616314765800,9.621765869140624,-0.24617868661880493,0.1466076523065567,-0.4386012554168701
1733404616324753400,9.63175341796875,-0.19120082259178162,0.33658674359321594,-0.04764748737215996
1733404616334785300,9.641785400390624,-0.1472185254096985,0.4660901725292206,0.4178318381309509
1733404616344742700,9.65174267578125,-0.10751228034496307,0.5296201705932617,0.826500654220581
1733404616354774300,9.661774169921875,-0.08674286305904388,0.4917465150356293,1.1020009517669678
1733404616364762400,9.671762451171874,-0.1014036312699318,0.3988949954509735,1.2247848510742188
1733404616374762000,9.681761962890626,-0.12217304855585098,0.29016098380088806,1.1930198669433594
1733404616384751000,9.691751220703125,-0.152105450630188,0.1270599663257599,0.9004153609275818
1733404616394781700,9.70178173828125,-0.17531833052635193,0.06414084881544113,0.5907067060470581
1733404616404740000,9.711739990234374,-0.1966986060142517,0.03237585723400116,0.242513507604599
1733404616414770700,9.721770751953125,-0.22296582162380219,0.021991148591041565,-0.0861319974064827
1733404616424759800,9.731759765625,-0.2528982162475586,-0.010995574295520782,-0.34636059403419495
1733404616434761000,9.741760986328124,-0.2877175211906433,-0.06658431142568588,-0.5302310585975647
1733404616444748800,9.751748779296875,-0.31093040108680725,-0.07635815441608429,-0.6505714654922485
1733404616454780400,9.761780517578124,-0.3433062732219696,-0.018325956538319588,-0.7110471725463867
1733404616464737800,9.77173779296875,-0.37568211555480957,-0.042760565876960754,-0.6792821288108826
1733404616474769400,9.781769287109375,-0.39706242084503174,-0.07819075137376785,-0.5803219676017761
1733404616484757200,9.79175732421875,-0.41111230850219727,-0.1215621829032898,-0.42149701714515686
1733404616494758700,9.801758544921874,-0.42577308416366577,-0.16249015927314758,-0.22296582162380219
1733404616504746200,9.811746337890625,-0.41722095012664795,-0.17959438264369965,-0.027488935738801956
1733404616514778000,9.821778076171874,-0.40194934606552124,-0.192422553896904,0.1362229436635971
1733404616524735200,9.8317353515625,-0.3738495409488678,-0.19486601650714874,0.24678955972194672
1733404616534766600,9.8417666015625,-0.2541199326515198,-0.13805554807186127,0.30604347586631775
1733404616544755000,9.8517548828125,-0.2321287989616394,-0.16065755486488342,0.36102136969566345
1733404616554786000,9.8617861328125,-0.20586158335208893,-0.13805554807186127,0.2919935882091522
1733404616564743700,9.87174365234375,-0.18325957655906677,-0.04459316283464432,0.20097467303276062
1733404616574774800,9.88177490234375,-0.16432274878025055,-0.00366519158706069,0.11362093687057495
1733404616584763400,9.891763427734375,-0.1459967941045761,0.05253441259264946,0.04398229718208313
1733404616594764500,9.9017646484375,-0.13744467496871948,0.11301007121801376,0.01038470957428217
1733404616604752400,9.91175244140625,-0.1313360333442688,0.16371189057826996,0.021380282938480377
1733404616614784300,9.9217841796875,-0.11972958594560623,0.1820378452539444,0.06108652427792549
1733404616624741400,9.931741455078125,-0.11239920556545258,0.16920967400074005,0.10384709388017654
1733404616634772700,9.941772705078124,-0.1062905490398407,0.15821409225463867,0.12522737681865692
1733404616644761000,9.951760986328125,-0.10384709388017654,0.15515977144241333,0.10506882518529892
1733404616654761700,9.96176171875,-0.1062905490398407,0.14294247329235077,0.039095375686883926
1733404616664750000,9.97175,-0.10934487730264664,0.1014036312699318,-0.054367005825042725
1733404616674781400,9.981781494140625,-0.12461651116609573,-0.0006108652451075613,-0.1814269721508026
1733404616684739000,9.991739013671875,-0.13377949595451355,-0.04459316283464432,-0.24129177629947662
1733404616694770200,10.001770263671874,-0.14049901068210602,-0.0757472887635231,-0.28466320037841797
1733404616704758500,10.011758544921875,-0.14294247329235077,-0.07391469180583954,-0.3121521472930908
1733404616714759000,10.021759033203125,-0.14233160018920898,-0.03420845419168472,-0.31093040108680725
1733404616724747500,10.03174755859375,-0.1264491081237793,0.001832595793530345,-0.2742784917354584
1733404616734778400,10.0417783203125,-0.10018189996480942,0.03237585723400116,-0.192422553896904
1733404616744736500,10.051736572265625,-0.08491026610136032,0.06902777403593063,-0.09651670604944229
1733404616754767600,10.061767578125,-0.09957103431224823,0.07635815441608429,-0.010995574295520782
1733404616764756200,10.071756103515625,-0.11850785464048386,0.06841690838336945,-0.00366519158706069
1733404616774756600,10.081756591796875,-0.14049901068210602,0.05314527451992035,-0.029932396486401558
1733404616784745200,10.0917451171875,-0.15271630883216858,0.0403171069920063,-0.07208210229873657
1733404616794777000,10.101777099609375,-0.14477506279945374,0.03420845419168472,-0.09773843735456467
1733404616804764700,10.1117646484375,-0.11362093687057495,0.03726277872920036,-0.07880161702632904
1733404616814765800,10.121765869140624,-0.051312681287527084,0.03420845419168472,-0.010995574295520782
1733404616824753700,10.131753662109375,0.09834930300712585,0.07391469180583954,0.1270599663257599
1733404616834784000,10.141783935546876,0.18814650177955627,0.13316862285137177,0.2021963894367218
1733404616844742700,10.15174267578125,0.24923302233219147,0.19425514340400696,0.2278527319431305
1733404616854805000,10.161804931640624,0.29138273000717163,0.22113321721553802,0.2028072625398636
1733404616864762400,10.171762451171874,0.3274237811565399,0.22113321721553802,0.13500121235847473
1733404616874763500,10.181763427734374,0.34208452701568604,0.20463985204696655,-0.001832595793530345
1733404616884751000,10.191751220703125,0.31154128909111023,0.17043140530586243,-0.20402899384498596
1733404616894783000,10.201782958984374,0.2021963894367218,0.09468411654233932,-0.5241223573684692
1733404616904740000,10.211739990234374,0.13439035415649414,0.08246681094169617,-0.5797111392021179
1733404616914771000,10.22177099609375,0.12950342893600464,0.1667662113904953,-0.3689626157283783
1733404616924759800,10.231759765625,0.2021963894367218,0.3017674386501312,0.08185594528913498
1733404616934760700,10.2417607421875,0.3384193480014801,0.394618958234787,0.6707300543785095
1733404616944748800,10.251748779296875,0.5070181488990784,0.41233405470848083,1.2406673431396484
1733404616954779400,10.261779296875,0.6670648455619812,0.3640756905078888,1.6627751588821411
1733404616964737800,10.27173779296875,0.7861835956573486,0.2993239760398865,1.8503108024597168
1733404616974770200,10.281770263671875,0.8161159753799438,0.15515977144241333,1.607797384262085
1733404616984757200,10.29175732421875,0.7348709106445312,0.042760565876960754,1.141707181930542
1733404616994879200,10.301879150390626,0.6059783101081848,-0.0403171069920063,0.5088507533073425
1733404617004990500,10.311990478515625,0.44715335965156555,-0.07880161702632904,-0.1814269721508026
1733404617014777000,10.321777099609376,0.3029891550540924,-0.0659734457731247,-0.7959573864936829
1733404617024735200,10.3317353515625,0.20586158335208893,-0.054367005825042725,-1.2394455671310425
1733404617034766800,10.341766845703125,0.13744467496871948,-0.09040805697441101,-1.463022232055664
1733404617044755000,10.3517548828125,0.15577064454555511,-0.14233160018920898,-1.4074335098266602
1733404617054786600,10.36178662109375,0.23640485107898712,-0.18509216606616974,-1.1551461219787598
1733404617064744000,10.371743896484375,0.3090978264808655,-0.2272418737411499,-0.788016140460968
1733404617074775600,10.381775634765624,0.35674530267715454,-0.2730567753314972,-0.3988949954509735
1733404617084763600,10.391763671875,0.3891211748123169,-0.30970868468284607,-0.06719517707824707
1733404617094764500,10.4017646484375,0.403781920671463,-0.3121521472930908,0.1814269721508026
1733404617104752400,10.41175244140625,0.40133845806121826,-0.2816088795661926,0.35063666105270386
1733404617114783200,10.421783203125,0.36713001132011414,-0.22968533635139465,0.5009095072746277
1733404617124741000,10.4317412109375,0.3396410644054413,-0.21135938167572021,0.5522221922874451
1733404617134771700,10.441771728515626,0.3170390725135803,-0.19364428520202637,0.5619960427284241
1733404617144760600,10.451760498046875,0.29626965522766113,-0.19608774781227112,0.5393940210342407
1733404617154761200,10.46176123046875,0.2718350291252136,-0.19792033731937408,0.4966334402561188
1733404617164749600,10.47174951171875,0.2474004179239273,-0.1869247704744339,0.43188172578811646
1733404617174780700,10.48178076171875,0.22540926933288574,-0.17470745742321014,0.33597588539123535
1733404617184738600,10.491738525390625,0.19975294172763824,-0.16554448008537292,0.22602014243602753
1733404617194769700,10.501769775390626,0.14966198801994324,-0.13316862285137177,0.056810468435287476
1733404617204758000,10.511758056640625,0.11239920556545258,-0.11667526513338089,-0.036651913076639175
1733404617214759000,10.521759033203125,0.0757472887635231,-0.08979719132184982,-0.10567969083786011
1733404617224747500,10.53174755859375,0.05314527451992035,-0.04398229718208313,-0.14782938361167908
1733404617234778400,10.5417783203125,0.042760565876960754,0.0006108652451075613,-0.15454891324043274
1733404617244736500,10.551736572265625,0.04092797264456749,0.04398229718208313,-0.11484266817569733
1733404617254767600,10.561767578125,0.05253441259264946,0.09773843735456467,-0.04642575979232788
1733404617264756000,10.571755859375,0.07819075137376785,0.13439035415649414,0.05375614017248154
1733404617274756600,10.581756591796875,0.07757988572120667,0.09468411654233932,0.09468411654233932
1733404617284745200,10.5917451171875,0.06658431142568588,0.024434609338641167,0.0910189226269722
1733404617294776300,10.6017763671875,0.04581489413976669,-0.06352998316287994,0.05192354694008827
1733404617304764700,10.6117646484375,0.009162978269159794,-0.1313360333442688,-0.0012217304902151227
1733404617314765000,10.62176513671875,-0.005497787147760391,-0.1508837193250656,-0.05009094998240471
1733404617324753700,10.631753662109375,-0.003054326167330146,-0.11545353382825851,-0.08735372871160507
1733404617334785300,10.641785400390624,0.007941247895359993,0.013439035043120384,-0.11789698898792267
1733404617344742700,10.65174267578125,0.01160643994808197,0.11301007121801376,-0.10018189996480942
1733404617354774300,10.661774169921875,-0.009162978269159794,0.15393804013729095,-0.06352998316287994
1733404617364762400,10.671762451171874,-0.05009094998240471,0.1313360333442688,-0.018936822190880775
1733404617374763300,10.68176318359375,-0.10445795953273773,0.06963863968849182,0.021991148591041565
1733404617384751000,10.691751220703125,-0.1771509200334549,-0.025045474991202354,0.04642575979232788
1733404617394783000,10.701782958984374,-0.24923302233219147,-0.13255776464939117,0.05253441259264946
1733404617404740000,10.711739990234374,-0.3072652220726013,-0.2076941877603531,0.04703662544488907
1733404617414771200,10.721771240234375,-0.34086281061172485,-0.22968533635139465,0.05375614017248154
1733404617424759800,10.731759765625,-0.33169981837272644,-0.20586158335208893,0.06169738993048668
1733404617434761000,10.741760986328124,-0.3029891550540924,-0.16737708449363708,0.036041051149368286
1733404617444748800,10.751748779296875,-0.27000242471694946,-0.1111774742603302,-0.030543262138962746
1733404617454780700,10.76178076171875,-0.25534167885780334,-0.00855211354792118,-0.09468411654233932
1733404617464737800,10.77173779296875,-0.2431243658065796,0.1417207419872284,-0.10018189996480942
1733404617474769700,10.781769775390625,-0.23945917189121246,0.30970868468284607,-0.025656340643763542
1733404617484757200,10.79175732421875,-0.2376265823841095,0.47708576917648315,0.21441370248794556
1733404617494758400,10.80175830078125,-0.242513507604599,0.49724429845809937,0.3885102868080139
1733404617504746200,10.811746337890625,-0.2724458873271942,0.4343251883983612,0.48747047781944275
1733404617514777900,10.82177783203125,-0.30115658044815063,0.3280346393585205,0.4862487316131592
1733404617524735200,10.8317353515625,-0.3176499307155609,0.2168571650981903,0.384845107793808
1733404617534765300,10.841765380859375,-0.33108896017074585,0.09162978827953339,0.2070833146572113
1733404617544755000,10.8517548828125,-0.32009339332580566,-0.02687807008624077,-0.00855211354792118
1733404617554786600,10.86178662109375,-0.27122417092323303,-0.15332718193531036,-0.2871066629886627
1733404617564744000,10.871743896484375,-0.2370157092809677,-0.21930062770843506,-0.4105014503002167
1733404617574775600,10.881775634765624,-0.2028072625398636,-0.26145032048225403,-0.4807509481906891
1733404617584763400,10.891763427734375,-0.1661553531885147,-0.21441370248794556,-0.484416127204895
1733404617594764500,10.9017646484375,-0.1417207419872284,-0.12461651116609573,-0.4440990388393402
1733404617604752400,10.91175244140625,-0.1472185254096985,-0.06780604273080826,-0.3787364661693573
1733404617614784000,10.921783935546875,-0.1618792861700058,-0.03848451003432274,-0.2889392673969269
1733404617624741400,10.931741455078125,-0.1875356286764145,-0.01160643994808197,-0.1716531366109848
1733404617634773000,10.94177294921875,-0.22907446324825287,0.015271631069481373,0.0006108652451075613
1733404617644761000,10.951760986328125,-0.23640485107898712,0.021380282938480377,0.07757988572120667
1733404617654762200,10.96176220703125,-0.23273965716362,0.009773843921720982,0.1160643994808197
1733404617664750000,10.97175,-0.2217440903186798,-0.00855211354792118,0.12828169763088226
1733404617674781200,10.98178125,-0.1966986060142517,-0.015882495790719986,0.11850785464048386
1733404617684739000,10.991739013671875,-0.15454891324043274,-0.015882495790719986,0.09712757170200348
1733404617694770400,11.0017705078125,-0.10201449692249298,-0.005497787147760391,0.07452555745840073
1733404617704758500,11.011758544921875,-0.04337143152952194,0.02076941914856434,0.05314527451992035
1733404617714760000,11.021760009765625,-0.006719517521560192,-0.039095375686883926,0.022602014243602753
1733404617724747500,11.03174755859375,0.012217304669320583,-0.056810468435287476,-0.012828170321881771
1733404617734779100,11.041779052734375,0.018325956538319588,-0.04948008432984352,-0.05375614017248154
1733404617744736500,11.051736572265625,0.0024434609804302454,-0.06108652427792549,-0.10262536257505417
1733404617754768100,11.06176806640625,-0.02015855349600315,-0.08918632566928864,-0.152105450630188
1733404617764756200,11.071756103515625,-0.03481931984424591,-0.13988813757896423,-0.20891591906547546
1733404617774756600,11.081756591796875,-0.05742133408784866,-0.2076941877603531,-0.3090978264808655
1733404617784745200,11.0917451171875,-0.060475658625364304,-0.18631389737129211,-0.3842342495918274
1733404617794776300,11.1017763671875,-0.05375614017248154,-0.14782938361167908,-0.45142942667007446
1733404617804764700,11.1117646484375,-0.022602014243602753,-0.11239920556545258,-0.48747047781944275
1733404617814765000,11.12176513671875,0.00366519158706069,-0.08368854224681854,-0.48685958981513977
1733404617824753400,11.13175341796875,0.02932153269648552,-0.06230825558304787,-0.45204028487205505
1733404617834785000,11.141784912109374,0.05375614017248154,-0.045204028487205505,-0.38728857040405273
1733404617844742700,11.15174267578125,0.07391469180583954,-0.012828170321881771,-0.29993483424186707
1733404617854774300,11.161774169921875,0.09224065393209457,0.04398229718208313,-0.14233160018920898
1733404617864762400,11.171762451171874,0.09468411654233932,0.0757472887635231,-0.05375614017248154
1733404617874763500,11.181763427734374,0.09224065393209457,0.11911872029304504,-0.003054326167330146
1733404617884751000,11.191751220703125,0.07452555745840073,0.15454891324043274,0.009773843921720982
1733404617894783000,11.201782958984374,0.04642575979232788,0.19303341209888458,-0.02871066704392433
1733404617904740000,11.211739990234374,0.010995574295520782,0.21807889640331268,-0.10506882518529892
1733404617914771700,11.221771728515625,-0.03298672288656235,0.17776179313659668,-0.18325957655906677
1733404617924759800,11.231759765625,-0.10567969083786011,0.01160643994808197,-0.24068090319633484
1733404617934760700,11.2417607421875,-0.12400564551353455,-0.06352998316287994,-0.18387043476104736
1733404617944748800,11.251748779296875,-0.10262536257505417,-0.07819075137376785,-0.014049900695681572
1733404617954781000,11.261781005859374,-0.04459316283464432,-0.04886921867728233,0.2321287989616394
1733404617964737800,11.27173779296875,0.051312681287527084,-0.01771509274840355,0.4905247986316681
1733404617974769400,11.281769287109375,0.15393804013729095,-0.004886921960860491,0.6969972252845764
1733404617984757200,11.29175732421875,0.24129177629947662,0.0354301854968071,0.817948579788208
1733404617994758000,11.3017578125,0.30543261766433716,0.1319468915462494,0.817948579788208
1733404618004746200,11.311746337890625,0.323147714138031,0.14355333149433136,0.6823364496231079
1733404618014777900,11.32177783203125,0.32009339332580566,0.10567969083786011,0.4386012554168701
1733404618024735200,11.3317353515625,0.28649580478668213,0.051312681287527084,0.152105450630188
1733404618034767000,11.34176708984375,0.21991148591041565,-0.0012217304902151227,-0.09651670604944229
1733404618044755000,11.3517548828125,0.13988813757896423,-0.016493361443281174,-0.21624629199504852
1733404618054786600,11.36178662109375,0.11178833991289139,0.04214970022439957,-0.10873401165008545
1733404618064744000,11.371743896484375,0.15943582355976105,0.182648703455925,0.2125810980796814
1733404618074775600,11.381775634765624,0.3530801236629486,0.5070181488990784,0.8930850028991699
1733404618084763400,11.391763427734375,0.5112941861152649,0.7257078886032104,1.3194689750671387
1733404618094763500,11.401763427734375,0.656069278717041,0.8662069439888,1.5998560190200806
1733404618104752400,11.41175244140625,0.7580837607383728,0.912021815776825,1.6811012029647827
1733404618114782000,11.421781982421875,0.7745771408081055,0.8539896011352539,1.549154281616211
1733404618124741000,11.4317412109375,0.6988298296928406,0.6768386960029602,1.2021827697753906
1733404618134774300,11.441774169921874,0.5467243790626526,0.37751471996307373,0.6823364496231079
1733404618144760300,11.45176025390625,0.23457226157188416,-0.16737708449363708,-0.24495697021484375
1733404618154761500,11.461761474609375,0.036651913076639175,-0.43737950921058655,-0.7996225953102112
1733404618164749600,11.47174951171875,-0.09285151958465576,-0.5674937963485718,-1.1563678979873657
1733404618174781200,11.48178125,-0.16920967400074005,-0.5876523852348328,-1.2748757600784302
1733404618184738600,11.491738525390625,-0.17959438264369965,-0.5412266254425049,-1.1930198669433594
1733404618194770200,11.501770263671874,-0.12767083942890167,-0.4306600093841553,-0.988379955291748
1733404618204758000,11.511758056640625,-0.04459316283464432,-0.32070425152778625,-0.7116580009460449
1733404618214759400,11.521759521484375,0.07147123664617538,-0.2272418737411499,-0.30482175946235657
1733404618224747500,11.53174755859375,0.12400564551353455,-0.2015855312347412,-0.11423180252313614
1733404618234779000,11.54177880859375,0.13744467496871948,-0.19425514340400696,-0.00855211354792118
1733404618244736500,11.551736572265625,0.12767083942890167,-0.18936823308467865,0.02382374368607998
1733404618254767400,11.561767333984376,0.11239920556545258,-0.1820378452539444,0.009162978269159794
1733404618264756200,11.571756103515625,0.09346238523721695,-0.17837265133857727,-0.028099801391363144
1733404618274756600,11.581756591796875,0.0806342139840126,-0.18570303916931152,-0.05803219974040985
1733404618284745200,11.5917451171875,0.07635815441608429,-0.18631389737129211,-0.06536258012056351
1733404618294776300,11.6017763671875,0.06475171446800232,-0.1563815027475357,-0.0507018156349659
1733404618304764700,11.6117646484375,0.05192354694008827,-0.13316862285137177,-0.0354301854968071
1733404618314765000,11.62176513671875,0.03787364438176155,-0.12217304855585098,-0.025045474991202354
1733404618324753700,11.631753662109375,0.01771509274840355,-0.1258382350206375,-0.02626720629632473
1733404618334784800,11.64178466796875,-0.006108652334660292,-0.12950342893600464,-0.048258353024721146
1733404618344742700,11.65174267578125,-0.027488935738801956,-0.1313360333442688,-0.08491026610136032
1733404618354773800,11.661773681640625,-0.04398229718208313,-0.13500121235847473,-0.1270599663257599
1733404618364762400,11.671762451171874,-0.05009094998240471,-0.1368338167667389,-0.16920967400074005
1733404618374762800,11.6817626953125,-0.04886921867728233,-0.13072516024112701,-0.17287486791610718
1733404618384751000,11.691751220703125,-0.03848451003432274,-0.12767083942890167,-0.1722639948129654
1733404618394782200,11.7017822265625,-0.028099801391363144,-0.12217304855585098,-0.16982053220272064
1733404618404740000,11.711739990234374,-0.025656340643763542,-0.1258382350206375,-0.16982053220272064
1733404618414771200,11.721771240234375,-0.030543262138962746,-0.12950342893600464,-0.17043140530586243
1733404618424759800,11.731759765625,-0.03237585723400116,-0.13744467496871948,-0.15454891324043274
1733404618434760400,11.741760498046874,-0.039706241339445114,-0.13866640627384186,-0.12339477986097336
1733404618444748800,11.751748779296875,-0.036041051149368286,-0.12339477986097336,-0.1215621829032898
1733404618454780000,11.76177978515625,-0.02626720629632473,-0.10873401165008545,-0.1417207419872284
1733404618464737800,11.77173779296875,-0.015271631069481373,-0.10812314599752426,-0.18631389737129211
1733404618474769400,11.781769287109375,-0.02015855349600315,-0.12217304855585098,-0.2431243658065796
1733404618484757200,11.79175732421875,-0.033597588539123535,-0.14844025671482086,-0.27977627515792847
1733404618494758400,11.80175830078125,-0.05253441259264946,-0.15393804013729095,-0.2590068578720093
1733404618504746200,11.811746337890625,-0.06536258012056351,-0.10995574295520782,-0.1661553531885147
1733404618514777900,11.82177783203125,-0.16371189057826996,0.04886921867728233,0.022602014243602753
1733404618524735200,11.8317353515625,-0.12400564551353455,0.001832595793530345,0.05803219974040985
1733404618534766300,11.841766357421875,-0.1258382350206375,0.0024434609804302454,0.09773843735456467
1733404618544755000,11.8517548828125,-0.14477506279945374,-0.025656340643763542,0.09040805697441101
1733404618554786000,11.8617861328125,-0.16371189057826996,-0.05253441259264946,0.06414084881544113
1733404618564744000,11.871743896484375,-0.16737708449363708,-0.07024950534105301,0.04703662544488907
1733404618574775000,11.881775146484374,-0.14416420459747314,-0.09834930300712585,0.036041051149368286
1733404618584763400,11.891763427734375,-0.08857546001672745,-0.12461651116609573,0.0012217304902151227
1733404618594764500,11.9017646484375,-0.07024950534105301,-0.08979719132184982,-0.06291911751031876
1733404618604752400,11.91175244140625,-0.09407325088977814,-0.03848451003432274,-0.16004669666290283
1733404618614784000,11.921783935546875,-0.1362229436635971,0.036041051149368286,-0.22602014243602753
1733404618624741400,11.931741455078125,-0.17592918872833252,0.15271630883216858,-0.19058994948863983
1733404618634773000,11.94177294921875,-0.18448130786418915,0.31093040108680725,0.00427605677396059
1733404618644761000,11.951760986328125,-0.1563815027475357,0.44654250144958496,0.32009339332580566
1733404618654762000,11.961761962890625,-0.09162978827953339,0.5051855444908142,0.8026769161224365
1733404618664750000,11.97175,-0.06108652427792549,0.4758640229701996,0.9950994849205017
1733404618674780200,11.9817802734375,-0.0507018156349659,0.4001167416572571,1.0225883722305298
1733404618684738800,11.99173876953125,-0.06658431142568588,0.2993239760398865,0.8924741148948669
1733404618694769400,12.001769287109376,-0.08185594528913498,0.1973094791173935,0.6322455406188965
1733404618704758500,12.011758544921875,-0.11423180252313614,0.08246681094169617,0.2834414839744568
1733404618714758700,12.021758544921875,-0.1618792861700058,-0.021380282938480377,-0.10567969083786011
1733404618724747500,12.03174755859375,-0.2028072625398636,-0.08735372871160507,-0.4740314185619354
1733404618734777900,12.04177783203125,-0.2480112910270691,-0.1160643994808197,-0.8790351152420044
1733404618744736500,12.051736572265625,-0.2742784917354584,-0.10812314599752426,-1.0396926403045654
1733404618754768100,12.06176806640625,-0.29138273000717163,-0.07269296050071716,-1.1074986457824707
1733404618764756200,12.071756103515625,-0.29626965522766113,-0.031154127791523933,-1.083064079284668
1733404618774757000,12.081757080078125,-0.2926044464111328,-0.009162978269159794,-0.9908234477043152
1733404618784745200,12.0917451171875,-0.2736676335334778,0.0006108652451075613,-0.8393288254737854
1733404618794776800,12.10177685546875,-0.24556782841682434,0.0012217304902151227,-0.6414085030555725
1733404618804764700,12.1117646484375,-0.192422553896904,0.0006108652451075613,-0.31154128909111023
1733404618814765800,12.121765869140624,-0.15271630883216858,0.00733038317412138,-0.10751228034496307
1733404618824753700,12.131753662109375,-0.11911872029304504,-0.00427605677396059,0.05925392732024193
1733404618834785500,12.14178564453125,-0.09712757170200348,-0.03237585723400116,0.18081611394882202
1733404618844742700,12.15174267578125,-0.07635815441608429,-0.04398229718208313,0.26022860407829285
1733404618854802000,12.161802001953125,-0.06780604273080826,-0.03787364438176155,0.28955012559890747
1733404618864762400,12.171762451171874,-0.06658431142568588,-0.013439035043120384,0.2565633952617645
1733404618874762800,12.1817626953125,-0.07513642311096191,0.03726277872920036,0.11545353382825851
1733404618884751000,12.191751220703125,-0.08368854224681854,0.0708603709936142,-0.00366519158706069
1733404618894782200,12.2017822265625,-0.08246681094169617,0.10445795953273773,-0.11545353382825851
1733404618904740000,12.211739990234374,-0.07941248267889023,0.15271630883216858,-0.19792033731937408
1733404618914772000,12.22177197265625,-0.06414084881544113,0.18081611394882202,-0.24007004499435425
1733404618924759800,12.231759765625,-0.04398229718208313,0.1716531366109848,-0.25595253705978394
1733404618934760700,12.2417607421875,-0.033597588539123535,0.14049901068210602,-0.2638937830924988
1733404618944748800,12.251748779296875,-0.03420845419168472,0.09346238523721695,-0.28099802136421204
1733404618954780400,12.261780517578124,-0.05803219974040985,-0.004886921960860491,-0.33047810196876526
1733404618964737800,12.27173779296875,-0.07635815441608429,-0.06719517707824707,-0.36590829491615295
1733404618974769400,12.281769287109375,-0.08796459436416626,-0.12767083942890167,-0.3891211748123169
1733404618984757200,12.29175732421875,-0.09957103431224823,-0.16432274878025055,-0.394618958234787
1733404618994758400,12.30175830078125,-0.10690141469240189,-0.18875735998153687,-0.37140607833862305
1733404619004746200,12.311746337890625,-0.10995574295520782,-0.18936823308467865,-0.3292563557624817
1733404619014777900,12.32177783203125,-0.1062905490398407,-0.15943582355976105,-0.2590068578720093
1733404619024735200,12.3317353515625,-0.08674286305904388,-0.05375614017248154,-0.12278391420841217
1733404619034766300,12.341766357421875,-0.06658431142568588,0.010995574295520782,-0.04703662544488907
1733404619044755000,12.3517548828125,-0.0507018156349659,0.06963863968849182,-0.006108652334660292
1733404619054786000,12.3617861328125,-0.04703662544488907,0.11301007121801376,-0.01038470957428217
1733404619064744000,12.371743896484375,-0.060475658625364304,0.14049901068210602,-0.06352998316287994
1733404619074775800,12.38177587890625,-0.08002334833145142,0.14966198801994324,-0.15760323405265808
1733404619084763400,12.391763427734375,-0.10018189996480942,0.1459967941045761,-0.2535090744495392
1733404619094764500,12.4017646484375,-0.11911872029304504,0.07757988572120667,-0.30604347586631775
1733404619104752400,12.41175244140625,-0.09712757170200348,0.04398229718208313,-0.24129177629947662
1733404619114783200,12.421783203125,-0.04153883829712868,0.01710422709584236,-0.10262536257505417
1733404619124741000,12.4317412109375,0.0354301854968071,0.015271631069481373,0.09346238523721695
1733404619134772500,12.4417724609375,0.13500121235847473,0.015882495790719986,0.2919935882091522
1733404619144760300,12.45176025390625,0.22113321721553802,0.0354301854968071,0.4080579876899719
1733404619154761700,12.46176171875,0.27061331272125244,0.08307767659425735,0.4141666293144226
1733404619164749300,12.471749267578126,0.30115658044815063,0.15027284622192383,0.3170390725135803
1733404619174780200,12.4817802734375,0.36102136969566345,0.24007004499435425,0.018325956538319588
1733404619184738600,12.491738525390625,0.3995058834552765,0.2376265823841095,-0.2223549485206604
1733404619194770400,12.5017705078125,0.3988949954509735,0.14538592100143433,-0.42699480056762695
1733404619204758000,12.511758056640625,0.37568211555480957,-0.001832595793530345,-0.5436700582504272
1733404619214759000,12.521759033203125,0.3335324227809906,-0.14538592100143433,-0.5076290369033813
1733404619224747500,12.53174755859375,0.3176499307155609,-0.2028072625398636,-0.2822197377681732
1733404619234779400,12.541779296875,0.36651915311813354,-0.10262536257505417,0.1563815027475357
1733404619244736500,12.551736572265625,0.5314527750015259,0.192422553896904,1.047023057937622
1733404619254768000,12.56176806640625,0.665232241153717,0.26511552929878235,1.5821410417556763
1733404619264756200,12.571756103515625,0.749531626701355,0.2541199326515198,1.9175059795379639
1733404619274755800,12.581755859375,0.7422012686729431,0.18570303916931152,1.9254472255706787
1733404619284745000,12.591744873046874,0.6572909951210022,0.031154127791523933,1.6126842498779297
1733404619294775600,12.601775634765625,0.48685958981513977,-0.15027284622192383,1.0183123350143433
1733404619304764700,12.6117646484375,0.27977627515792847,-0.3341432809829712,0.24007004499435425
1733404619314765600,12.621765625,-0.01771509274840355,-0.4331034719944,-0.9437867999076843
1733404619324753700,12.631753662109375,-0.15515977144241333,-0.3738495409488678,-1.4850133657455444
1733404619334785000,12.641784912109374,-0.23945917189121246,-0.32009339332580566,-1.7336355447769165
1733404619344742700,12.65174267578125,-0.23151792585849762,-0.2474004179239273,-1.6896532773971558
1733404619354774300,12.661774169921875,-0.14905111491680145,-0.16432274878025055,-1.4043792486190796
1733404619364762400,12.671762451171874,-0.029932396486401558,-0.10873401165008545,-0.9566149711608887
1733404619374763300,12.68176318359375,0.10567969083786011,-0.06230825558304787,-0.4398229718208313
1733404619384751000,12.691751220703125,0.22479841113090515,-0.027488935738801956,0.024434609338641167
