time,seconds_elapsed,z,y,x
1733404607234850300,0.541850341796875,-0.0507018156349659,-0.051312681287527084,-0.009773843921720982
1733404607244807700,0.5518076171875,-0.059864792972803116,-0.04459316283464432,-0.0006108652451075613
1733404607254839600,0.561839599609375,-0.06352998316287994,-0.051312681287527084,0.00366519158706069
1733404607264827100,0.5718271484375,-0.06780604273080826,-0.060475658625364304,0.012828170321881771
1733404607274828500,0.58182861328125,-0.06414084881544113,-0.06108652427792549,0.024434609338641167
1733404607284816100,0.591816162109375,-0.056810468435287476,-0.06169738993048668,0.03726277872920036
1733404607294847700,0.60184765625,-0.04459316283464432,-0.05497787147760391,0.04703662544488907
1733404607304805400,0.611805419921875,-0.03726277872920036,-0.04764748737215996,0.04337143152952194
1733404607314837000,0.6218369140625,-0.03176499158143997,-0.04764748737215996,0.03237585723400116
1733404607324824800,0.631824951171875,-0.02932153269648552,-0.05192354694008827,0.02076941914856434
1733404607334856400,0.6418564453125,-0.03298672288656235,-0.05803219974040985,0.006719517521560192
1733404607344813800,0.651813720703125,-0.03726277872920036,-0.06536258012056351,-0.003054326167330146
1733404607354845400,0.661845458984375,-0.04398229718208313,-0.07208210229873657,-0.00855211354792118
1733404607364833300,0.671833251953125,-0.048258353024721146,-0.06536258012056351,-0.001832595793530345
1733404607374834400,0.68183447265625,-0.05192354694008827,-0.05619960278272629,0.006108652334660292
1733404607384822300,0.691822265625,-0.05375614017248154,-0.04948008432984352,0.01160643994808197
1733404607394854400,0.7018544921875,-0.05192354694008827,-0.033597588539123535,0.00855211354792118
1733404607404811300,0.711811279296875,-0.05314527451992035,-0.024434609338641167,0.00427605677396059
1733404607414843100,0.721843017578125,-0.05619960278272629,-0.021380282938480377,-0.00427605677396059
1733404607424831000,0.7318310546875,-0.054367005825042725,-0.015271631069481373,-0.009162978269159794
1733404607434832100,0.74183203125,-0.0555887371301651,-0.012217304669320583,-0.009773843921720982
1733404607444820000,0.751820068359375,-0.054367005825042725,-0.02015855349600315,-0.0012217304902151227
1733404607454851600,0.7618515625,-0.0507018156349659,-0.02321287989616394,0.004886921960860491
1733404607464808700,0.77180859375,-0.048258353024721146,-0.03176499158143997,0.009773843921720982
1733404607474840600,0.781840576171875,-0.04886921867728233,-0.03787364438176155,0.00366519158706069
1733404607484828400,0.791828369140625,-0.04337143152952194,-0.039095375686883926,-0.007941247895359993
1733404607494829600,0.80182958984375,-0.04092797264456749,-0.03298672288656235,-0.018325956538319588
1733404607504817400,0.8118173828125,-0.03848451003432274,-0.02687807008624077,-0.02687807008624077
1733404607514849300,0.821849365234375,-0.0354301854968071,-0.018325956538319588,-0.02932153269648552
1733404607524806400,0.831806396484375,-0.033597588539123535,-0.01466076634824276,-0.025656340643763542
1733404607534838300,0.84183837890625,-0.03787364438176155,-0.01771509274840355,-0.022602014243602753
1733404607544825900,0.851825927734375,-0.04153883829712868,-0.01710422709584236,-0.021380282938480377
1733404607554826800,0.86182666015625,-0.04764748737215996,-0.01160643994808197,-0.02871066704392433
1733404607564814800,0.87181494140625,-0.05314527451992035,-0.01466076634824276,-0.0403171069920063
1733404607574847000,0.881846923828125,-0.060475658625364304,-0.014049900695681572,-0.0507018156349659
1733404607584834600,0.89183447265625,-0.06902777403593063,-0.012217304669320583,-0.05925392732024193
1733404607594835500,0.90183544921875,-0.07391469180583954,0.0012217304902151227,-0.05803219974040985
1733404607604823600,0.911823486328125,-0.07819075137376785,0.022602014243602753,-0.0555887371301651
1733404607614855200,0.921855224609375,-0.07819075137376785,0.03298672288656235,-0.04764748737215996
1733404607624812500,0.9318125,-0.06902777403593063,0.030543262138962746,-0.03481931984424591
1733404607634844200,0.94184423828125,-0.07208210229873657,0.00366519158706069,-0.01710422709584236
1733404607644832000,0.95183203125,-0.05497787147760391,0.004886921960860491,-0.012828170321881771
1733404607654833400,0.96183349609375,-0.048258353024721146,0.007941247895359993,-0.0024434609804302454
1733404607664821000,0.971821044921875,-0.03481931984424591,-0.018936822190880775,0.02382374368607998
1733404607674852900,0.981852783203125,-0.03176499158143997,-0.03237585723400116,0.03237585723400116
1733404607684810000,0.99181005859375,-0.03298672288656235,-0.029932396486401558,0.03481931984424591
1733404607694841600,1.001841552734375,-0.03726277872920036,-0.024434609338641167,0.030543262138962746
1733404607704829700,1.01182958984375,-0.0403171069920063,-0.02871066704392433,0.018936822190880775
1733404607714830800,1.021830810546875,-0.04153883829712868,-0.025045474991202354,-0.001832595793530345
1733404607724818700,1.031818603515625,-0.04764748737215996,-0.021991148591041565,-0.018936822190880775
1733404607734850600,1.0418505859375,-0.051312681287527084,-0.015882495790719986,-0.04948008432984352
1733404607744807700,1.0518076171875,-0.0555887371301651,-0.014049900695681572,-0.06658431142568588
1733404607754839300,1.06183935546875,-0.059864792972803116,-0.01771509274840355,-0.07880161702632904
1733404607764827100,1.0718271484375,-0.059864792972803116,-0.019547687843441963,-0.08918632566928864
1733404607774828300,1.081828369140625,-0.05925392732024193,-0.014049900695681572,-0.09040805697441101
1733404607784816000,1.091816162109375,-0.05864306539297104,-0.009773843921720982,-0.08307767659425735
1733404607794847700,1.10184765625,-0.05742133408784866,-0.013439035043120384,-0.07024950534105301
1733404607804805000,1.11180517578125,-0.05009094998240471,-0.01466076634824276,-0.04153883829712868
1733404607814837000,1.1218369140625,-0.04153883829712868,-0.01771509274840355,-0.014049900695681572
1733404607824824800,1.131824951171875,-0.036651913076639175,-0.02687807008624077,0.01160643994808197
1733404607834856700,1.141856689453125,-0.02687807008624077,-0.039706241339445114,0.025656340643763542
1733404607844813800,1.151813720703125,-0.02321287989616394,-0.051312681287527084,0.022602014243602753
1733404607854845400,1.161845458984375,-0.02321287989616394,-0.05864306539297104,0.0006108652451075613
1733404607864833300,1.171833251953125,-0.021380282938480377,-0.056810468435287476,-0.029932396486401558
1733404607874834400,1.18183447265625,-0.018325956538319588,-0.04886921867728233,-0.05253441259264946
1733404607884822300,1.191822265625,-0.016493361443281174,-0.048258353024721146,-0.05314527451992035
1733404607894854000,1.20185400390625,-0.01771509274840355,-0.05497787147760391,-0.03726277872920036
1733404607904811300,1.211811279296875,-0.019547687843441963,-0.06963863968849182,-0.022602014243602753
1733404607914843000,1.2218427734375,-0.01710422709584236,-0.07208210229873657,-0.018325956538319588
1733404607924831000,1.2318310546875,-0.015271631069481373,-0.05619960278272629,-0.02382374368607998
1733404607934831900,1.241831787109375,-0.012217304669320583,-0.0507018156349659,-0.03237585723400116
1733404607944820000,1.251820068359375,-0.004886921960860491,-0.036041051149368286,-0.036041051149368286
1733404607954851600,1.2618515625,0.00733038317412138,-0.029932396486401558,-0.02626720629632473
1733404607964809000,1.27180908203125,0.014049900695681572,-0.04092797264456749,-0.024434609338641167
1733404607974840600,1.281840576171875,0.010995574295520782,-0.054367005825042725,-0.03726277872920036
1733404607984828400,1.291828369140625,0.009773843921720982,-0.06352998316287994,-0.07147123664617538
1733404607994829300,1.301829345703125,0.00427605677396059,-0.07391469180583954,-0.10873401165008545
1733404608004817400,1.3118173828125,-0.00427605677396059,-0.08552113175392151,-0.13072516024112701
1733404608014849000,1.32184912109375,-0.012217304669320583,-0.09285151958465576,-0.13805554807186127
1733404608024806700,1.331806640625,-0.027488935738801956,-0.1014036312699318,-0.1215621829032898
1733404608034838300,1.34183837890625,-0.04398229718208313,-0.10018189996480942,-0.08918632566928864
1733404608044825900,1.351825927734375,-0.05619960278272629,-0.09529497474431992,-0.05619960278272629
1733404608054857700,1.361857666015625,-0.06536258012056351,-0.08368854224681854,-0.018936822190880775
1733404608064814800,1.37181494140625,-0.06902777403593063,-0.06475171446800232,0.012828170321881771
1733404608074846700,1.3818466796875,-0.06963863968849182,-0.04092797264456749,0.03176499158143997
1733404608084834600,1.39183447265625,-0.06780604273080826,-0.018936822190880775,0.03298672288656235
1733404608094836000,1.4018359375,-0.07757988572120667,0.006108652334660292,0.01710422709584236
1733404608104823600,1.411823486328125,-0.08368854224681854,0.02871066704392433,-0.03420845419168472
1733404608114853600,1.421853515625,-0.09224065393209457,0.021380282938480377,-0.07147123664617538
1733404608124811500,1.4318115234375,-0.10506882518529892,-0.00733038317412138,-0.10323622822761536
1733404608134843400,1.441843505859375,-0.1215621829032898,-0.042760565876960754,-0.12095131725072861
1733404608144831200,1.451831298828125,-0.13255776464939117,-0.06902777403593063,-0.1258382350206375
1733404608154832400,1.461832275390625,-0.14233160018920898,-0.07819075137376785,-0.11178833991289139
1733404608164820200,1.4718203125,-0.14355333149433136,-0.07391469180583954,-0.08124507963657379
1733404608174851800,1.481851806640625,-0.12767083942890167,-0.02321287989616394,-0.027488935738801956
1733404608184809200,1.491809326171875,-0.11056660860776901,0.015882495790719986,0.00427605677396059
1733404608194841000,1.501841064453125,-0.0910189226269722,0.04153883829712868,0.021380282938480377
1733404608204828700,1.51182861328125,-0.07513642311096191,0.04581489413976669,0.015271631069481373
1733404608214830800,1.521830810546875,-0.06780604273080826,0.036651913076639175,-0.013439035043120384
1733404608224818400,1.531818359375,-0.06475171446800232,0.018936822190880775,-0.04764748737215996
1733404608234850300,1.541850341796875,-0.06780604273080826,-0.0012217304902151227,-0.06902777403593063
1733404608244807700,1.5518076171875,-0.06841690838336945,-0.010995574295520782,-0.05375614017248154
1733404608254839600,1.561839599609375,-0.06780604273080826,-0.012828170321881771,-0.015271631069481373
1733404608264827100,1.5718271484375,-0.06352998316287994,-0.014049900695681572,0.033597588539123535
1733404608274828500,1.58182861328125,-0.054367005825042725,-0.0006108652451075613,0.09162978827953339
1733404608284816100,1.591816162109375,-0.04642575979232788,0.02932153269648552,0.14355333149433136
1733404608294847700,1.60184765625,-0.031154127791523933,0.059864792972803116,0.18936823308467865
1733404608304835600,1.611835693359375,-0.015271631069481373,0.08307767659425735,0.23029619455337524
1733404608314836700,1.621836669921875,0.003054326167330146,0.09040805697441101,0.2590068578720093
1733404608324824800,1.631824951171875,0.02382374368607998,0.06230825558304787,0.252287358045578
1733404608334856400,1.6418564453125,0.021991148591041565,0.028099801391363144,0.2064724564552307
1733404608344813800,1.651813720703125,0.030543262138962746,0,0.13744467496871948
1733404608354845200,1.66184521484375,0.036651913076639175,-0.03237585723400116,0.05925392732024193
1733404608364833300,1.671833251953125,0.0507018156349659,-0.05497787147760391,-0.015882495790719986
1733404608374834400,1.68183447265625,0.06963863968849182,-0.06230825558304787,-0.06902777403593063
1733404608384822300,1.691822265625,0.09529497474431992,-0.06108652427792549,-0.08368854224681854
1733404608394854100,1.701854248046875,0.14049901068210602,-0.033597588539123535,-0.030543262138962746
1733404608404811300,1.711811279296875,0.16798794269561768,-0.02626720629632473,0.03176499158143997
1733404608414843100,1.721843017578125,0.18936823308467865,-0.036651913076639175,0.08185594528913498
1733404608424831000,1.7318310546875,0.20097467303276062,-0.04703662544488907,0.0959058403968811
1733404608434830800,1.741830810546875,0.20463985204696655,-0.05497787147760391,0.06352998316287994
1733404608444820000,1.751820068359375,0.19792033731937408,-0.06414084881544113,-0.006719517521560192
1733404608454851000,1.76185107421875,0.18081611394882202,-0.07880161702632904,-0.09773843735456467
1733404608464808700,1.77180859375,0.13805554807186127,-0.10751228034496307,-0.24434609711170197
1733404608474840600,1.781840576171875,0.1062905490398407,-0.13072516024112701,-0.3286454975605011
1733404608484828400,1.791828369140625,0.08124507963657379,-0.13927727937698364,-0.3897320330142975
1733404608494829300,1.801829345703125,0.06475171446800232,-0.13255776464939117,-0.4190535545349121
1733404608504817400,1.8118173828125,0.0555887371301651,-0.10201449692249298,-0.40194934606552124
1733404608514849000,1.82184912109375,0.05009094998240471,-0.06658431142568588,-0.3494149148464203
1733404608524806700,1.831806640625,0.06841690838336945,-0.039095375686883926,-0.26083946228027344
1733404608534838000,1.841838134765625,0.09468411654233932,-0.007941247895359993,-0.1508837193250656
1733404608544825900,1.851825927734375,0.13988813757896423,0.015271631069481373,0.03176499158143997
1733404608554857700,1.861857666015625,0.16737708449363708,0.013439035043120384,0.13377949595451355
1733404608564814800,1.87181494140625,0.19425514340400696,0.012217304669320583,0.19608774781227112
1733404608574845700,1.881845703125,0.20525072515010834,0,0.2223549485206604
1733404608584834300,1.891834228515625,0.20891591906547546,-0.02076941914856434,0.21624629199504852
1733404608594835000,1.9018349609375,0.20952677726745605,-0.04092797264456749,0.18875735998153687
1733404608604823600,1.911823486328125,0.2064724564552307,-0.060475658625364304,0.15454891324043274
1733404608614854700,1.921854736328125,0.19120082259178162,-0.09407325088977814,0.09529497474431992
1733404608624812500,1.9318125,0.17837265133857727,-0.09896016865968704,0.054367005825042725
1733404608634844200,1.94184423828125,0.16920967400074005,-0.08674286305904388,0.02321287989616394
1733404608644832000,1.95183203125,0.15943582355976105,-0.06780604273080826,0.0024434609804302454
1733404608654832400,1.961832275390625,0.14477506279945374,-0.059864792972803116,-0.01038470957428217
1733404608664821000,1.971821044921875,0.12217304855585098,-0.06108652427792549,-0.024434609338641167
1733404608674852000,1.98185205078125,0.09957103431224823,-0.05864306539297104,-0.045204028487205505
1733404608684810000,1.99181005859375,0.06719517707824707,-0.05192354694008827,-0.09162978827953339
1733404608694840800,2.0018408203125,0.04948008432984352,-0.05314527451992035,-0.1160643994808197
1733404608704829700,2.01182958984375,0.02687807008624077,-0.06841690838336945,-0.13561208546161652
1733404608714829800,2.021829833984375,0.009773843921720982,-0.08552113175392151,-0.1514945775270462
1733404608724818700,2.031818603515625,-0.0012217304902151227,-0.08552113175392151,-0.15821409225463867
1733404608734849300,2.041849365234375,-0.005497787147760391,-0.06963863968849182,-0.1459967941045761
1733404608744807700,2.0518076171875,-0.0024434609804302454,-0.05803219974040985,-0.11301007121801376
1733404608754838500,2.061838623046875,0.0006108652451075613,-0.05375614017248154,-0.06230825558304787
1733404608764827000,2.071826904296875,0.00427605677396059,-0.07696902006864548,-0.00366519158706069
1733404608774827800,2.081827880859375,-0.001832595793530345,-0.1062905490398407,0.00427605677396059
1733404608784816400,2.09181640625,-0.016493361443281174,-0.1319468915462494,-0.014049900695681572
1733404608794847200,2.10184716796875,-0.04214970022439957,-0.1667662113904953,-0.05314527451992035
1733404608804835800,2.1118359375,-0.07513642311096191,-0.22113321721553802,-0.10262536257505417
1733404608814836200,2.121836181640625,-0.10506882518529892,-0.2773328125476837,-0.1411098688840866
1733404608824824800,2.131824951171875,-0.12461651116609573,-0.313373863697052,-0.14294247329235077
1733404608834856400,2.1418564453125,-0.13072516024112701,-0.3121521472930908,-0.056810468435287476
1733404608844813800,2.151813720703125,-0.12034045159816742,-0.30970868468284607,0.04642575979232788
1733404608854873000,2.161873046875,-0.1007927656173706,-0.2981022298336029,0.15332718193531036
1733404608864833300,2.171833251953125,-0.0757472887635231,-0.27061331272125244,0.23396138846874237
1733404608874834000,2.181833984375,-0.06536258012056351,-0.2528982162475586,0.27488934993743896
1733404608884822300,2.191822265625,-0.06169738993048668,-0.23273965716362,0.26633724570274353
1733404608894853400,2.201853271484375,-0.060475658625364304,-0.21502456068992615,0.2125810980796814
1733404608904811300,2.211811279296875,-0.08002334833145142,-0.19608774781227112,0.06841690838336945
1733404608914842400,2.22184228515625,-0.09834930300712585,-0.19792033731937408,-0.036041051149368286
1733404608924831000,2.2318310546875,-0.10445795953273773,-0.192422553896904,-0.12522737681865692
1733404608934832000,2.24183203125,-0.10690141469240189,-0.17409659922122955,-0.18997909128665924
1733404608944820000,2.251820068359375,-0.11239920556545258,-0.16249015927314758,-0.2278527319431305
1733404608954851600,2.2618515625,-0.10995574295520782,-0.15943582355976105,-0.25106561183929443
1733404608964809000,2.27180908203125,-0.09957103431224823,-0.14294247329235077,-0.26450464129447937
1733404608974840600,2.281840576171875,-0.0959058403968811,-0.1313360333442688,-0.2681698501110077
1733404608984828400,2.291828369140625,-0.09529497474431992,-0.1160643994808197,-0.2675589919090271
1733404608994829300,2.301829345703125,-0.10751228034496307,-0.11301007121801376,-0.24678955972194672
1733404609004817400,2.3118173828125,-0.13255776464939117,-0.11056660860776901,-0.19058994948863983
1733404609014849000,2.32184912109375,-0.16310101747512817,-0.11423180252313614,-0.10018189996480942
1733404609024806700,2.331806640625,-0.19058994948863983,-0.11362093687057495,0.028099801391363144
1733404609034838300,2.34183837890625,-0.20952677726745605,-0.08246681094169617,0.17898350954055786
1733404609044826400,2.351826416015625,-0.21502456068992615,-0.00733038317412138,0.34697145223617554
1733404609054857700,2.361857666015625,-0.22663100063800812,0.11667526513338089,0.5858197808265686
1733404609064814800,2.37181494140625,-0.2370157092809677,0.2070833146572113,0.7183775305747986
1733404609074846500,2.381846435546875,-0.24495697021484375,0.2773328125476837,0.8051204085350037
1733404609084834600,2.39183447265625,-0.24617868661880493,0.31520646810531616,0.837496280670166
1733404609094835500,2.40183544921875,-0.24190263450145721,0.32070425152778625,0.8124507665634155
1733404609104823600,2.411823486328125,-0.2431243658065796,0.2938261926174164,0.7330383062362671
1733404609114852000,2.42185205078125,-0.2535090744495392,0.23579397797584534,0.608421802520752
1733404609124811500,2.4318115234375,-0.2681698501110077,0.18509216606616974,0.3799581825733185
1733404609134842000,2.441842041015625,-0.2883284091949463,0.12461651116609573,0.2015855312347412
1733404609144831200,2.451831298828125,-0.31031954288482666,0.08491026610136032,0.021991148591041565
1733404609154830800,2.461830810546875,-0.32620203495025635,0.03848451003432274,-0.1459967941045761
1733404609164820200,2.4718203125,-0.3378084897994995,-0.030543262138962746,-0.303600013256073
1733404609174851800,2.481851806640625,-0.34147366881370544,-0.10873401165008545,-0.44165557622909546
1733404609184809200,2.491809326171875,-0.34025195240974426,-0.18936823308467865,-0.5479460954666138
1733404609194840800,2.5018408203125,-0.3481931984424591,-0.252287358045578,-0.5931501388549805
1733404609204828700,2.51182861328125,-0.3695734739303589,-0.2987131178379059,-0.5479460954666138
1733404609214830600,2.52183056640625,-0.38179078698158264,-0.30604347586631775,-0.455705463886261
1733404609224818700,2.531818603515625,-0.384845107793808,-0.28955012559890747,-0.3188716471195221
1733404609234850300,2.541850341796875,-0.38179078698158264,-0.24984388053417206,-0.14233160018920898
1733404609244807700,2.5518076171875,-0.37201693654060364,-0.2070833146572113,0.03726277872920036
1733404609254839600,2.561839599609375,-0.35674530267715454,-0.1716531366109848,0.17837265133857727
1733404609264827100,2.5718271484375,-0.342695415019989,-0.1368338167667389,0.26939156651496887
1733404609274828300,2.581828369140625,-0.33536502718925476,-0.11301007121801376,0.32009339332580566
1733404609284816100,2.591816162109375,-0.3286454975605011,-0.08979719132184982,0.31520646810531616
1733404609294848000,2.601847900390625,-0.32681289315223694,-0.07147123664617538,0.29993483424186707
1733404609304835800,2.6118359375,-0.32620203495025635,-0.06414084881544113,0.2828305959701538
1733404609314836500,2.62183642578125,-0.32131510972976685,-0.06475171446800232,0.26633724570274353
1733404609324824800,2.631824951171875,-0.31642818450927734,-0.05742133408784866,0.25106561183929443
1733404609334855700,2.641855712890625,-0.31093040108680725,-0.05253441259264946,0.2382374405860901
1733404609344813600,2.6518134765625,-0.30115658044815063,-0.039095375686883926,0.19975294172763824
1733404609354844700,2.6618447265625,-0.29626965522766113,-0.016493361443281174,0.14355333149433136
1733404609364833000,2.6718330078125,-0.29016098380088806,0.006719517521560192,0.07147123664617538
1733404609374833700,2.681833740234375,-0.2822197377681732,0.00855211354792118,-0.005497787147760391
1733404609384822300,2.691822265625,-0.2736676335334778,-0.009162978269159794,-0.06841690838336945
1733404609394853400,2.701853271484375,-0.26939156651496887,-0.036651913076639175,-0.10995574295520782
1733404609404811300,2.711811279296875,-0.2620611786842346,-0.06658431142568588,-0.13805554807186127
1733404609414843000,2.7218427734375,-0.2535090744495392,-0.06780604273080826,-0.14782938361167908
1733404609424830700,2.731830810546875,-0.24129177629947662,-0.04886921867728233,-0.10873401165008545
1733404609434832100,2.74183203125,-0.22846360504627228,-0.04337143152952194,-0.051312681287527084
1733404609444819700,2.75181982421875,-0.21502456068992615,-0.02626720629632473,0.024434609338641167
1733404609454851800,2.761851806640625,-0.20402899384498596,0.004886921960860491,0.10384709388017654
1733404609464808700,2.77180859375,-0.19547687470912933,0.02015855349600315,0.16371189057826996
1733404609474839800,2.78183984375,-0.18448130786418915,0.04459316283464432,0.19792033731937408
1733404609484828400,2.791828369140625,-0.17287486791610718,0.05742133408784866,0.20402899384498596
1733404609494828800,2.801828857421875,-0.16371189057826996,0.03420845419168472,0.1661553531885147
1733404609504817400,2.8118173828125,-0.16065755486488342,0.036041051149368286,0.11728613078594208
1733404609514849000,2.82184912109375,-0.1612684279680252,0.04948008432984352,0.0354301854968071
1733404609524806700,2.831806640625,-0.16554448008537292,0.04459316283464432,-0.06658431142568588
1733404609534838300,2.84183837890625,-0.18448130786418915,0.01160643994808197,-0.1508837193250656
1733404609544825900,2.851825927734375,-0.18814650177955627,-0.03176499158143997,-0.19058994948863983
1733404609554857500,2.861857421875,-0.1612684279680252,-0.0806342139840126,-0.14966198801994324
1733404609564814800,2.87181494140625,-0.05742133408784866,-0.13072516024112701,0.08735372871160507
1733404609574846700,2.8818466796875,0.022602014243602753,-0.09346238523721695,0.3170390725135803
1733404609584834600,2.89183447265625,0.09529497474431992,0.012828170321881771,0.5119050741195679
1733404609594835500,2.90183544921875,0.15027284622192383,0.12828169763088226,0.6230825781822205
1733404609604823600,2.911823486328125,0.18631389737129211,0.24007004499435425,0.6359107494354248
1733404609614854700,2.921854736328125,0.18936823308467865,0.32131510972976685,0.5662720799446106
1733404609624812500,2.9318125,0.1765400618314743,0.3543018400669098,0.4196644127368927
1733404609634843400,2.941843505859375,0.15577064454555511,0.34025195240974426,0.19853121042251587
1733404609644832000,2.95183203125,0.06658431142568588,0.22602014243602753,-0.24495697021484375
1733404609654832400,2.961832275390625,-0.007941247895359993,0.04398229718208313,-0.5467243790626526
1733404609664821000,2.971821044921875,-0.03298672288656235,-0.1514945775270462,-0.7715228199958801
1733404609674852600,2.9818525390625,-0.03176499158143997,-0.21624629199504852,-0.7751879692077637
1733404609684810000,2.99181005859375,-0.005497787147760391,-0.07757988572120667,-0.48869219422340393
1733404609694841600,3.001841552734375,0.05497787147760391,0.19364428520202637,0.028099801391363144
1733404609704829700,3.01182958984375,0.16493362188339233,0.4447098970413208,0.6609562039375305
1733404609714830600,3.02183056640625,0.36651915311813354,0.5516113042831421,1.5369369983673096
1733404609724818700,3.031818603515625,0.4660901725292206,0.5375614166259766,1.9034560918807983
1733404609734849000,3.04184912109375,0.5015203952789307,0.5241223573684692,2.034792184829712
1733404609744807700,3.0518076171875,0.49846604466438293,0.48869219422340393,1.9077321290969849
1733404609754840000,3.061840087890625,0.4306600093841553,0.3536909818649292,1.5143349170684814
1733404609764835000,3.0718349609375,0.3127630054950714,0.1722639948129654,0.912021815776825
1733404609774826800,3.08182666015625,0.15821409225463867,-0.042760565876960754,0.1875356286764145
1733404609784816000,3.091816162109375,-0.06780604273080826,-0.32986724376678467,-0.8478809595108032
1733404609794847700,3.10184765625,-0.17531833052635193,-0.3982841372489929,-1.3164145946502686
1733404609804835800,3.1118359375,-0.25106561183929443,-0.39767327904701233,-1.5552629232406616
1733404609814836700,3.121836669921875,-0.2718350291252136,-0.3604104816913605,-1.568701982498169
1733404609824824800,3.131824951171875,-0.2382374405860901,-0.3121521472930908,-1.3982704877853394
1733404609834856400,3.1418564453125,-0.17409659922122955,-0.24617868661880493,-1.081842303276062
1733404609844813600,3.1518134765625,-0.10873401165008545,-0.16432274878025055,-0.6682865619659424
1733404609854845400,3.161845458984375,-0.051312681287527084,-0.1062905490398407,-0.24373523890972137
1733404609864833300,3.171833251953125,-0.0024434609804302454,-0.08307767659425735,0.2119702398777008
1733404609874834200,3.181834228515625,0.001832595793530345,-0.10934487730264664,0.3536909818649292
1733404609884822300,3.191822265625,-0.009162978269159794,-0.18631389737129211,0.38606682419776917
1733404609894853400,3.201853271484375,-0.021991148591041565,-0.2773328125476837,0.36102136969566345
1733404609904811300,3.211811279296875,-0.01771509274840355,-0.3439171314239502,0.31520646810531616
1733404609914842400,3.22184228515625,0.0024434609804302454,-0.38728857040405273,0.2816088795661926
1733404609924831000,3.2318310546875,0.03298672288656235,-0.4050036668777466,0.2669481039047241
1733404609934831400,3.241831298828125,0.07819075137376785,-0.3677408695220947,0.2736676335334778
1733404609944820000,3.251820068359375,0.09957103431224823,-0.3072652220726013,0.2938261926174164
1733404609954851000,3.26185107421875,0.10567969083786011,-0.2535090744495392,0.2968805134296417
1733404609964808700,3.27180859375,0.0910189226269722,-0.22296582162380219,0.2638937830924988
1733404609974839800,3.28183984375,0.059864792972803116,-0.23151792585849762,0.19547687470912933
1733404609984828400,3.291828369140625,0.02382374368607998,-0.2834414839744568,0.09896016865968704
1733404609994829000,3.3018291015625,-0.00733038317412138,-0.33475416898727417,-0.003054326167330146
1733404610004817400,3.3118173828125,-0.02382374368607998,-0.3390302062034607,-0.13805554807186127
1733404610014848500,3.3218486328125,-0.015271631069481373,-0.3029891550540924,-0.2174680233001709
1733404610024806700,3.331806640625,-0.00366519158706069,-0.26022860407829285,-0.28527405858039856
1733404610034837800,3.341837646484375,0.015882495790719986,-0.21991148591041565,-0.3439171314239502
1733404610044825900,3.351825927734375,0.03237585723400116,-0.16798794269561768,-0.3683517575263977
1733404610054857000,3.36185693359375,0.04948008432984352,-0.10323622822761536,-0.35124751925468445
1733404610064814800,3.37181494140625,0.045204028487205505,-0.05314527451992035,-0.29504790902137756
1733404610074846500,3.381846435546875,0.02321287989616394,-0.0354301854968071,-0.21868975460529327
1733404610084834600,3.39183447265625,-0.009162978269159794,-0.04886921867728233,-0.1514945775270462
1733404610094835500,3.40183544921875,-0.03237585723400116,-0.051312681287527084,-0.17409659922122955
1733404610104823600,3.411823486328125,-0.060475658625364304,-0.03726277872920036,-0.252287358045578
1733404610114853400,3.421853271484375,-0.10201449692249298,-0.039095375686883926,-0.3732386529445648
1733404610124811800,3.431811767578125,-0.15027284622192383,-0.07269296050071716,-0.5174028873443604
1733404610134843100,3.441843017578125,-0.19975294172763824,-0.09896016865968704,-0.6401867866516113
1733404610144831200,3.451831298828125,-0.22907446324825287,-0.152105450630188,-0.7061602473258972
1733404610154832400,3.461832275390625,-0.25595253705978394,-0.20952677726745605,-0.655458390712738
1733404610164820200,3.4718203125,-0.2767219543457031,-0.23396138846874237,-0.5583308339118958
1733404610174851800,3.481851806640625,-0.29077184200286865,-0.24373523890972137,-0.4337143301963806
1733404610184809200,3.491809326171875,-0.30115658044815063,-0.21502456068992615,-0.29077184200286865
1733404610194841000,3.501841064453125,-0.29016098380088806,-0.1667662113904953,-0.14355333149433136
1733404610204828700,3.51182861328125,-0.2565633952617645,-0.1215621829032898,-0.00733038317412138
1733404610214830800,3.521830810546875,-0.21380282938480377,-0.08246681094169617,0.07941248267889023
1733404610224818700,3.531818603515625,-0.1722639948129654,-0.05742133408784866,0.0555887371301651
1733404610234850300,3.541850341796875,-0.16982053220272064,-0.0403171069920063,-0.0555887371301651
1733404610244807700,3.5518076171875,-0.1820378452539444,0.003054326167330146,-0.1661553531885147
1733404610254839600,3.561839599609375,-0.2021963894367218,0.06414084881544113,-0.1814269721508026
1733404610264827100,3.5718271484375,-0.20341812074184418,0.12461651116609573,-0.07024950534105301
1733404610274828500,3.58182861328125,-0.1918116807937622,0.18631389737129211,0.14782938361167908
1733404610284816100,3.591816162109375,-0.18570303916931152,0.22846360504627228,0.42088615894317627
1733404610294847700,3.60184765625,-0.17531833052635193,0.2535090744495392,0.6762278079986572
1733404610304835600,3.611835693359375,-0.1569923609495163,0.23579397797584534,0.9010262489318848
1733404610314836700,3.621836669921875,-0.1368338167667389,0.1716531366109848,0.9046914577484131
1733404610324824800,3.631824951171875,-0.12339477986097336,0.08246681094169617,0.8045095205307007
1733404610334855200,3.641855224609375,-0.11911872029304504,-0.01160643994808197,0.6090326309204102
1733404610344813800,3.651813720703125,-0.11178833991289139,-0.10323622822761536,0.3384193480014801
1733404610354844000,3.661843994140625,-0.12339477986097336,-0.17837265133857727,0.036651913076639175
1733404610364833300,3.671833251953125,-0.13988813757896423,-0.19303341209888458,-0.2382374405860901
1733404610374834400,3.68183447265625,-0.16798794269561768,-0.13255776464939117,-0.5082398653030396
1733404610384822300,3.691822265625,-0.1716531366109848,-0.04398229718208313,-0.5717698931694031
1733404610394854000,3.70185400390625,-0.16982053220272064,0.04703662544488907,-0.5290092825889587
1733404610404811500,3.7118115234375,-0.1722639948129654,0.13377949595451355,-0.3927863538265228
1733404610414843000,3.7218427734375,-0.1661553531885147,0.1820378452539444,-0.21074850857257843
1733404610424831000,3.7318310546875,-0.1612684279680252,0.18325957655906677,-0.028099801391363144
1733404610434832000,3.741831787109375,-0.1514945775270462,0.1459967941045761,0.10812314599752426
1733404610444820000,3.751820068359375,-0.11911872029304504,0.08002334833145142,0.21930062770843506
1733404610454851600,3.7618515625,-0.09712757170200348,0.03481931984424591,0.24068090319633484
1733404610464808700,3.77180859375,-0.06963863968849182,-0.018325956538319588,0.22602014243602753
1733404610474840600,3.781840576171875,-0.05314527451992035,-0.07513642311096191,0.1966986060142517
1733404610484828400,3.791828369140625,-0.05497787147760391,-0.11178833991289139,0.16004669666290283
1733404610494829300,3.801829345703125,-0.0659734457731247,-0.1313360333442688,0.11789698898792267
1733404610504817400,3.8118173828125,-0.0806342139840126,-0.11056660860776901,0.07452555745840073
1733404610514849000,3.82184912109375,-0.10262536257505417,-0.06719517707824707,0.03176499158143997
1733404610524806400,3.831806396484375,-0.13439035415649414,0.01038470957428217,-0.012828170321881771
1733404610534838000,3.841838134765625,-0.1411098688840866,0.0708603709936142,-0.022602014243602753
1733404610544825900,3.851825927734375,-0.13805554807186127,0.10995574295520782,-0.02626720629632473
1733404610554857000,3.86185693359375,-0.1362229436635971,0.12767083942890167,-0.031154127791523933
1733404610564814800,3.87181494140625,-0.13561208546161652,0.11972958594560623,-0.05253441259264946
1733404610574846000,3.881845947265625,-0.14355333149433136,0.08002334833145142,-0.08185594528913498
1733404610584834600,3.89183447265625,-0.15821409225463867,0.033597588539123535,-0.12278391420841217
1733404610594835700,3.901835693359375,-0.182648703455925,-0.007941247895359993,-0.17470745742321014
1733404610604823600,3.911823486328125,-0.1918116807937622,-0.01160643994808197,-0.18570303916931152
1733404610614855200,3.921855224609375,-0.1966986060142517,-0.0006108652451075613,-0.16065755486488342
1733404610624812500,3.9318125,-0.1875356286764145,0.03420845419168472,-0.10323622822761536
1733404610634844400,3.941844482421875,-0.17104226350784302,0.06475171446800232,-0.021380282938480377
1733404610644832000,3.95183203125,-0.152105450630188,0.07147123664617538,0.06230825558304787
1733404610654832600,3.96183251953125,-0.13561208546161652,0.05314527451992035,0.12522737681865692
1733404610664821000,3.971821044921875,-0.11484266817569733,0.03726277872920036,0.15393804013729095
1733404610674852000,3.98185205078125,-0.11545353382825851,0.03176499158143997,0.11850785464048386
1733404610684810000,3.99181005859375,-0.12278391420841217,0.033597588539123535,0.039095375686883926
1733404610694841000,4.001841064453125,-0.1362229436635971,0.03237585723400116,-0.0659734457731247
1733404610704829700,4.01182958984375,-0.15821409225463867,0.010995574295520782,-0.18387043476104736
1733404610714830600,4.02183056640625,-0.1771509200334549,-0.01466076634824276,-0.29138273000717163
1733404610724818700,4.031818603515625,-0.1973094791173935,-0.06719517707824707,-0.35185837745666504
1733404610734850300,4.041850341796875,-0.19975294172763824,-0.13988813757896423,-0.3481931984424591
1733404610744807700,4.0518076171875,-0.1472185254096985,-0.2076941877603531,-0.21013765037059784
1733404610754839300,4.06183935546875,-0.0555887371301651,-0.22113321721553802,-0.06719517707824707
1733404610764827000,4.071826904296875,0.05619960278272629,-0.2376265823841095,0.07269296050071716
1733404610774828300,4.081828369140625,0.15943582355976105,-0.23579397797584534,0.16371189057826996
1733404610784816000,4.091816162109375,0.23945917189121246,-0.20036379992961884,0.19547687470912933
1733404610794848000,4.101847900390625,0.28955012559890747,-0.13500121235847473,0.15821409225463867
1733404610804805000,4.11180517578125,0.3176499307155609,-0.06291911751031876,0.033597588539123535
1733404610814837000,4.1218369140625,0.28527405858039856,-0.06780604273080826,-0.28527405858039856
1733404610824824800,4.131824951171875,0.19853121042251587,-0.13011430203914642,-0.5296201705932617
1733404610834855700,4.141855712890625,0.07391469180583954,-0.21563543379306793,-0.7336491346359253
1733404610844813800,4.151813720703125,-0.031154127791523933,-0.18875735998153687,-0.7874053120613098
1733404610854875100,4.161875244140625,-0.059864792972803116,-0.04398229718208313,-0.5974262356758118
1733404610864833300,4.171833251953125,-0.003054326167330146,0.14782938361167908,-0.1417207419872284
1733404610874834400,4.18183447265625,0.1258382350206375,0.29138273000717163,0.4789183437824249
1733404610884822300,4.191822265625,0.36590829491615295,0.38117989897727966,1.3353514671325684
1733404610894852600,4.2018525390625,0.49724429845809937,0.3591887652873993,1.6780468225479126
1733404610904811500,4.2118115234375,0.5455026626586914,0.2742784917354584,1.7861700057983398
1733404610914841600,4.221841552734375,0.4862487316131592,0.13866640627384186,1.643227458000183
1733404610924831000,4.2318310546875,0.403781920671463,0.1362229436635971,1.2516628503799438
1733404610934832600,4.24183251953125,0.29993483424186707,0.08002334833145142,0.7141014933586121
1733404610944820000,4.251820068359375,0.1918116807937622,-0.1417207419872284,0.07513642311096191
1733404610954851800,4.261851806640625,0.05497787147760391,-0.29138273000717163,-0.4697553813457489
1733404610964809000,4.27180908203125,-0.09651670604944229,-0.2474004179239273,-0.9779952764511108
1733404610974840800,4.2818408203125,-0.13927727937698364,-0.24678955972194672,-1.1142182350158691
1733404610984828400,4.291828369140625,-0.14294247329235077,-0.2736676335334778,-1.1117748022079468
1733404610994829300,4.301829345703125,-0.11484266817569733,-0.2926044464111328,-1.0067058801651
1733404611004817400,4.3118173828125,-0.07635815441608429,-0.303600013256073,-0.8393288254737854
1733404611014849000,4.32184912109375,-0.030543262138962746,-0.304210901260376,-0.6444628238677979
1733404611024806700,4.331806640625,0.00855211354792118,-0.2993239760398865,-0.4245513379573822
1733404611034838000,4.341838134765625,0.051312681287527084,-0.2883284091949463,-0.10751228034496307
1733404611044825900,4.351825927734375,0.06475171446800232,-0.28466320037841797,0.059864792972803116
1733404611054857700,4.361857666015625,0.06291911751031876,-0.2730567753314972,0.17287486791610718
1733404611064814800,4.37181494140625,0.039706241339445114,-0.2718350291252136,0.23457226157188416
1733404611074846700,4.3818466796875,0.007941247895359993,-0.2736676335334778,0.24495697021484375
1733404611084834600,4.39183447265625,-0.025656340643763542,-0.27488934993743896,0.2125810980796814
1733404611094835000,4.4018349609375,-0.05253441259264946,-0.27122417092323303,0.15760323405265808
1733404611104823600,4.411823486328125,-0.08246681094169617,-0.24923302233219147,0.07635815441608429
1733404611114852900,4.421852783203125,-0.08918632566928864,-0.21319197118282318,0.028099801391363144
1733404611124811500,4.4318115234375,-0.08857546001672745,-0.17837265133857727,-0.014049900695681572
1733404611134842600,4.441842529296875,-0.08796459436416626,-0.14538592100143433,-0.04153883829712868
1733404611144831200,4.451831298828125,-0.08246681094169617,-0.11239920556545258,-0.05925392732024193
1733404611154832100,4.46183203125,-0.07880161702632904,-0.08185594528913498,-0.07269296050071716
1733404611164820200,4.4718203125,-0.07452555745840073,-0.05803219974040985,-0.07269296050071716
1733404611174851800,4.481851806640625,-0.07513642311096191,-0.04153883829712868,-0.0555887371301651
1733404611184809200,4.491809326171875,-0.08979719132184982,-0.04398229718208313,-0.012828170321881771
1733404611194841000,4.501841064453125,-0.1014036312699318,-0.04337143152952194,0.021991148591041565
1733404611204828700,4.51182861328125,-0.10995574295520782,-0.0403171069920063,0.0507018156349659
1733404611214830600,4.52183056640625,-0.12522737681865692,-0.042760565876960754,0.07696902006864548
1733404611224818700,4.531818603515625,-0.14233160018920898,-0.05864306539297104,0.08552113175392151
1733404611234850300,4.541850341796875,-0.14905111491680145,-0.07819075137376785,0.06108652427792549
1733404611244807700,4.5518076171875,-0.14355333149433136,-0.09957103431224823,0.015882495790719986
1733404611254839600,4.561839599609375,-0.13866640627384186,-0.13011430203914642,-0.06291911751031876
1733404611264827100,4.5718271484375,-0.13255776464939117,-0.14294247329235077,-0.1258382350206375
1733404611274828300,4.581828369140625,-0.13377949595451355,-0.15821409225463867,-0.17470745742321014
1733404611284816100,4.591816162109375,-0.14355333149433136,-0.1875356286764145,-0.1966986060142517
1733404611294847700,4.60184765625,-0.17043140530586243,-0.23457226157188416,-0.1875356286764145
1733404611304835600,4.611835693359375,-0.21013765037059784,-0.31031954288482666,-0.1612684279680252
1733404611314836700,4.621836669921875,-0.26572638750076294,-0.3854559659957886,-0.13377949595451355
1733404611324824800,4.631824951171875,-0.3732386529445648,-0.48258355259895325,-0.11545353382825851
1733404611334856200,4.641856201171875,-0.43799036741256714,-0.49357911944389343,-0.08307767659425735
1733404611344813600,4.6518134765625,-0.4697553813457489,-0.4349360466003418,-0.021991148591041565
1733404611354845700,4.661845703125,-0.4605923891067505,-0.342695415019989,0.04764748737215996
1733404611364833300,4.671833251953125,-0.42271876335144043,-0.27000242471694946,0.09040805697441101
1733404611374834700,4.681834716796875,-0.3799581825733185,-0.22357667982578278,0.09285151958465576
1733404611384822300,4.691822265625,-0.3500257730484009,-0.1722639948129654,0.07819075137376785
1733404611394854100,4.701854248046875,-0.31459560990333557,-0.03481931984424591,0.10262536257505417
1733404611404811500,4.7118115234375,-0.20525072515010834,0.3488040566444397,0.34636059403419495
1733404611414843000,4.7218427734375,-0.1313360333442688,0.5931501388549805,0.636521577835083
1733404611424831000,4.7318310546875,-0.08002334833145142,0.7629706859588623,0.9608910083770752
1733404611434832000,4.741831787109375,-0.0507018156349659,0.8552113175392151,1.254717230796814
1733404611444820000,4.751820068359375,-0.04337143152952194,0.8655960559844971,1.4410310983657837
1733404611454850300,4.761850341796875,-0.05009094998240471,0.8136724829673767,1.4789047241210938
1733404611464808700,4.77180859375,-0.06719517707824707,0.6908885836601257,1.350012183189392
1733404611474841300,4.78184130859375,-0.0959058403968811,0.423329621553421,0.8686503767967224
1733404611484828400,4.791828369140625,-0.13011430203914642,0.20341812074184418,0.3982841372489929
1733404611494830600,4.80183056640625,-0.19425514340400696,-0.028099801391363144,-0.12339477986097336
1733404611504817400,4.8118173828125,-0.2632829248905182,-0.20891591906547546,-0.6102544069290161
1733404611514849000,4.82184912109375,-0.2987131178379059,-0.29993483424186707,-0.969443142414093
1733404611524806400,4.831806396484375,-0.32559117674827576,-0.35063666105270386,-1.176526427268982
1733404611534838000,4.841838134765625,-0.3439171314239502,-0.3897320330142975,-1.2424999475479126
1733404611544825900,4.851825927734375,-0.3323107063770294,-0.3433062732219696,-1.0629055500030518
1733404611554857500,4.861857421875,-0.3017674386501312,-0.2590068578720093,-0.8002334833145142
1733404611564814800,4.87181494140625,-0.2675589919090271,-0.18509216606616974,-0.494189977645874
1733404611574846500,4.881846435546875,-0.23457226157188416,-0.13255776464939117,-0.2021963894367218
1733404611584834600,4.89183447265625,-0.20586158335208893,-0.09896016865968704,0.03237585723400116
1733404611594835700,4.901835693359375,-0.19120082259178162,-0.09285151958465576,0.1869247704744339
1733404611604823600,4.911823486328125,-0.18081611394882202,-0.09834930300712585,0.26450464129447937
1733404611614855200,4.921855224609375,-0.15515977144241333,-0.11911872029304504,0.2834414839744568
1733404611624812500,4.9318125,-0.13255776464939117,-0.13316862285137177,0.26572638750076294
1733404611634844200,4.94184423828125,-0.11362093687057495,-0.13805554807186127,0.23945917189121246
1733404611644832000,4.95183203125,-0.0959058403968811,-0.11056660860776901,0.2174680233001709
1733404611654832600,4.96183251953125,-0.07513642311096191,-0.08002334833145142,0.1966986060142517
1733404611664821000,4.971821044921875,-0.059864792972803116,-0.042760565876960754,0.16554448008537292
1733404611674852600,4.9818525390625,-0.04948008432984352,0.0024434609804302454,0.11789698898792267
1733404611684810000,4.99181005859375,-0.04886921867728233,0.060475658625364304,0.05253441259264946
1733404611694841600,5.001841552734375,-0.05742133408784866,0.10262536257505417,-0.04886921867728233
1733404611704829700,5.01182958984375,-0.06963863968849182,0.07819075137376785,-0.09712757170200348
1733404611714830600,5.02183056640625,-0.08552113175392151,0.019547687843441963,-0.12461651116609573
1733404611724818700,5.031818603515625,-0.09834930300712585,-0.04642575979232788,-0.14538592100143433
1733404611734850000,5.04185009765625,-0.10567969083786011,-0.09285151958465576,-0.16371189057826996
1733404611744807700,5.0518076171875,-0.1062905490398407,-0.10201449692249298,-0.1722639948129654
1733404611754839600,5.061839599609375,-0.10873401165008545,-0.09896016865968704,-0.1765400618314743
1733404611764827100,5.0718271484375,-0.1111774742603302,-0.11423180252313614,-0.1771509200334549
1733404611774828300,5.081828369140625,-0.10690141469240189,-0.0959058403968811,-0.17287486791610718
1733404611784816000,5.091816162109375,-0.09712757170200348,-0.051312681287527084,-0.14844025671482086
1733404611794847700,5.10184765625,-0.0806342139840126,-0.0024434609804302454,-0.09651670604944229
1733404611804835600,5.111835693359375,-0.05925392732024193,0.0507018156349659,-0.03298672288656235
1733404611814836500,5.12183642578125,-0.05742133408784866,0.08552113175392151,0.005497787147760391
1733404611824824800,5.131824951171875,-0.07391469180583954,0.08491026610136032,-0.010995574295520782
1733404611834856200,5.141856201171875,-0.13072516024112701,0.0757472887635231,-0.14233160018920898
1733404611844813800,5.151813720703125,-0.1918116807937622,0.0555887371301651,-0.2773328125476837
1733404611854845400,5.161845458984375,-0.24984388053417206,0.009773843921720982,-0.4043927788734436
1733404611864833300,5.171833251953125,-0.27977627515792847,-0.019547687843441963,-0.46731191873550415
1733404611874834200,5.181834228515625,-0.2687807083129883,-0.018936822190880775,-0.4105014503002167
1733404611884822300,5.191822265625,-0.21563543379306793,0.010995574295520782,-0.23335053026676178
1733404611894854000,5.20185400390625,-0.13316862285137177,0.022602014243602753,0.02015855349600315
1733404611904811300,5.211811279296875,-0.04337143152952194,0.027488935738801956,0.2718350291252136
1733404611914843000,5.2218427734375,0.02626720629632473,0.0659734457731247,0.485027015209198
1733404611924831000,5.2318310546875,0.03787364438176155,0.07941248267889023,0.4758640229701996
1733404611934830600,5.24183056640625,0.05314527451992035,0.09834930300712585,0.37751471996307373
1733404611944820000,5.251820068359375,0.08674286305904388,0.0910189226269722,0.2076941877603531
1733404611954851600,5.2618515625,0.14538592100143433,0.06780604273080826,-0.014049900695681572
1733404611964808700,5.27180859375,0.20525072515010834,0.033597588539123535,-0.2541199326515198
1733404611974839800,5.28183984375,0.24434609711170197,0.02871066704392433,-0.4599815309047699
1733404611984828400,5.291828369140625,0.22418753802776337,0.16493362188339233,-0.5338962078094482
1733404611994829000,5.3018291015625,0.20097467303276062,0.32498031854629517,-0.3237585723400116
1733404612004814300,5.311814453125,0.24068090319633484,0.49357911944389343,0.11972958594560623
1733404612014848500,5.3218486328125,0.34697145223617554,0.6029239892959595,0.6976081132888794
1733404612024806700,5.331806640625,0.494189977645874,0.6676757335662842,1.2883148193359375
1733404612034836700,5.341836669921875,0.6407976150512695,0.6505714654922485,1.7861700057983398
1733404612044825900,5.351825927734375,0.7458664774894714,0.5668829679489136,2.1056525707244873
1733404612054856400,5.3618564453125,0.7641924023628235,0.37568211555480957,2.1062633991241455
1733404612064814800,5.37181494140625,0.6572909951210022,0.2223549485206604,1.737911581993103
1733404612075059700,5.382059814453125,0.47830748558044434,0.05253441259264946,1.1093312501907349
1733404612084834600,5.39183447265625,0.2638937830924988,-0.13072516024112701,0.3023782968521118
1733404612094838800,5.4018388671875,0.06780604273080826,-0.2889392673969269,-0.5412266254425049
1733404612104823600,5.411823486328125,-0.10567969083786011,-0.4202753007411957,-1.2412781715393066
1733404612114853600,5.421853515625,-0.22113321721553802,-0.5174028873443604,-1.6982053518295288
1733404612124811500,5.4318115234375,-0.23090706765651703,-0.5644394755363464,-1.8832975625991821
1733404612134843100,5.441843017578125,-0.12034045159816742,-0.5736024379730225,-1.6859880685806274
1733404612144831200,5.451831298828125,0.007941247895359993,-0.5381723046302795,-1.3066407442092896
1733404612154832400,5.461832275390625,0.14294247329235077,-0.4605923891067505,-0.8216137290000916
1733404612164820200,5.4718203125,0.2590068578720093,-0.38179078698158264,-0.3384193480014801
1733404612174851800,5.481851806640625,0.32986724376678467,-0.3188716471195221,0.06352998316287994
1733404612184809200,5.491809326171875,0.3384193480014801,-0.26083946228027344,0.3378084897994995
1733404612194841000,5.501841064453125,0.313373863697052,-0.2174680233001709,0.46731191873550415
1733404612204828700,5.51182861328125,0.24678955972194672,-0.17776179313659668,0.4434881806373596
1733404612214830600,5.52183056640625,0.192422553896904,-0.192422553896904,0.3494149148464203
1733404612224818700,5.531818603515625,0.1472185254096985,-0.19914206862449646,0.252287358045578
1733404612234849500,5.541849609375,0.10995574295520782,-0.19425514340400696,0.17776179313659668
1733404612244807700,5.5518076171875,0.08918632566928864,-0.1869247704744339,0.12828169763088226
1733404612254838500,5.561838623046875,0.08185594528913498,-0.1765400618314743,0.09896016865968704
1733404612264827100,5.5718271484375,0.08735372871160507,-0.15454891324043274,0.07452555745840073
1733404612274827500,5.58182763671875,0.09224065393209457,-0.13439035415649414,0.05803219974040985
1733404612284816100,5.591816162109375,0.07880161702632904,-0.13744467496871948,0.04581489413976669
1733404612294847500,5.601847412109375,0.060475658625364304,-0.13866640627384186,0.029932396486401558
1733404612304835600,5.611835693359375,0.04398229718208313,-0.13744467496871948,0.005497787147760391
1733404612314836700,5.621836669921875,0.02382374368607998,-0.11972958594560623,-0.01710422709584236
1733404612324824600,5.631824462890625,-0.004886921960860491,-0.09957103431224823,-0.028099801391363144
1733404612334856200,5.641856201171875,-0.036041051149368286,-0.10323622822761536,-0.03420845419168472
1733404612344813800,5.651813720703125,-0.06230825558304787,-0.12461651116609573,-0.031154127791523933
1733404612354844700,5.6618447265625,-0.09529497474431992,-0.17837265133857727,-0.01160643994808197
1733404612364833300,5.671833251953125,-0.1062905490398407,-0.22418753802776337,-0.01771509274840355
1733404612374833700,5.681833740234375,-0.11239920556545258,-0.2535090744495392,-0.05009094998240471
1733404612384822300,5.691822265625,-0.10262536257505417,-0.25045475363731384,-0.10323622822761536
1733404612394854000,5.70185400390625,-0.09346238523721695,-0.24190263450145721,-0.15454891324043274
1733404612404811300,5.711811279296875,-0.08307767659425735,-0.24556782841682434,-0.21074850857257843
1733404612414843000,5.7218427734375,-0.0806342139840126,-0.25106561183929443,-0.26572638750076294
1733404612424831000,5.7318310546875,-0.0959058403968811,-0.2638937830924988,-0.323147714138031
1733404612434832000,5.741831787109375,-0.12034045159816742,-0.28527405858039856,-0.31520646810531616
1733404612444819700,5.75181982421875,-0.14966198801994324,-0.30482175946235657,-0.2480112910270691
1733404612454851600,5.7618515625,-0.18631389737129211,-0.33292156457901,-0.1417207419872284
1733404612464808700,5.77180859375,-0.23640485107898712,-0.3799581825733185,-0.03298672288656235
1733404612474840600,5.781840576171875,-0.29138273000717163,-0.4386012554168701,0.03848451003432274
1733404612484828400,5.791828369140625,-0.35674530267715454,-0.5009095072746277,0.05742133408784866
1733404612494829600,5.80182958984375,-0.41172316670417786,-0.50335294008255,0.04092797264456749
1733404612504817400,5.8118173828125,-0.4129449129104614,-0.39767327904701233,0.019547687843441963
1733404612514849000,5.82184912109375,-0.37629300355911255,-0.2932153046131134,0.018936822190880775
1733404612524806700,5.831806640625,-0.3274237811565399,-0.19058994948863983,0.019547687843441963
1733404612534838000,5.841838134765625,-0.2932153046131134,-0.07391469180583954,0.02076941914856434
1733404612544825900,5.851825927734375,-0.27550023794174194,0.1014036312699318,0.04948008432984352
1733404612554857000,5.86185693359375,-0.25473082065582275,0.3194825351238251,0.14905111491680145
1733404612564814800,5.87181494140625,-0.21380282938480377,0.5546656250953674,0.3604104816913605
1733404612574845700,5.881845703125,-0.16920967400074005,0.7440338730812073,0.8332201838493347
1733404612584834300,5.891834228515625,-0.15454891324043274,0.7446447610855103,1.149037480354309
1733404612594835500,5.90183544921875,-0.14905111491680145,0.6585127115249634,1.3683381080627441
1733404612604823600,5.911823486328125,-0.14844025671482086,0.5180137157440186,1.4477506875991821
1733404612614854000,5.92185400390625,-0.13927727937698364,0.3182607889175415,1.36650550365448
1733404612624812500,5.9318125,-0.12461651116609573,0.10812314599752426,1.130711555480957
1733404612634845000,5.941844970703125,-0.12767083942890167,-0.0708603709936142,0.7733554244041443
1733404612644832000,5.95183203125,-0.1667662113904953,-0.2889392673969269,0.1062905490398407
1733404612654831900,5.961831787109375,-0.20586158335208893,-0.37079519033432007,-0.3543018400669098
1733404612664821000,5.971821044921875,-0.24434609711170197,-0.38179078698158264,-0.7409795522689819
1733404612674852600,5.9818525390625,-0.2767219543457031,-0.3341432809829712,-1.015868902206421
1733404612684810000,5.99181005859375,-0.31520646810531616,-0.24617868661880493,-1.1594222784042358
1733404612694841600,6.001841552734375,-0.35124751925468445,-0.14538592100143433,-1.1679743528366089
1733404612704829700,6.01182958984375,-0.37079519033432007,-0.05192354694008827,-1.0488556623458862
1733404612714830600,6.02183056640625,-0.37201693654060364,0.0354301854968071,-0.6969972252845764
1733404612724818700,6.031818603515625,-0.3488040566444397,0.07208210229873657,-0.4147774875164032
1733404612734850300,6.041850341796875,-0.32559117674827576,0.07757988572120667,-0.16249015927314758
1733404612744807700,6.0518076171875,-0.29993483424186707,0.05009094998240471,0.018936822190880775
1733404612754839600,6.061839599609375,-0.2718350291252136,0.005497787147760391,0.12034045159816742
1733404612764827100,6.0718271484375,-0.251676470041275,-0.05314527451992035,0.16004669666290283
1733404612774828300,6.081828369140625,-0.23029619455337524,-0.0959058403968811,0.17104226350784302
1733404612784816000,6.091816162109375,-0.20830504596233368,-0.1160643994808197,0.1716531366109848
1733404612794848000,6.101847900390625,-0.17470745742321014,-0.10262536257505417,0.17531833052635193
1733404612804835600,6.111835693359375,-0.1466076523065567,-0.059864792972803116,0.17959438264369965
1733404612814836700,6.121836669921875,-0.11667526513338089,-0.00733038317412138,0.17837265133857727
1733404612824824800,6.131824951171875,-0.09896016865968704,0.03481931984424591,0.1722639948129654
1733404612834855400,6.14185546875,-0.09162978827953339,0.07269296050071716,0.15760323405265808
1733404612844813800,6.151813720703125,-0.08857546001672745,0.08124507963657379,0.10812314599752426
1733404612854873000,6.161873046875,-0.1007927656173706,0.05864306539297104,0.02871066704392433
1733404612864833300,6.171833251953125,-0.12889257073402405,0.00855211354792118,-0.12950342893600464
1733404612874834400,6.18183447265625,-0.14782938361167908,-0.04153883829712868,-0.242513507604599
1733404612884822300,6.191822265625,-0.16065755486488342,-0.09285151958465576,-0.34086281061172485
1733404612894854000,6.20185400390625,-0.16920967400074005,-0.11728613078594208,-0.41599923372268677
1733404612904811300,6.211811279296875,-0.17409659922122955,-0.14294247329235077,-0.46853363513946533
1733404612914843000,6.2218427734375,-0.1722639948129654,-0.1514945775270462,-0.4856378734111786
1733404612924831000,6.2318310546875,-0.16004669666290283,-0.13377949595451355,-0.45814892649650574
1733404612934831900,6.241831787109375,-0.11423180252313614,-0.07391469180583954,-0.31581732630729675
1733404612944820000,6.251820068359375,-0.07635815441608429,-0.039706241339445114,-0.1661553531885147
1733404612954851600,6.2618515625,-0.04398229718208313,-0.013439035043120384,-0.006108652334660292
1733404612964809000,6.27180908203125,-0.030543262138962746,0.0024434609804302454,0.11911872029304504
1733404612974840300,6.28184033203125,-0.039706241339445114,0.009773843921720982,0.17104226350784302
1733404612984828400,6.291828369140625,-0.06963863968849182,0.01466076634824276,0.1508837193250656
1733404612994829600,6.30182958984375,-0.10934487730264664,0.013439035043120384,0.06780604273080826
1733404613004817400,6.3118173828125,-0.1514945775270462,-0.007941247895359993,-0.04948008432984352
1733404613014849000,6.32184912109375,-0.2070833146572113,-0.07391469180583954,-0.2168571650981903
1733404613024806700,6.331806640625,-0.23335053026676178,-0.13744467496871948,-0.2724458873271942
1733404613034838000,6.341838134765625,-0.23335053026676178,-0.19486601650714874,-0.242513507604599
1733404613044826000,6.351826171875,-0.2015855312347412,-0.23945917189121246,-0.12217304855585098
1733404613054857700,6.361857666015625,-0.12461651116609573,-0.23273965716362,0.0555887371301651
1733404613064814800,6.37181494140625,-0.02076941914856434,-0.15882496535778046,0.25106561183929443
1733404613074846700,6.3818466796875,0.08796459436416626,-0.05314527451992035,0.42577308416366577
1733404613084834600,6.39183447265625,0.21624629199504852,0.12767083942890167,0.49724429845809937
1733404613094835700,6.401835693359375,0.28649580478668213,0.17776179313659668,0.35063666105270386
1733404613104823600,6.411823486328125,0.32498031854629517,0.17043140530586243,0.09162978827953339
1733404613114853000,6.42185302734375,0.29077184200286865,0.10445795953273773,-0.2119702398777008
1733404613124811800,6.431811767578125,0.19608774781227112,0.0507018156349659,-0.4550946056842804
1733404613134843000,6.4418427734375,0.07635815441608429,0.05497787147760391,-0.5546656250953674
1733404613144831200,6.451831298828125,0.007941247895359993,0.16004669666290283,-0.39645153284072876
1733404613154832000,6.461831787109375,0.0806342139840126,0.43249258399009705,0.37751471996307373
1733404613164820200,6.4718203125,0.19364428520202637,0.485027015209198,1.0561859607696533
1733404613174850600,6.4818505859375,0.32559117674827576,0.4349360466003418,1.6896532773971558
1733404613184809200,6.491809326171875,0.4612032473087311,0.35552358627319336,2.1642956733703613
1733404613194839600,6.501839599609375,0.5546656250953674,0.20463985204696655,2.364048480987549
1733404613204828700,6.51182861328125,0.5711590051651001,0.02626720629632473,2.2369885444641113
1733404613214832400,6.521832275390625,0.5247332453727722,-0.14966198801994324,1.7843374013900757
1733404613224818700,6.531818603515625,0.42577308416366577,-0.33658674359321594,1.0604621171951294
1733404613234851800,6.541851806640625,0.23151792585849762,-0.5174028873443604,-0.2724458873271942
1733404613244807700,6.5518076171875,0.14477506279945374,-0.48380526900291443,-1.0922271013259888
1733404613254839300,6.56183935546875,0.08491026610136032,-0.4386012554168701,-1.6982053518295288
1733404613264827100,6.5718271484375,0.06169738993048668,-0.4300491213798523,-2.0323486328125
1733404613274828300,6.581828369140625,0.07208210229873657,-0.39095374941825867,-2.084882974624634
1733404613284816100,6.591816162109375,0.1062905490398407,-0.3188716471195221,-1.8784105777740479
1733404613294847500,6.601847412109375,0.14355333149433136,-0.21991148591041565,-1.4654656648635864
1733404613304835800,6.6118359375,0.19425514340400696,-0.06230825558304787,-0.6762278079986572
1733404613314836700,6.621836669921875,0.19914206862449646,-0.005497787147760391,-0.18814650177955627
1733404613324824800,6.631824951171875,0.18448130786418915,0.014049900695681572,0.17104226350784302
1733404613334856400,6.6418564453125,0.15821409225463867,0.029932396486401558,0.3799581825733185
1733404613344813600,6.6518134765625,0.10995574295520782,0.06841690838336945,0.46303585171699524
1733404613354845400,6.661845458984375,0.060475658625364304,0.05803219974040985,0.4612032473087311
1733404613364833300,6.671833251953125,0.022602014243602753,0.029932396486401558,0.42638394236564636
1733404613374834200,6.681834228515625,-0.012828170321881771,-0.024434609338641167,0.37629300355911255
1733404613384822300,6.691822265625,-0.02382374368607998,-0.06658431142568588,0.34636059403419495
1733404613394853400,6.701853271484375,-0.02871066704392433,-0.1007927656173706,0.31520646810531616
1733404613404811300,6.711811279296875,-0.030543262138962746,-0.11484266817569733,0.28038713335990906
1733404613414842400,6.72184228515625,-0.033597588539123535,-0.11239920556545258,0.23335053026676178
1733404613424830700,6.731830810546875,-0.04092797264456749,-0.08979719132184982,0.1765400618314743
1733404613434832000,6.741831787109375,-0.06169738993048668,-0.07208210229873657,0.1313360333442688
1733404613444819700,6.75181982421875,-0.09896016865968704,-0.02871066704392433,0.1062905490398407
1733404613454851600,6.7618515625,-0.17409659922122955,0.02382374368607998,0.10751228034496307
1733404613464808700,6.77180859375,-0.22113321721553802,0.060475658625364304,0.13439035415649414
1733404613474840800,6.7818408203125,-0.2577851414680481,0.09407325088977814,0.18325957655906677
1733404613484828400,6.791828369140625,-0.28527405858039856,0.1215621829032898,0.24495697021484375
1733404613494829800,6.801829833984375,-0.2938261926174164,0.13988813757896423,0.31520646810531616
1733404613504817400,6.8118173828125,-0.29993483424186707,0.13866640627384186,0.3701843321323395
1733404613514849000,6.82184912109375,-0.3017674386501312,0.1215621829032898,0.3897320330142975
1733404613524806400,6.831806396484375,-0.2919935882091522,0.08185594528913498,0.33292156457901
1733404613534838000,6.841838134765625,-0.29138273000717163,0.018325956538319588,0.2565633952617645
1733404613544825900,6.851825927734375,-0.2987131178379059,-0.0354301854968071,0.17837265133857727
1733404613554857700,6.861857666015625,-0.31459560990333557,-0.05192354694008827,0.10384709388017654
1733404613564814800,6.87181494140625,-0.3225368559360504,-0.02076941914856434,0.036041051149368286
1733404613574846700,6.8818466796875,-0.323147714138031,0.07941248267889023,-0.01160643994808197
1733404613584834600,6.89183447265625,-0.33719760179519653,0.1722639948129654,-0.024434609338641167
1733404613594835500,6.90183544921875,-0.36651915311813354,0.20097467303276062,0.054367005825042725
1733404613604823600,6.911823486328125,-0.34025195240974426,0.13927727937698364,0.16249015927314758
1733404613614855200,6.921855224609375,-0.33292156457901,0.14477506279945374,0.3176499307155609
1733404613624812500,6.9318125,-0.31154128909111023,0.08918632566928864,0.4337143301963806
1733404613634844200,6.94184423828125,-0.2932153046131134,0.0024434609804302454,0.4697553813457489
1733404613644832000,6.95183203125,-0.2724458873271942,-0.04092797264456749,0.4245513379573822
1733404613654833400,6.96183349609375,-0.24923302233219147,-0.1014036312699318,0.29077184200286865
1733404613664821000,6.971821044921875,-0.23396138846874237,-0.18997909128665924,0.09651670604944229
1733404613674853000,6.98185302734375,-0.26083946228027344,-0.2669481039047241,-0.1667662113904953
1733404613684810000,6.99181005859375,-0.29138273000717163,-0.251676470041275,-0.2431243658065796
1733404613694841600,7.001841552734375,-0.2816088795661926,-0.14416420459747314,-0.16493362188339233
1733404613704829400,7.011829345703125,-0.21991148591041565,0.048258353024721146,0.11301007121801376
1733404613714830800,7.021830810546875,-0.13255776464939117,0.22357667982578278,0.5308418869972229
1733404613724818700,7.031818603515625,-0.04398229718208313,0.33108896017074585,0.940732479095459
1733404613734850000,7.04185009765625,0.04214970022439957,0.36102136969566345,1.2424999475479126
1733404613744807700,7.0518076171875,0.11545353382825851,0.3292563557624817,1.4306464195251465
1733404613754839300,7.06183935546875,0.12095131725072861,0.2779437005519867,1.3658946752548218
1733404613764827100,7.0718271484375,0.11667526513338089,0.18081611394882202,1.158811330795288
1733404613774827800,7.081827880859375,0.09468411654233932,0.06108652427792549,0.8442157506942749
1733404613784816000,7.091816162109375,0.06230825558304787,-0.0708603709936142,0.46792277693748474
1733404613794847200,7.10184716796875,0.010995574295520782,-0.17959438264369965,0.08429940044879913
1733404613804835600,7.111835693359375,-0.04886921867728233,-0.23151792585849762,-0.2571742534637451
1733404613814836700,7.121836669921875,-0.12217304855585098,-0.23396138846874237,-0.6120869517326355
1733404613824824800,7.131824951171875,-0.15882496535778046,-0.20463985204696655,-0.7305948138237
1733404613834856400,7.1418564453125,-0.17898350954055786,-0.16859880089759827,-0.7611380815505981
1733404613844813800,7.151813720703125,-0.17776179313659668,-0.1661553531885147,-0.7147123217582703
1733404613854845400,7.161845458984375,-0.14966198801994324,-0.18325957655906677,-0.5876523852348328
1733404613864833300,7.171833251953125,-0.10323622822761536,-0.17959438264369965,-0.39706242084503174
1733404613874834400,7.18183447265625,-0.039095375686883926,-0.19364428520202637,-0.19792033731937408
1733404613884822300,7.191822265625,0.033597588539123535,-0.20830504596233368,-0.02015855349600315
1733404613894854000,7.20185400390625,0.12278391420841217,-0.21074850857257843,0.16371189057826996
1733404613904811300,7.211811279296875,0.16432274878025055,-0.2321287989616394,0.21868975460529327
1733404613914843100,7.221843017578125,0.1973094791173935,-0.24007004499435425,0.2376265823841095
1733404613924831000,7.2318310546875,0.22052235901355743,-0.22540926933288574,0.24556782841682434
1733404613934831900,7.241831787109375,0.24190263450145721,-0.18875735998153687,0.23640485107898712
1733404613944820000,7.251820068359375,0.25595253705978394,-0.1411098688840866,0.2076941877603531
1733404613954851600,7.2618515625,0.26022860407829285,-0.09407325088977814,0.15515977144241333
1733404613964808700,7.27180859375,0.26633724570274353,-0.033597588539123535,0.02932153269648552
1733404613974840600,7.281840576171875,0.2681698501110077,-0.021991148591041565,-0.06780604273080826
1733404613984828400,7.291828369140625,0.2773328125476837,-0.013439035043120384,-0.14477506279945374
1733404613994829800,7.301829833984375,0.2919935882091522,0,-0.19486601650714874
1733404614004817700,7.311817626953125,0.30604347586631775,-0.013439035043120384,-0.21624629199504852
1733404614014849300,7.321849365234375,0.323147714138031,-0.029932396486401558,-0.2064724564552307
1733404614024806700,7.331806640625,0.342695415019989,-0.04398229718208313,-0.17776179313659668
1733404614034838300,7.34183837890625,0.37140607833862305,-0.05864306539297104,-0.13011430203914642
1733404614044825900,7.351825927734375,0.39217549562454224,-0.05375614017248154,-0.11056660860776901
1733404614054857700,7.361857666015625,0.4178318381309509,-0.04214970022439957,-0.11667526513338089
1733404614064814800,7.37181494140625,0.43676865100860596,-0.04764748737215996,-0.1514945775270462
1733404614074846700,7.3818466796875,0.44715335965156555,-0.06414084881544113,-0.19914206862449646
1733404614084834600,7.39183447265625,0.4502076804637909,-0.07757988572120667,-0.2541199326515198
1733404614094836000,7.4018359375,0.4508185386657715,-0.06108652427792549,-0.3066543638706207
1733404614104823600,7.411823486328125,0.44226643443107605,-0.03726277872920036,-0.3335324227809906
1733404614114853600,7.421853515625,0.42760565876960754,0.025045474991202354,-0.3066543638706207
1733404614124811500,7.4318115234375,0.4239404797554016,0.07147123664617538,-0.251676470041275
1733404614134843400,7.441843505859375,0.4282165467739105,0.11301007121801376,-0.1716531366109848
1733404614144831200,7.451831298828125,0.45753806829452515,0.1618792861700058,-0.07147123664617538
1733404614154832400,7.461832275390625,0.5119050741195679,0.1875356286764145,0.03787364438176155
1733404614164820200,7.4718203125,0.5723807215690613,0.17409659922122955,0.13072516024112701
1733404614174851800,7.481851806640625,0.6310238242149353,0.14049901068210602,0.16859880089759827
1733404614184809200,7.491809326171875,0.6994407176971436,0.09468411654233932,0.10934487730264664
1733404614194839800,7.50183984375,0.7293730974197388,0.09162978827953339,0.03726277872920036
1733404614204828700,7.51182861328125,0.7519751191139221,0.0708603709936142,-0.03848451003432274
1733404614214829600,7.52182958984375,0.7770205736160278,0.05253441259264946,-0.09346238523721695
1733404614224818700,7.531818603515625,0.8093964457511902,0.05009094998240471,-0.11850785464048386
1733404614234849000,7.54184912109375,0.8576548099517822,0.036651913076639175,-0.12034045159816742
1733404614244807700,7.5518076171875,0.9230173826217651,0.025045474991202354,-0.10506882518529892
1733404614254838000,7.561838134765625,1.0476338863372803,0.04214970022439957,-0.08185594528913498
1733404614264827100,7.5718271484375,1.1325441598892212,0.056810468435287476,-0.06963863968849182
1733404614274827300,7.5818271484375,1.224173903465271,0.06963863968849182,-0.06536258012056351
1733404614284816100,7.591816162109375,1.3200798034667969,0.07024950534105301,-0.06108652427792549
1733404614294846700,7.6018466796875,1.3994922637939453,0.0959058403968811,-0.048258353024721146
1733404614304835600,7.611835693359375,1.4703526496887207,0.1313360333442688,-0.04337143152952194
1733404614314835700,7.621835693359375,1.528384804725647,0.1508837193250656,-0.07024950534105301
1733404614324824800,7.631824951171875,1.5699236392974854,0.15943582355976105,-0.11484266817569733
1733404614334855200,7.641855224609375,1.615127682685852,0.1661553531885147,-0.19975294172763824
1733404614344813800,7.651813720703125,1.644449234008789,0.13927727937698364,-0.2577851414680481
1733404614354844400,7.661844482421875,1.6872098445892334,0.1007927656173706,-0.2938261926174164
1733404614364833300,7.671833251953125,1.7531832456588745,0.06902777403593063,-0.2883284091949463
1733404614374833400,7.68183349609375,1.843591332435608,0.06352998316287994,-0.2541199326515198
1733404614384822300,7.691822265625,1.945605754852295,0.08491026610136032,-0.2076941877603531
1733404614394852900,7.701852783203125,2.0506746768951416,0.12522737681865692,-0.15821409225463867
1733404614404811300,7.711811279296875,2.1991147994995117,0.20463985204696655,-0.08124507963657379
1733404614414841900,7.721841796875,2.282803535461426,0.25595253705978394,-0.04337143152952194
1733404614424831000,7.7318310546875,2.348165988922119,0.3023782968521118,-0.022602014243602753
1733404614434830800,7.741830810546875,2.3854286670684814,0.33047810196876526,-0.019547687843441963
1733404614444819700,7.75181982421875,2.4220807552337646,0.3500257730484009,-0.04337143152952194
1733404614454850300,7.761850341796875,2.445293664932251,0.34574973583221436,-0.08918632566928864
1733404614464808700,7.77180859375,2.4605650901794434,0.3243694305419922,-0.14538592100143433
1733404614474839600,7.781839599609375,2.488054037094116,0.2535090744495392,-0.22479841113090515
1733404614484828400,7.791828369140625,2.5314254760742188,0.23029619455337524,-0.2571742534637451
1733404614494828500,7.80182861328125,2.6010642051696777,0.24190263450145721,-0.2638937830924988
1733404614504817400,7.8118173828125,2.696359157562256,0.2767219543457031,-0.2321287989616394
1733404614514848000,7.821847900390625,2.8173105716705322,0.3286454975605011,-0.1618792861700058
1733404614524806700,7.831806640625,3.1471776962280273,0.4960225820541382,-0.010995574295520782
1733404614534838300,7.84183837890625,3.2418618202209473,0.5479460954666138,0.11972958594560623
1733404614544825900,7.851825927734375,3.1050281524658203,0.45631635189056396,0.13377949595451355
1733404614554857700,7.861857666015625,2.905885934829712,0.44776421785354614,0.042760565876960754
1733404614564814800,7.87181494140625,2.797152042388916,0.4306600093841553,-0.08307767659425735
1733404614574846500,7.881846435546875,2.6560420989990234,0.33108896017074585,-0.24129177629947662
1733404614584834600,7.89183447265625,2.526538610458374,0.24984388053417206,-0.35552358627319336
1733404614594835700,7.901835693359375,2.450791358947754,0.182648703455925,-0.40744712948799133
1733404614604823600,7.911823486328125,2.4110851287841797,0.13255776464939117,-0.3787364661693573
1733404614614855200,7.921855224609375,2.389704942703247,0.1014036312699318,-0.28466320037841797
1733404614624812500,7.9318125,2.4129176139831543,0.10201449692249298,-0.09162978827953339
1733404614634844200,7.94184423828125,2.461786985397339,0.13500121235847473,0.05619960278272629
1733404614644832000,7.95183203125,2.514932155609131,0.18936823308467865,0.23090706765651703
1733404614654833400,7.96183349609375,2.556471109390259,0.2125810980796814,0.413555771112442
1733404614664821000,7.971821044921875,2.5900685787200928,0.18814650177955627,0.5461135506629944
1733404614674852900,7.981852783203125,2.607783794403076,0.14355333149433136,0.5962044596672058
1733404614684810000,7.99181005859375,2.5729644298553467,0.12217304855585098,0.5852088928222656
1733404614694841900,8.001841796875,2.456289052963257,0.12095131725072861,0.49724429845809937
1733404614704829700,8.01182958984375,2.387261390686035,0.11972958594560623,0.4294382631778717
1733404614714830800,8.021830810546875,2.313957452774048,0.11850785464048386,0.37629300355911255
1733404614724818700,8.031818603515624,2.2284364700317383,0.11545353382825851,0.3280346393585205
1733404614734850300,8.041850341796875,2.1447479724884033,0.09896016865968704,0.2718350291252136
1733404614744807700,8.0518076171875,2.0751092433929443,0.08002334833145142,0.20036379992961884
1733404614754839300,8.06183935546875,2.0146336555480957,0.06658431142568588,0.11484266817569733
1733404614764827100,8.0718271484375,1.9657644033432007,0.059864792972803116,0.021380282938480377
1733404614774828500,8.08182861328125,1.9052886962890625,0.01771509274840355,-0.12034045159816742
1733404614784816000,8.091816162109374,1.8558086156845093,-0.04459316283464432,-0.19608774781227112
1733404614794848000,8.101847900390625,1.7916678190231323,-0.09896016865968704,-0.23335053026676178
1733404614804835600,8.111835693359374,1.7256942987442017,-0.13927727937698364,-0.22357667982578278
1733404614814837000,8.1218369140625,1.6682729721069336,-0.15577064454555511,-0.16982053220272064
1733404614824824800,8.131824951171875,1.6377297639846802,-0.10934487730264664,-0.07391469180583954
1733404614834856400,8.1418564453125,1.6322319507598877,0.019547687843441963,0.05253441259264946
1733404614844813800,8.151813720703124,1.642616629600525,0.18448130786418915,0.23457226157188416
1733404614854872000,8.1618720703125,1.6297885179519653,0.22479841113090515,0.30604347586631775
1733404614864833500,8.17183349609375,1.5790866613388062,0.22479841113090515,0.32009339332580566
1733404614874833400,8.18183349609375,1.49906325340271,0.1771509200334549,0.2822197377681732
1733404614884822300,8.191822265625,1.3964380025863647,0.11056660860776901,0.22113321721553802
1733404614894853000,8.20185302734375,1.2809844017028809,0.039706241339445114,0.1563815027475357
1733404614904811300,8.211811279296874,1.169806957244873,-0.015882495790719986,0.09651670604944229
1733404614914841900,8.221841796875,1.0219775438308716,-0.022602014243602753,0.03237585723400116
1733404614924831000,8.2318310546875,0.9272934198379517,0.00855211354792118,-0.00427605677396059
1733404614934830800,8.241830810546874,0.8405506014823914,0.06352998316287994,-0.051312681287527084
1733404614944820000,8.251820068359375,0.769690215587616,0.11484266817569733,-0.09712757170200348
1733404614954850600,8.2618505859375,0.7043276429176331,0.1466076523065567,-0.10323622822761536
1733404614964809000,8.27180908203125,0.6432411074638367,0.18814650177955627,-0.05803219974040985
1733404614974839300,8.28183935546875,0.5827654600143433,0.20402899384498596,0.04214970022439957
1733404614984828400,8.291828369140624,0.5247332453727722,0.19425514340400696,0.15882496535778046
1733404614994828300,8.301828369140624,0.43737950921058655,0.13866640627384186,0.2816088795661926
1733404615004817400,8.3118173828125,0.37690386176109314,0.06780604273080826,0.31642818450927734
1733404615014848000,8.321847900390624,0.3194825351238251,-0.018325956538319588,0.3121521472930908
1733404615024806400,8.331806396484374,0.2675589919090271,-0.10445795953273773,0.2638937830924988
1733404615034837000,8.3418369140625,0.22113321721553802,-0.16249015927314758,0.16982053220272064
1733404615044826000,8.351826171875,0.1661553531885147,-0.19058994948863983,0.04153883829712868
1733404615054856200,8.361856201171875,0.12034045159816742,-0.16004669666290283,-0.09040805697441101
1733404615064814800,8.37181494140625,0.06352998316287994,-0.1007927656173706,-0.21502456068992615
1733404615074846700,8.3818466796875,0.02687807008624077,-0.06475171446800232,-0.1973094791173935
1733404615084834600,8.39183447265625,-0.0024434609804302454,-0.02321287989616394,-0.12339477986097336
1733404615094835500,8.40183544921875,-0.02321287989616394,-0.005497787147760391,-0.02687807008624077
1733404615104823600,8.411823486328124,-0.03481931984424591,-0.048258353024721146,0.05192354694008827
1733404615114853400,8.421853271484375,-0.0507018156349659,-0.1362229436635971,0.0806342139840126
1733404615124811800,8.431811767578125,-0.06414084881544113,-0.20036379992961884,0.05864306539297104
1733404615134843000,8.4418427734375,-0.07513642311096191,-0.27122417092323303,-0.06108652427792549
1733404615144831200,8.451831298828125,-0.09834930300712585,-0.3066543638706207,-0.16737708449363708
1733404615154832000,8.461831787109375,-0.13011430203914642,-0.2981022298336029,-0.26633724570274353
1733404615164820200,8.4718203125,-0.17348572611808777,-0.2974913716316223,-0.34025195240974426
1733404615174851600,8.4818515625,-0.2168571650981903,-0.294437050819397,-0.3732386529445648
1733404615184809200,8.491809326171875,-0.2687807083129883,-0.28588494658470154,-0.342695415019989
1733404615194840800,8.5018408203125,-0.3121521472930908,-0.24923302233219147,-0.2785545587539673
1733404615204828700,8.51182861328125,-0.33047810196876526,-0.21074850857257843,-0.2070833146572113
1733404615214830800,8.521830810546875,-0.3341432809829712,-0.15760323405265808,-0.07269296050071716
1733404615224818700,8.531818603515624,-0.31642818450927734,-0.10018189996480942,0.02321287989616394
1733404615234849500,8.541849609375,-0.2877175211906433,-0.04214970022439957,0.10018189996480942
1733404615244807700,8.5518076171875,-0.2620611786842346,-0.01710422709584236,0.14049901068210602
1733404615254838800,8.5618388671875,-0.24984388053417206,-0.015882495790719986,0.13439035415649414
1733404615264827000,8.571826904296875,-0.24984388053417206,-0.024434609338641167,0.08979719132184982
1733404615274827800,8.581827880859375,-0.2535090744495392,-0.018325956538319588,0.02687807008624077
1733404615284816100,8.591816162109374,-0.26633724570274353,-0.013439035043120384,-0.0861319974064827
1733404615294847200,8.60184716796875,-0.2675589919090271,-0.010995574295520782,-0.1508837193250656
1733404615304835800,8.6118359375,-0.26939156651496887,-0.012828170321881771,-0.19303341209888458
1733404615314836200,8.621836181640624,-0.2626720666885376,-0.021991148591041565,-0.2125810980796814
1733404615324824600,8.631824462890625,-0.25961771607398987,-0.025045474991202354,-0.2125810980796814
1733404615334855700,8.641855712890624,-0.26083946228027344,-0.029932396486401558,-0.2070833146572113
1733404615344813600,8.6518134765625,-0.2718350291252136,-0.05314527451992035,-0.2021963894367218
1733404615354844700,8.6618447265625,-0.3023782968521118,-0.07513642311096191,-0.17959438264369965
1733404615364833300,8.671833251953124,-0.3286454975605011,-0.07819075137376785,-0.15882496535778046
1733404615374833700,8.681833740234374,-0.3488040566444397,-0.07635815441608429,-0.13866640627384186
1733404615384822300,8.691822265625,-0.36102136969566345,-0.07635815441608429,-0.12461651116609573
1733404615394853400,8.701853271484374,-0.36102136969566345,-0.05192354694008827,-0.10384709388017654
1733404615404811300,8.711811279296874,-0.35674530267715454,-0.006719517521560192,-0.0708603709936142
1733404615414842600,8.721842529296875,-0.3549126982688904,0.014049900695681572,-0.04581489413976669
1733404615424831000,8.7318310546875,-0.3585779070854187,0.007941247895359993,-0.04398229718208313
1733404615434831600,8.74183154296875,-0.3830125033855438,-0.00733038317412138,-0.08979719132184982
1733404615444819700,8.75181982421875,-0.41233405470848083,-0.018936822190880775,-0.1508837193250656
1733404615454851000,8.76185107421875,-0.43737950921058655,-0.03237585723400116,-0.2168571650981903
1733404615464808700,8.77180859375,-0.45265114307403564,-0.06841690838336945,-0.2583959996700287
1733404615474840600,8.781840576171875,-0.45142942667007446,-0.09957103431224823,-0.2528982162475586
1733404615484828400,8.791828369140624,-0.4392121136188507,-0.10934487730264664,-0.18936823308467865
1733404615494829600,8.80182958984375,-0.4129449129104614,-0.11545353382825851,-0.08552113175392151
1733404615504817400,8.8118173828125,-0.3585779070854187,-0.09834930300712585,0.10445795953273773
1733404615514848500,8.8218486328125,-0.3292563557624817,-0.060475658625364304,0.22052235901355743
1733404615524806400,8.831806396484374,-0.30604347586631775,-0.012217304669320583,0.3090978264808655
1733404615534837200,8.841837158203125,-0.2932153046131134,0.042760565876960754,0.36713001132011414
1733404615544825900,8.851825927734374,-0.2932153046131134,0.1014036312699318,0.40194934606552124
1733404615554856700,8.861856689453125,-0.30054569244384766,0.1508837193250656,0.42638394236564636
1733404615564814800,8.87181494140625,-0.31093040108680725,0.16920967400074005,0.4386012554168701
1733404615574846000,8.881845947265624,-0.3237585723400116,0.1459967941045761,0.4495968222618103
1733404615584834300,8.891834228515625,-0.3188716471195221,0.12461651116609573,0.4538728892803192
1733404615594835000,8.9018349609375,-0.3017674386501312,0.09896016865968704,0.46731191873550415
1733404615604823600,8.911823486328124,-0.2730567753314972,0.07880161702632904,0.484416127204895
1733404615614854700,8.921854736328125,-0.2382374405860901,0.08857546001672745,0.49296826124191284
1733404615624812500,8.9318125,-0.20341812074184418,0.13011430203914642,0.44715335965156555
1733404615634843600,8.94184375,-0.17470745742321014,0.17409659922122955,0.3341432809829712
1733404615644832300,8.951832275390625,-0.15882496535778046,0.21135938167572021,0.14905111491680145
1733404615654833200,8.961833251953125,-0.15332718193531036,0.23640485107898712,-0.23335053026676178
1733404615664821000,8.971821044921874,-0.20036379992961884,0.2125810980796814,-0.475253164768219
1733404615674852600,8.9818525390625,-0.2718350291252136,0.16859880089759827,-0.6487388610839844
1733404615684810000,8.99181005859375,-0.3225368559360504,0.15332718193531036,-0.6731734871864319
1733404615694841600,9.001841552734374,-0.3194825351238251,0.1869247704744339,-0.5174028873443604
1733404615704829400,9.011829345703125,-0.23579397797584534,0.27061331272125244,-0.19486601650714874
1733404615714830600,9.02183056640625,-0.08796459436416626,0.2926044464111328,0.22602014243602753
1733404615724818700,9.031818603515624,0.16737708449363708,0.12522737681865692,0.8332201838493347
1733404615734849000,9.04184912109375,0.3023782968521118,-0.00733038317412138,1.0855075120925903
1733404615744807700,9.0518076171875,0.3885102868080139,-0.08246681094169617,1.1606439352035522
1733404615754838000,9.061838134765624,0.4178318381309509,-0.10323622822761536,1.0983357429504395
1733404615764827000,9.071826904296875,0.41599923372268677,-0.06719517707824707,0.9523389339447021
1733404615774827000,9.081826904296875,0.3878994286060333,-0.009162978269159794,0.778853178024292
1733404615784816000,9.091816162109374,0.3433062732219696,0.027488935738801956,0.607810914516449
1733404615794846500,9.101846435546875,0.2779437005519867,0.02932153269648552,0.34147366881370544
1733404615804835600,9.111835693359374,0.2474004179239273,-0.0012217304902151227,0.14233160018920898
1733404615814835500,9.12183544921875,0.22968533635139465,-0.01160643994808197,-0.07635815441608429
1733404615824824800,9.131824951171875,0.2076941877603531,0.009162978269159794,-0.32498031854629517
1733404615834856400,9.1418564453125,0.18325957655906677,0.04214970022439957,-0.5839871764183044
1733404615844813800,9.151813720703124,0.14355333149433136,0.060475658625364304,-0.8155050873756409
1733404615854845400,9.161845458984375,0.10262536257505417,0.06291911751031876,-0.970054030418396
1733404615864833300,9.171833251953124,0.08185594528913498,0.08002334833145142,-1.0238101482391357
1733404615874834400,9.18183447265625,0.10201449692249298,0.10201449692249298,-0.8906415104866028
1733404615884822300,9.191822265625,0.13316862285137177,0.08002334833145142,-0.685390830039978
1733404615894854000,9.20185400390625,0.16798794269561768,0.03481931984424591,-0.4343251883983612
1733404615904811500,9.2118115234375,0.20891591906547546,-0.021380282938480377,-0.18570303916931152
1733404615914843100,9.221843017578125,0.2480112910270691,-0.07208210229873657,0.03420845419168472
1733404615924831000,9.2318310546875,0.2828305959701538,-0.1215621829032898,0.20402899384498596
1733404615934832000,9.24183203125,0.3023782968521118,-0.16310101747512817,0.3194825351238251
1733404615944820000,9.251820068359375,0.3023782968521118,-0.20525072515010834,0.39706242084503174
1733404615954851000,9.26185107421875,0.29626965522766113,-0.22907446324825287,0.3982841372489929
1733404615964808700,9.27180859375,0.28527405858039856,-0.23335053026676178,0.3677408695220947
1733404615974839800,9.28183984375,0.27000242471694946,-0.2321287989616394,0.30482175946235657
1733404615984828400,9.291828369140624,0.2541199326515198,-0.21991148591041565,0.21868975460529327
1733404615994829300,9.301829345703124,0.22663100063800812,-0.19486601650714874,0.12767083942890167
1733404616004817400,9.3118173828125,0.19547687470912933,-0.16493362188339233,0.030543262138962746
1733404616014848800,9.321848876953124,0.1514945775270462,-0.15332718193531036,-0.10384709388017654
1733404616024806700,9.331806640625,0.11972958594560623,-0.1722639948129654,-0.1722639948129654
1733404616034837500,9.34183740234375,0.09407325088977814,-0.1771509200334549,-0.21991148591041565
1733404616044825900,9.351825927734374,0.07269296050071716,-0.1716531366109848,-0.25595253705978394
1733404616054857000,9.36185693359375,0.0555887371301651,-0.15882496535778046,-0.28955012559890747
1733404616064814800,9.37181494140625,0.039095375686883926,-0.13500121235847473,-0.3078760802745819
1733404616074845700,9.381845703125,0.03298672288656235,-0.11789698898792267,-0.2938261926174164
1733404616084834600,9.39183447265625,0.04703662544488907,-0.07941248267889023,-0.23457226157188416
1733404616094835000,9.4018349609375,0.08368854224681854,0.0006108652451075613,-0.07513642311096191
1733404616104823600,9.411823486328124,0.09834930300712585,-0.030543262138962746,0.02382374368607998
1733404616114853000,9.42185302734375,0.10567969083786011,-0.08307767659425735,0.08368854224681854
1733404616124811500,9.4318115234375,0.09407325088977814,-0.13072516024112701,0.0910189226269722
1733404616134842600,9.441842529296874,0.0806342139840126,-0.18448130786418915,0.0354301854968071
1733404616144831200,9.451831298828125,0.05742133408784866,-0.2119702398777008,-0.0659734457731247
1733404616154831600,9.46183154296875,0.02871066704392433,-0.23640485107898712,-0.1869247704744339
1733404616164820200,9.4718203125,-0.013439035043120384,-0.2590068578720093,-0.33536502718925476
1733404616174851800,9.481851806640625,-0.048258353024721146,-0.2773328125476837,-0.36651915311813354
1733404616184809200,9.491809326171875,-0.07880161702632904,-0.2822197377681732,-0.32620203495025635
1733404616194840800,9.5018408203125,-0.09651670604944229,-0.2736676335334778,-0.21624629199504852
1733404616204829000,9.511828857421875,-0.09651670604944229,-0.26633724570274353,-0.0806342139840126
1733404616214830000,9.521830078125,-0.0861319974064827,-0.27122417092323303,0.02932153269648552
1733404616224818700,9.531818603515624,-0.06780604273080826,-0.2840523421764374,0.08246681094169617
1733404616234849500,9.541849609375,-0.04764748737215996,-0.25534167885780334,0.10751228034496307
1733404616244807400,9.551807373046875,-0.05497787147760391,-0.22663100063800812,0.09529497474431992
1733404616254838500,9.561838623046874,-0.08796459436416626,-0.1973094791173935,0.04886921867728233
1733404616264827000,9.571826904296875,-0.14782938361167908,-0.19547687470912933,-0.04886921867728233
1733404616274828500,9.58182861328125,-0.2272418737411499,-0.21441370248794556,-0.2015855312347412
1733404616284816100,9.591816162109374,-0.30604347586631775,-0.2278527319431305,-0.38606682419776917
1733404616294847700,9.60184765625,-0.3585779070854187,-0.21135938167572021,-0.5583308339118958
1733404616304835600,9.611835693359374,-0.36102136969566345,-0.14049901068210602,-0.6407976150512695
1733404616314836700,9.621836669921874,-0.29565876722335815,0.1007927656173706,-0.4184426963329315
1733404616324824600,9.631824462890625,-0.24068090319633484,0.29077184200286865,-0.027488935738801956
1733404616334856400,9.6418564453125,-0.1966986060142517,0.4202753007411957,0.43799036741256714
1733404616344813800,9.651813720703124,-0.1569923609495163,0.48380526900291443,0.846659243106842
1733404616354845400,9.661845458984375,-0.1362229436635971,0.44593164324760437,1.122159481048584
1733404616364833300,9.671833251953124,-0.1508837193250656,0.3530801236629486,1.244943380355835
1733404616374833200,9.681833251953124,-0.1716531366109848,0.24434609711170197,1.2131783962249756
1733404616384822300,9.691822265625,-0.2015855312347412,0.08124507963657379,0.9205739498138428
1733404616394852600,9.7018525390625,-0.22479841113090515,0.018325956538319588,0.6108652353286743
1733404616404811300,9.711811279296874,-0.24617868661880493,-0.013439035043120384,0.2626720666885376
1733404616414841900,9.721841796875,-0.2724458873271942,-0.02382374368607998,-0.0659734457731247
1733404616424831000,9.7318310546875,-0.3023782968521118,-0.056810468435287476,-0.32620203495025635
1733404616434832000,9.741831787109374,-0.33719760179519653,-0.11239920556545258,-0.5100724697113037
1733404616444819700,9.75181982421875,-0.3604104816913605,-0.12217304855585098,-0.6304129362106323
1733404616454851600,9.7618515625,-0.3927863538265228,-0.06414084881544113,-0.6908885836601257
1733404616464808700,9.77180859375,-0.4251621961593628,-0.08857546001672745,-0.6591235995292664
1733404616474840300,9.78184033203125,-0.44654250144958496,-0.12400564551353455,-0.5601634383201599
1733404616484828400,9.791828369140624,-0.4605923891067505,-0.16737708449363708,-0.40133845806121826
1733404616494829600,9.80182958984375,-0.475253164768219,-0.20830504596233368,-0.2028072625398636
1733404616504817400,9.8118173828125,-0.46670106053352356,-0.22540926933288574,-0.00733038317412138
1733404616514849000,9.82184912109375,-0.45142942667007446,-0.2382374405860901,0.1563815027475357
1733404616524806400,9.831806396484374,-0.423329621553421,-0.24068090319633484,0.2669481039047241
1733404616534837800,9.841837646484375,-0.303600013256073,-0.18387043476104736,0.32620203495025635
1733404616544825900,9.851825927734374,-0.2816088795661926,-0.2064724564552307,0.38117989897727966
1733404616554856700,9.861856689453125,-0.25534167885780334,-0.18387043476104736,0.3121521472930908
1733404616564814800,9.87181494140625,-0.23273965716362,-0.09040805697441101,0.22113321721553802
1733404616574846000,9.881845947265624,-0.21380282938480377,-0.04948008432984352,0.13377949595451355
1733404616584834600,9.89183447265625,-0.19547687470912933,0.006719517521560192,0.06414084881544113
1733404616594835700,9.901835693359375,-0.1869247704744339,0.06719517707824707,0.030543262138962746
1733404616604823600,9.911823486328124,-0.18081611394882202,0.11789698898792267,0.04153883829712868
1733404616614855200,9.921855224609375,-0.16920967400074005,0.1362229436635971,0.08124507963657379
1733404616624812500,9.9318125,-0.1618792861700058,0.12339477986097336,0.12400564551353455
1733404616634844000,9.941843994140624,-0.15577064454555511,0.11239920556545258,0.14538592100143433
1733404616644832000,9.95183203125,-0.15332718193531036,0.10934487730264664,0.12522737681865692
1733404616654833000,9.9618330078125,-0.15577064454555511,0.09712757170200348,0.05925392732024193
1733404616664821000,9.971821044921874,-0.15882496535778046,0.0555887371301651,-0.03420845419168472
1733404616674852400,9.981852294921875,-0.17409659922122955,-0.04642575979232788,-0.1612684279680252
1733404616684810000,9.99181005859375,-0.18325957655906677,-0.09040805697441101,-0.22113321721553802
1733404616694841300,10.00184130859375,-0.18997909128665924,-0.1215621829032898,-0.26450464129447937
1733404616704829700,10.01182958984375,-0.192422553896904,-0.11972958594560623,-0.2919935882091522
1733404616714830000,10.021830078125,-0.1918116807937622,-0.08002334833145142,-0.29077184200286865
1733404616724818700,10.031818603515624,-0.17592918872833252,-0.04398229718208313,-0.2541199326515198
1733404616734849500,10.041849609375,-0.14966198801994324,-0.013439035043120384,-0.1722639948129654
1733404616744807700,10.0518076171875,-0.13439035415649414,0.02321287989616394,-0.07635815441608429
1733404616754838800,10.0618388671875,-0.14905111491680145,0.030543262138962746,0.009162978269159794
1733404616764827100,10.0718271484375,-0.16798794269561768,0.022602014243602753,0.016493361443281174
1733404616774827800,10.081827880859375,-0.18997909128665924,0.00733038317412138,-0.009773843921720982
1733404616784816000,10.091816162109374,-0.2021963894367218,-0.005497787147760391,-0.05192354694008827
1733404616794848000,10.101847900390625,-0.19425514340400696,-0.01160643994808197,-0.07757988572120667
1733404616804835600,10.111835693359374,-0.16310101747512817,-0.00855211354792118,-0.05864306539297104
1733404616814837000,10.1218369140625,-0.1007927656173706,-0.01160643994808197,0.009162978269159794
1733404616824824600,10.131824462890625,0.04886921867728233,0.028099801391363144,0.1472185254096985
1733404616834855200,10.141855224609374,0.13866640627384186,0.08735372871160507,0.2223549485206604
1733404616844813800,10.151813720703124,0.19975294172763824,0.14844025671482086,0.2480112910270691
1733404616854876200,10.161876220703125,0.24190263450145721,0.17531833052635193,0.22296582162380219
1733404616864833300,10.171833251953124,0.2779437005519867,0.17531833052635193,0.15515977144241333
1733404616874834700,10.181834716796875,0.2926044464111328,0.15882496535778046,0.018325956538319588
1733404616884822300,10.191822265625,0.2620611786842346,0.12461651116609573,-0.18387043476104736
1733404616894854100,10.201854248046875,0.15271630883216858,0.04886921867728233,-0.503963828086853
1733404616904811300,10.211811279296874,0.08491026610136032,0.036651913076639175,-0.5595525503158569
1733404616914842400,10.22184228515625,0.08002334833145142,0.12095131725072861,-0.3488040566444397
1733404616924831000,10.2318310546875,0.15271630883216858,0.25595253705978394,0.10201449692249298
1733404616934831900,10.241831787109374,0.2889392673969269,0.3488040566444397,0.6908885836601257
1733404616944820000,10.251820068359375,0.45753806829452515,0.36651915311813354,1.2608258724212646
1733404616954850300,10.261850341796874,0.617584764957428,0.3182607889175415,1.6829338073730469
1733404616964809000,10.27180908203125,0.7367035150527954,0.2535090744495392,1.870469331741333
1733404616974841300,10.28184130859375,0.7666358947753906,0.10934487730264664,1.6279559135437012
1733404616984828400,10.291828369140624,0.685390830039978,-0.003054326167330146,1.1618657112121582
1733404616994950400,10.301950439453124,0.5564982295036316,-0.0861319974064827,0.5290092825889587
1733404617005061600,10.3120615234375,0.39767327904701233,-0.12461651116609573,-0.1612684279680252
1733404617014848000,10.321847900390624,0.2535090744495392,-0.11178833991289139,-0.7757988572120667
1733404617024806400,10.331806396484374,0.1563815027475357,-0.10018189996480942,-1.2192870378494263
1733404617034838000,10.341838134765625,0.08796459436416626,-0.1362229436635971,-1.4428637027740479
1733404617044825900,10.351825927734374,0.1062905490398407,-0.18814650177955627,-1.387274980545044
1733404617054857700,10.361857666015625,0.1869247704744339,-0.23090706765651703,-1.1349875926971436
1733404617064814800,10.37181494140625,0.25961771607398987,-0.2730567753314972,-0.7678576111793518
1733404617074846500,10.381846435546874,0.3072652220726013,-0.3188716471195221,-0.3787364661693573
1733404617084834600,10.39183447265625,0.3396410644054413,-0.35552358627319336,-0.04703662544488907
1733404617094835500,10.40183544921875,0.3543018400669098,-0.3579670190811157,0.2015855312347412
1733404617104823600,10.411823486328124,0.35185837745666504,-0.3274237811565399,0.37079519033432007
1733404617114853400,10.421853271484375,0.3176499307155609,-0.27550023794174194,0.5210680365562439
1733404617124811500,10.4318115234375,0.29016098380088806,-0.2571742534637451,0.5723807215690613
1733404617134842400,10.44184228515625,0.2675589919090271,-0.23945917189121246,0.5821545720100403
1733404617144831200,10.451831298828125,0.24678955972194672,-0.24190263450145721,0.5595525503158569
1733404617154832000,10.461831787109375,0.2223549485206604,-0.24373523890972137,0.5167919993400574
1733404617164820200,10.4718203125,0.19792033731937408,-0.23273965716362,0.45204028487205505
1733404617174851300,10.481851318359375,0.17592918872833252,-0.22052235901355743,0.35613444447517395
1733404617184809200,10.491809326171875,0.15027284622192383,-0.21135938167572021,0.24617868661880493
1733404617194840300,10.50184033203125,0.10018189996480942,-0.17898350954055786,0.07696902006864548
1733404617204828700,10.51182861328125,0.06291911751031876,-0.16249015927314758,-0.016493361443281174
1733404617214830300,10.521830322265625,0.02626720629632473,-0.13561208546161652,-0.08552113175392151
1733404617224818700,10.531818603515624,0.00366519158706069,-0.08979719132184982,-0.12767083942890167
1733404617234849300,10.541849365234375,-0.006719517521560192,-0.045204028487205505,-0.13439035415649414
1733404617244807700,10.5518076171875,-0.00855211354792118,-0.001832595793530345,-0.09468411654233932
1733404617254838500,10.561838623046874,0.003054326167330146,0.05192354694008827,-0.02626720629632473
1733404617264827000,10.571826904296875,0.02871066704392433,0.08857546001672745,0.07391469180583954
1733404617274827800,10.581827880859375,0.028099801391363144,0.04886921867728233,0.11484266817569733
1733404617284816100,10.591816162109374,0.01710422709584236,-0.021380282938480377,0.1111774742603302
1733404617294847200,10.60184716796875,-0.00366519158706069,-0.10934487730264664,0.07208210229873657
1733404617304835600,10.611835693359374,-0.0403171069920063,-0.1771509200334549,0.018936822190880775
1733404617314836200,10.621836181640624,-0.05497787147760391,-0.1966986060142517,-0.029932396486401558
1733404617324824800,10.631824951171875,-0.05253441259264946,-0.1612684279680252,-0.06719517707824707
1733404617334856400,10.6418564453125,-0.04153883829712868,-0.03237585723400116,-0.09773843735456467
1733404617344813800,10.651813720703124,-0.03787364438176155,0.06719517707824707,-0.08002334833145142
1733404617354845400,10.661845458984375,-0.05864306539297104,0.10812314599752426,-0.04337143152952194
1733404617364833300,10.671833251953124,-0.09957103431224823,0.08552113175392151,0.0012217304902151227
1733404617374834400,10.68183447265625,-0.15393804013729095,0.02382374368607998,0.04214970022439957
1733404617384822300,10.691822265625,-0.22663100063800812,-0.0708603709936142,0.06658431142568588
1733404617394854100,10.701854248046875,-0.2987131178379059,-0.17837265133857727,0.07269296050071716
1733404617404811300,10.711811279296874,-0.35674530267715454,-0.2535090744495392,0.06719517707824707
1733404617414842400,10.72184228515625,-0.3903428912162781,-0.27550023794174194,0.07391469180583954
1733404617424831000,10.7318310546875,-0.38117989897727966,-0.251676470041275,0.08185594528913498
1733404617434832100,10.74183203125,-0.35246923565864563,-0.21319197118282318,0.05619960278272629
1733404617444819700,10.75181982421875,-0.3194825351238251,-0.1569923609495163,-0.01038470957428217
1733404617454851800,10.761851806640625,-0.30482175946235657,-0.054367005825042725,-0.07452555745840073
1733404617464808700,10.77180859375,-0.2926044464111328,0.0959058403968811,-0.08002334833145142
1733404617474840800,10.7818408203125,-0.2889392673969269,0.2638937830924988,-0.005497787147760391
1733404617484828400,10.791828369140624,-0.2871066629886627,0.43127086758613586,0.23457226157188416
1733404617494829300,10.801829345703124,-0.2919935882091522,0.45142942667007446,0.4086688458919525
1733404617504817400,10.8118173828125,-0.3219259977340698,0.3885102868080139,0.5076290369033813
1733404617514849000,10.82184912109375,-0.35063666105270386,0.2822197377681732,0.5064072608947754
1733404617524806400,10.831806396484374,-0.36713001132011414,0.17104226350784302,0.4050036668777466
1733404617534836500,10.84183642578125,-0.3805690407752991,0.04581489413976669,0.2272418737411499
1733404617544825900,10.851825927734374,-0.3695734739303589,-0.07269296050071716,0.01160643994808197
1733404617554857700,10.861857666015625,-0.32070425152778625,-0.19914206862449646,-0.2669481039047241
1733404617564814800,10.87181494140625,-0.28649580478668213,-0.26511552929878235,-0.3903428912162781
1733404617574846500,10.881846435546874,-0.252287358045578,-0.3072652220726013,-0.4605923891067505
1733404617584834600,10.89183447265625,-0.21563543379306793,-0.26022860407829285,-0.4642575979232788
1733404617594835500,10.90183544921875,-0.19120082259178162,-0.17043140530586243,-0.4239404797554016
1733404617604823600,10.911823486328124,-0.1966986060142517,-0.11362093687057495,-0.3585779070854187
1733404617614855200,10.921855224609375,-0.21135938167572021,-0.08429940044879913,-0.2687807083129883
1733404617624812500,10.9318125,-0.2370157092809677,-0.05742133408784866,-0.1514945775270462
1733404617634844400,10.941844482421875,-0.2785545587539673,-0.030543262138962746,0.02076941914856434
1733404617644832000,10.95183203125,-0.28588494658470154,-0.024434609338641167,0.09773843735456467
1733404617654833400,10.96183349609375,-0.2822197377681732,-0.036041051149368286,0.1362229436635971
1733404617664821000,10.971821044921874,-0.27122417092323303,-0.054367005825042725,0.14844025671482086
1733404617674852000,10.98185205078125,-0.24617868661880493,-0.06169738993048668,0.13866640627384186
1733404617684810000,10.99181005859375,-0.20402899384498596,-0.06169738993048668,0.11728613078594208
1733404617694841600,11.001841552734374,-0.1514945775270462,-0.051312681287527084,0.09468411654233932
1733404617704829700,11.01182958984375,-0.09285151958465576,-0.025045474991202354,0.07330382615327835
1733404617714830800,11.021830810546875,-0.05619960278272629,-0.08491026610136032,0.042760565876960754
1733404617724818700,11.031818603515624,-0.03726277872920036,-0.10262536257505417,0.00733038317412138
1733404617734850300,11.041850341796875,-0.031154127791523933,-0.09529497474431992,-0.033597588539123535
1733404617744807700,11.0518076171875,-0.04703662544488907,-0.10690141469240189,-0.08246681094169617
1733404617754839300,11.06183935546875,-0.06963863968849182,-0.13500121235847473,-0.1319468915462494
1733404617764827000,11.071826904296875,-0.08429940044879913,-0.18570303916931152,-0.18875735998153687
1733404617774827800,11.081827880859375,-0.10690141469240189,-0.2535090744495392,-0.2889392673969269
1733404617784816000,11.091816162109374,-0.10995574295520782,-0.2321287989616394,-0.3640756905078888
1733404617794847200,11.10184716796875,-0.10323622822761536,-0.19364428520202637,-0.43127086758613586
1733404617804835600,11.111835693359374,-0.07208210229873657,-0.15821409225463867,-0.46731191873550415
1733404617814836200,11.121836181640624,-0.04581489413976669,-0.12950342893600464,-0.46670106053352356
1733404617824824800,11.131824951171875,-0.02015855349600315,-0.10812314599752426,-0.43188172578811646
1733404617834856200,11.141856201171874,0.00427605677396059,-0.0910189226269722,-0.36713001132011414
1733404617844813800,11.151813720703124,0.024434609338641167,-0.05864306539297104,-0.27977627515792847
1733404617854845400,11.161845458984375,0.042760565876960754,-0.001832595793530345,-0.12217304855585098
1733404617864833500,11.17183349609375,0.045204028487205505,0.029932396486401558,-0.033597588539123535
1733404617874834700,11.181834716796875,0.042760565876960754,0.07330382615327835,0.01710422709584236
1733404617884822300,11.191822265625,0.025045474991202354,0.10873401165008545,0.029932396486401558
1733404617894854000,11.20185400390625,-0.003054326167330146,0.1472185254096985,-0.00855211354792118
1733404617904811300,11.211811279296874,-0.03848451003432274,0.1722639948129654,-0.08491026610136032
1733404617914843000,11.2218427734375,-0.08246681094169617,0.1319468915462494,-0.16310101747512817
1733404617924831000,11.2318310546875,-0.15515977144241333,-0.03420845419168472,-0.22052235901355743
1733404617934831900,11.241831787109374,-0.17348572611808777,-0.10934487730264664,-0.16371189057826996
1733404617944820000,11.251820068359375,-0.152105450630188,-0.12400564551353455,0.006108652334660292
1733404617954851800,11.261851806640625,-0.09407325088977814,-0.09468411654233932,0.252287358045578
1733404617964809000,11.27180908203125,0.001832595793530345,-0.06352998316287994,0.5106833577156067
1733404617974840600,11.281840576171875,0.10445795953273773,-0.0507018156349659,0.7171558141708374
1733404617984828400,11.291828369140624,0.1918116807937622,-0.01038470957428217,0.8381071090698242
1733404617994829000,11.3018291015625,0.25595253705978394,0.0861319974064827,0.8381071090698242
1733404618004817400,11.3118173828125,0.2736676335334778,0.09773843735456467,0.7024950385093689
1733404618014849000,11.32184912109375,0.27061331272125244,0.059864792972803116,0.45875978469848633
1733404618024806400,11.331806396484374,0.2370157092809677,0.005497787147760391,0.1722639948129654
1733404618034838300,11.34183837890625,0.17043140530586243,-0.04703662544488907,-0.07635815441608429
1733404618044825900,11.351825927734374,0.09040805697441101,-0.06230825558304787,-0.19608774781227112
1733404618054857700,11.361857666015625,0.06230825558304787,-0.00366519158706069,-0.08857546001672745
1733404618064814800,11.37181494140625,0.10995574295520782,0.1368338167667389,0.23273965716362
1733404618074846700,11.3818466796875,0.303600013256073,0.4612032473087311,0.9132435321807861
1733404618084834600,11.39183447265625,0.46181413531303406,0.6798930168151855,1.3396275043487549
1733404618094834700,11.401834716796875,0.6065891981124878,0.8203920125961304,1.6200146675109863
1733404618104823600,11.411823486328124,0.7086036801338196,0.8662069439888,1.701259732246399
1733404618114852000,11.42185205078125,0.7250970602035522,0.808174729347229,1.5693128108978271
1733404618124811500,11.4318115234375,0.6493497490882874,0.6310238242149353,1.2223412990570068
1733404618134845000,11.441844970703125,0.49724429845809937,0.33169981837272644,0.7024950385093689
1733404618144831200,11.451831298828125,0.18509216606616974,-0.21319197118282318,-0.22479841113090515
1733404618154832100,11.46183203125,-0.012828170321881771,-0.48319441080093384,-0.779464066028595
1733404618164820200,11.4718203125,-0.14233160018920898,-0.6133087277412415,-1.1362093687057495
1733404618174851800,11.481851806640625,-0.21868975460529327,-0.6334672570228577,-1.254717230796814
1733404618184809200,11.491809326171875,-0.22907446324825287,-0.5870414972305298,-1.1728612184524536
1733404618194841000,11.501841064453124,-0.1771509200334549,-0.4764748811721802,-0.9682214260101318
1733404618204828700,11.51182861328125,-0.09407325088977814,-0.36651915311813354,-0.6914994716644287
1733404618214830600,11.52183056640625,0.021991148591041565,-0.2730567753314972,-0.28466320037841797
1733404618224818700,11.531818603515624,0.07452555745840073,-0.2474004179239273,-0.09407325088977814
1733404618234850000,11.54185009765625,0.08796459436416626,-0.24007004499435425,0.01160643994808197
1733404618244807700,11.5518076171875,0.07819075137376785,-0.23518311977386475,0.04398229718208313
1733404618254838300,11.56183837890625,0.06291911751031876,-0.2278527319431305,0.02932153269648552
1733404618264827100,11.5718271484375,0.04398229718208313,-0.22418753802776337,-0.007941247895359993
1733404618274827800,11.581827880859375,0.031154127791523933,-0.23151792585849762,-0.03787364438176155
1733404618284816100,11.591816162109374,0.02687807008624077,-0.2321287989616394,-0.045204028487205505
1733404618294847200,11.60184716796875,0.015271631069481373,-0.2021963894367218,-0.030543262138962746
1733404618304835800,11.6118359375,0.0024434609804302454,-0.17898350954055786,-0.015271631069481373
1733404618314836200,11.621836181640624,-0.01160643994808197,-0.16798794269561768,-0.004886921960860491
1733404618324824800,11.631824951171875,-0.03176499158143997,-0.1716531366109848,-0.006108652334660292
1733404618334856000,11.64185595703125,-0.0555887371301651,-0.17531833052635193,-0.028099801391363144
1733404618344813800,11.651813720703124,-0.07696902006864548,-0.1771509200334549,-0.06475171446800232
1733404618354844700,11.6618447265625,-0.09346238523721695,-0.18081611394882202,-0.10690141469240189
1733404618364833500,11.67183349609375,-0.09957103431224823,-0.182648703455925,-0.14905111491680145
1733404618374834000,11.681833984375,-0.09834930300712585,-0.1765400618314743,-0.15271630883216858
1733404618384822300,11.691822265625,-0.08796459436416626,-0.17348572611808777,-0.152105450630188
1733404618394853400,11.701853271484374,-0.07757988572120667,-0.16798794269561768,-0.14966198801994324
1733404618404811300,11.711811279296874,-0.07513642311096191,-0.1716531366109848,-0.14966198801994324
1733404618414842400,11.72184228515625,-0.08002334833145142,-0.17531833052635193,-0.15027284622192383
1733404618424830700,11.731830810546874,-0.08185594528913498,-0.18325957655906677,-0.13439035415649414
1733404618434831600,11.74183154296875,-0.08918632566928864,-0.18448130786418915,-0.10323622822761536
1733404618444819700,11.75181982421875,-0.08552113175392151,-0.16920967400074005,-0.1014036312699318
1733404618454851000,11.76185107421875,-0.0757472887635231,-0.15454891324043274,-0.1215621829032898
1733404618464808700,11.77180859375,-0.06475171446800232,-0.15393804013729095,-0.1661553531885147
1733404618474840600,11.781840576171875,-0.06963863968849182,-0.16798794269561768,-0.22296582162380219
1733404618484828400,11.791828369140624,-0.08307767659425735,-0.19425514340400696,-0.25961771607398987
1733404618494829300,11.801829345703124,-0.10201449692249298,-0.19975294172763824,-0.23884831368923187
1733404618504817400,11.8118173828125,-0.11484266817569733,-0.15577064454555511,-0.1459967941045761
1733404618514849000,11.82184912109375,-0.21319197118282318,0.003054326167330146,0.042760565876960754
1733404618524806400,11.831806396484374,-0.17348572611808777,-0.04398229718208313,0.07819075137376785
1733404618534837500,11.84183740234375,-0.17531833052635193,-0.04337143152952194,0.11789698898792267
1733404618544826000,11.851826171875,-0.19425514340400696,-0.07147123664617538,0.11056660860776901
1733404618554857000,11.86185693359375,-0.21319197118282318,-0.09834930300712585,0.08429940044879913
1733404618564814800,11.87181494140625,-0.2168571650981903,-0.1160643994808197,0.06719517707824707
1733404618574846000,11.881845947265624,-0.19364428520202637,-0.14416420459747314,0.05619960278272629
1733404618584834300,11.891834228515625,-0.13805554807186127,-0.17043140530586243,0.021380282938480377
1733404618594835500,11.90183544921875,-0.11972958594560623,-0.13561208546161652,-0.042760565876960754
1733404618604823600,11.911823486328124,-0.14355333149433136,-0.08429940044879913,-0.13988813757896423
1733404618614855200,11.921855224609375,-0.18570303916931152,-0.009773843921720982,-0.20586158335208893
1733404618624812500,11.9318125,-0.22540926933288574,0.10690141469240189,-0.17043140530586243
1733404618634844400,11.941844482421875,-0.23396138846874237,0.26511552929878235,0.024434609338641167
1733404618644832000,11.95183203125,-0.20586158335208893,0.40072759985923767,0.34025195240974426
1733404618654833400,11.96183349609375,-0.1411098688840866,0.4593706727027893,0.8228355050086975
1733404618664821200,11.9718212890625,-0.11056660860776901,0.4300491213798523,1.0152580738067627
1733404618674851300,11.981851318359375,-0.10018189996480942,0.3543018400669098,1.0427470207214355
1733404618684810000,11.99181005859375,-0.1160643994808197,0.2535090744495392,0.9126327037811279
1733404618694840600,12.001840576171874,-0.1313360333442688,0.1514945775270462,0.6524040699005127
1733404618704829700,12.01182958984375,-0.16371189057826996,0.036651913076639175,0.303600013256073
1733404618714829600,12.02182958984375,-0.21135938167572021,-0.06719517707824707,-0.08552113175392151
1733404618724818700,12.031818603515624,-0.252287358045578,-0.13316862285137177,-0.4538728892803192
1733404618734848800,12.041848876953125,-0.2974913716316223,-0.1618792861700058,-0.8588765263557434
1733404618744807700,12.0518076171875,-0.3237585723400116,-0.15393804013729095,-1.0195341110229492
1733404618754839300,12.06183935546875,-0.34086281061172485,-0.11850785464048386,-1.0873401165008545
1733404618764827100,12.0718271484375,-0.34574973583221436,-0.07696902006864548,-1.0629055500030518
1733404618774828300,12.081828369140625,-0.34208452701568604,-0.05497787147760391,-0.9706648588180542
1733404618784816000,12.091816162109374,-0.323147714138031,-0.045204028487205505,-0.8191702961921692
1733404618794847700,12.10184765625,-0.29504790902137756,-0.04459316283464432,-0.6212499737739563
1733404618804835800,12.1118359375,-0.24190263450145721,-0.045204028487205505,-0.29138273000717163
1733404618814836700,12.121836669921874,-0.2021963894367218,-0.03848451003432274,-0.08735372871160507
1733404618824824800,12.131824951171875,-0.16859880089759827,-0.05009094998240471,0.07941248267889023
1733404618834856400,12.1418564453125,-0.1466076523065567,-0.07819075137376785,0.20097467303276062
1733404618844813800,12.151813720703124,-0.1258382350206375,-0.08979719132184982,0.28038713335990906
1733404618854873000,12.161873046875,-0.11728613078594208,-0.08368854224681854,0.30970868468284607
1733404618864833300,12.171833251953124,-0.1160643994808197,-0.05925392732024193,0.2767219543457031
1733404618874834000,12.181833984375,-0.12461651116609573,-0.00855211354792118,0.13561208546161652
1733404618884822300,12.191822265625,-0.13316862285137177,0.025045474991202354,0.016493361443281174
1733404618894853400,12.201853271484374,-0.1319468915462494,0.05864306539297104,-0.09529497474431992
1733404618904811300,12.211811279296874,-0.12889257073402405,0.10690141469240189,-0.17776179313659668
1733404618914843000,12.2218427734375,-0.11362093687057495,0.13500121235847473,-0.21991148591041565
1733404618924831000,12.2318310546875,-0.09346238523721695,0.1258382350206375,-0.23579397797584534
1733404618934831900,12.241831787109374,-0.08307767659425735,0.09468411654233932,-0.24373523890972137
1733404618944819700,12.25181982421875,-0.08368854224681854,0.04764748737215996,-0.26083946228027344
1733404618954851600,12.2618515625,-0.10751228034496307,-0.0507018156349659,-0.31031954288482666
1733404618964809000,12.27180908203125,-0.1258382350206375,-0.11301007121801376,-0.34574973583221436
1733404618974840800,12.2818408203125,-0.13744467496871948,-0.17348572611808777,-0.3689626157283783
1733404618984828400,12.291828369140624,-0.14905111491680145,-0.21013765037059784,-0.3744603991508484
1733404618994829300,12.301829345703124,-0.1563815027475357,-0.23457226157188416,-0.35124751925468445
1733404619004817400,12.3118173828125,-0.15943582355976105,-0.23518311977386475,-0.3090978264808655
1733404619014849000,12.32184912109375,-0.15577064454555511,-0.20525072515010834,-0.23884831368923187
1733404619024806700,12.331806640625,-0.1362229436635971,-0.09957103431224823,-0.10262536257505417
1733404619034837800,12.341837646484375,-0.1160643994808197,-0.03481931984424591,-0.02687807008624077
1733404619044825900,12.351825927734374,-0.10018189996480942,0.02382374368607998,0.014049900695681572
1733404619054857200,12.361857177734375,-0.09651670604944229,0.06719517707824707,0.009773843921720982
1733404619064814800,12.37181494140625,-0.10995574295520782,0.09468411654233932,-0.04337143152952194
1733404619074847000,12.381846923828125,-0.12950342893600464,0.10384709388017654,-0.13744467496871948
1733404619084834600,12.39183447265625,-0.14966198801994324,0.10018189996480942,-0.23335053026676178
1733404619094835700,12.401835693359375,-0.16859880089759827,0.03176499158143997,-0.28588494658470154
1733404619104823600,12.411823486328124,-0.1466076523065567,-0.001832595793530345,-0.22113321721553802
1733404619114853400,12.421853271484375,-0.0910189226269722,-0.02871066704392433,-0.08246681094169617
1733404619124811500,12.4318115234375,-0.014049900695681572,-0.030543262138962746,0.11362093687057495
1733404619134843100,12.441843017578124,0.08552113175392151,-0.029932396486401558,0.3121521472930908
1733404619144831200,12.451831298828125,0.1716531366109848,-0.01038470957428217,0.4282165467739105
1733404619154832400,12.461832275390625,0.22113321721553802,0.03726277872920036,0.4343251883983612
1733404619164820200,12.4718203125,0.251676470041275,0.10445795953273773,0.33719760179519653
1733404619174850600,12.4818505859375,0.31154128909111023,0.19425514340400696,0.03848451003432274
1733404619184809200,12.491809326171875,0.3500257730484009,0.1918116807937622,-0.2021963894367218
1733404619194841000,12.501841064453124,0.3494149148464203,0.09957103431224823,-0.40683624148368835
1733404619204829000,12.511828857421875,0.32620203495025635,-0.04764748737215996,-0.523511528968811
1733404619214830000,12.521830078125,0.2840523421764374,-0.19120082259178162,-0.48747047781944275
1733404619224818700,12.531818603515624,0.2681698501110077,-0.24862214922904968,-0.2620611786842346
1733404619234850300,12.541850341796875,0.3170390725135803,-0.14844025671482086,0.1765400618314743
1733404619244807700,12.5518076171875,0.48197266459465027,0.1466076523065567,1.0671815872192383
1733404619254839300,12.56183935546875,0.6157521605491638,0.21930062770843506,1.6022995710372925
1733404619264827100,12.5718271484375,0.7000515460968018,0.20830504596233368,1.93766450881958
1733404619274827300,12.5818271484375,0.6927211880683899,0.13988813757896423,1.945605754852295
1733404619284816100,12.591816162109374,0.607810914516449,-0.01466076634824276,1.632842779159546
1733404619294846700,12.6018466796875,0.43737950921058655,-0.19608774781227112,1.0384708642959595
1733404619304835800,12.6118359375,0.23029619455337524,-0.3799581825733185,0.26022860407829285
1733404619314836700,12.621836669921874,-0.06719517707824707,-0.4789183437824249,-0.9236282706260681
1733404619324824800,12.631824951171875,-0.20463985204696655,-0.4196644127368927,-1.4648548364639282
1733404619334856200,12.641856201171874,-0.2889392673969269,-0.36590829491615295,-1.7134770154953003
1733404619344813600,12.6518134765625,-0.28099802136421204,-0.2932153046131134,-1.6694947481155396
1733404619354845400,12.661845458984375,-0.19853121042251587,-0.21013765037059784,-1.3842206001281738
1733404619364833300,12.671833251953124,-0.07941248267889023,-0.15454891324043274,-0.9364564418792725
1733404619374834400,12.68183447265625,0.05619960278272629,-0.10812314599752426,-0.4196644127368927
1733404619384822300,12.691822265625,0.17531833052635193,-0.07330382615327835,0.04459316283464432
1733404619394854100,12.701854248046875,0.2474004179239273,-0.04642575979232788,0.45875978469848633
1733404619404811300,12.711811279296874,0.2321287989616394,-0.04886921867728233,0.5302310585975647
1733404619414843000,12.7218427734375,0.1820378452539444,-0.05497787147760391,0.5082398653030396
1733404619424831000,12.7318310546875,0.11911872029304504,-0.05192354694008827,0.4453207552433014
1733404619434831000,12.7418310546875,0.06169738993048668,-0.054367005825042725,0.38179078698158264
