time,seconds_elapsed,z,y,x
1733404607224674800,0.5316748046875,10.029311180114746,1.0127472877502441,-0.0933738648891449
1733404607234684700,0.5416845703125,9.998186111450195,1.05105459690094,-0.0454898327589035
1733404607244664000,0.5516640625,9.967061996459961,1.0773907899856567,-0.009576806798577309
1733404607254673700,0.561673583984375,9.995792388916016,1.139639973640442,0.047884032130241394
1733404607264683500,0.57168359375,9.974244117736816,1.2066776752471924,0.038307227194309235
1733404607274663000,0.581662841796875,9.883264541625977,1.2737152576446533,-0.016759412363171577
1733404607284672500,0.591672607421875,9.761159896850586,1.2665326595306396,-0.0071826050989329815
1733404607294682400,0.601682373046875,9.66299819946289,1.2832920551300049,-0.05746084079146385
1733404607304661500,0.61166162109375,9.569623947143555,1.259350061416626,-0.09816227108240128
1733404607314671400,0.62167138671875,9.514557838439941,1.2018892765045166,-0.12210428714752197
1733404607324681200,0.63168115234375,9.576807022094727,1.1348515748977661,-0.14365209639072418
1733404607334690800,0.64169091796875,9.648633003234863,1.0845733880996704,-0.16759411990642548
1733404607344670000,0.651669921875,9.710882186889648,1.0055646896362305,-0.16519992053508759
1733404607354679800,0.6616796875,9.763554573059082,0.9959878921508789,-0.22026655077934265
1733404607364689700,0.671689697265625,9.770736694335938,0.9840168952941895,-0.15801730751991272
1733404607374668800,0.681668701171875,9.718064308166504,1.0007762908935547,-0.1843535304069519
1733404607384678700,0.6916787109375,9.63187313079834,1.0127472877502441,-0.21547815203666687
1733404607394688500,0.7016884765625,9.619902610778809,1.0247182846069336,-0.15322890877723694
1733404607404667600,0.711667724609375,9.651026725769043,1.0271124839782715,-0.12210428714752197
1733404607414677500,0.721677490234375,9.684545516967773,1.091755986213684,-0.16998831927776337
1733404607424687400,0.731687255859375,9.75397777557373,1.094150185585022,-0.13168109953403473
1733404607434666500,0.74166650390625,9.768342971801758,1.0797849893569946,-0.1364694982767105
1733404607444676000,0.751676025390625,9.75637149810791,1.0773907899856567,-0.14604631066322327
1733404607454686000,0.76168603515625,9.696516990661621,1.0654197931289673,-0.11252748221158981
1733404607464665000,0.7716650390625,9.617507934570312,1.0749965906143188,-0.10295066982507706
1733404607474675000,0.781675048828125,9.519346237182617,1.0558429956436157,-0.14365209639072418
1733404607484684800,0.791684814453125,9.497797966003418,1.0438719987869263,-0.1149216815829277
1733404607494664200,0.801664306640625,9.519346237182617,1.0223240852355957,-0.12449848651885986
1733404607504673800,0.811673828125,9.605537414550781,1.0103530883789062,-0.12449848651885986
1733404607514683600,0.82168359375,9.66539192199707,0.9959878921508789,-0.12449848651885986
1733404607524662800,0.831662841796875,9.694122314453125,1.0271124839782715,-0.06224924325942993
1733404607534672400,0.84167236328125,9.672574996948242,1.0223240852355957,-0.06224924325942993
1733404607544682200,0.85168212890625,9.622296333312988,1.015141487121582,-0.06224924325942993
1733404607554661600,0.86166162109375,9.586383819580078,0.993593692779541,0
1733404607564671200,0.871671142578125,9.624691009521484,0.9696516990661621,0.009576806798577309
1733404607574681000,0.88168115234375,9.730035781860352,0.950498104095459,0.043095629662275314
1733404607584691000,0.89169091796875,9.873687744140625,0.933738648891449,0.09576806426048279
1733404607594670000,0.901670166015625,9.95748519897461,0.9361328482627869,0.0933738648891449
1733404607604680000,0.911679931640625,10.031704902648926,0.9409212470054626,0.05746084079146385
1733404607614689500,0.921689453125,10.034099578857422,1.0319008827209473,0.033518824726343155
1733404607624668700,0.931668701171875,10.086771965026855,1.0869675874710083,0.11252748221158981
1733404607634678500,0.941678466796875,9.84256362915039,0.9983820915222168,0.0071826050989329815
1733404607644688400,0.9516884765625,9.93354320526123,1.1540051698684692,-0.05506663769483566
1733404607654667500,0.96166748046875,9.931148529052734,1.115697979927063,-0.1604115068912506
1733404607664677400,0.971677490234375,9.78989028930664,1.0893617868423462,-0.17717093229293823
1733404607674687200,0.981687255859375,9.674968719482422,1.0965443849563599,-0.15322890877723694
1733404607684666600,0.99166650390625,9.5408935546875,1.0773907899856567,-0.17477671802043915
1733404607694676200,1.00167626953125,9.423578262329102,1.113303780555725,-0.26815059781074524
1733404607704686000,1.01168603515625,9.29189682006836,1.0606313943862915,-0.2537853717803955
1733404607714665200,1.021665283203125,9.258378028869629,1.048660397529602,-0.17238251864910126
1733404607724674800,1.0316748046875,9.251194953918457,1.0295066833496094,-0.19871874153614044
1733404607734684700,1.0416845703125,9.29189682006836,1.0079588890075684,-0.1388636976480484
1733404607744664000,1.0516640625,9.41639518737793,0.9648633003234863,-0.1173158809542656
1733404607754673700,1.061673583984375,9.536105155944824,0.9241618514060974,-0.15562310814857483
1733404607764683500,1.07168359375,9.725247383117676,0.8906430602073669,-0.16759411990642548
1733404607774663000,1.081662841796875,9.895236015319824,0.8882488012313843,-0.14604631066322327
1733404607784672500,1.091672607421875,10.06043529510498,0.8906430602073669,-0.1388636976480484
1733404607794682400,1.101682373046875,10.17296314239502,0.8906430602073669,-0.181959331035614
1733404607804661800,1.111661865234375,10.182539939880371,0.9169792532920837,-0.19632454216480255
1733404607814671400,1.12167138671875,10.120290756225586,0.9528923034667969,-0.20111294090747833
1733404607824681200,1.13168115234375,9.926360130310059,1.0223240852355957,-0.21308395266532898
1733404607834690800,1.14169091796875,9.706093788146973,1.0271124839782715,-0.19632454216480255
1733404607844670000,1.151669921875,9.452308654785156,1.0199298858642578,-0.14844051003456116
1733404607854679800,1.1616796875,9.3828763961792,1.015141487121582,-0.1843535304069519
1733404607864689700,1.171689697265625,9.50737476348877,0.9840168952941895,-0.22266076505184174
1733404607874669000,1.1816689453125,9.703699111938477,0.9385270476341248,-0.19632454216480255
1733404607884678700,1.1916787109375,9.883264541625977,0.871489405632019,-0.20350714027881622
1733404607894688500,1.2016884765625,9.888052940368652,0.8427590131759644,-0.2513911724090576
1733404607904667600,1.211667724609375,9.797073364257812,0.8020575642585754,-0.26815059781074524
1733404607914677500,1.221677490234375,9.646238327026367,0.8307880163192749,-0.24660277366638184
1733404607924687400,1.231687255859375,9.634267807006836,0.828393816947937,-0.272938996553421
1733404607934666500,1.24166650390625,9.581595420837402,0.8571242094039917,-0.3280056416988373
1733404607944676000,1.251676025390625,9.612719535827637,0.9528923034667969,-0.31842881441116333
1733404607954686000,1.26168603515625,9.607931137084961,0.9792284965515137,-0.3280056416988373
1733404607964665000,1.2716650390625,9.476250648498535,1.0031704902648926,-0.2801215946674347
1733404607974675000,1.281675048828125,9.260771751403809,1.0127472877502441,-0.26575639843940735
1733404607984684800,1.291684814453125,9.258378028869629,1.0271124839782715,-0.2585737705230713
1733404607994664200,1.301664306640625,9.47146224975586,0.9696516990661621,-0.2059013396501541
1733404608004673800,1.311673828125,9.706093788146973,0.8906430602073669,-0.19632454216480255
1733404608014683600,1.32168359375,9.950302124023438,0.7924807667732239,-0.13407529890537262
1733404608024662800,1.331662841796875,10.17296314239502,0.727837324142456,0.004788403399288654
1733404608034672400,1.34167236328125,10.287884712219238,0.689530074596405,0.08379705995321274
1733404608044682200,1.35168212890625,10.220847129821777,0.7254431247711182,0.10295066982507706
1733404608054692000,1.361692138671875,10.089165687561035,0.7637503147125244,0.19153612852096558
1733404608064671500,1.37167138671875,9.816226959228516,0.8331822156906128,0.26815059781074524
1733404608074681000,1.38168115234375,9.612719535827637,0.871489405632019,0.29209262132644653
1733404608084691000,1.39169091796875,9.39245319366455,0.8882488012313843,0.4141969084739685
1733404608094670000,1.401670166015625,9.208099365234375,0.8331822156906128,0.3758896589279175
1733404608104680000,1.411679931640625,9.119514465332031,0.7158663272857666,0.40222588181495667
1733404608114689500,1.421689453125,9.26795482635498,0.6871358752250671,0.4596867263317108
1733404608124669000,1.4316689453125,9.545681953430176,0.6248866319656372,0.5027823448181152
1733404608134678500,1.441678466796875,9.794678688049316,0.5554547905921936,0.5363011956214905
1733404608144688400,1.4516884765625,10.02691650390625,0.5554547905921936,0.5339069962501526
1733404608154667800,1.461667724609375,10.24000072479248,0.608127236366272,0.44532153010368347
1733404608164677400,1.471677490234375,10.285490036010742,0.6871358752250671,0.2801215946674347
1733404608174687200,1.481687255859375,10.218452453613281,0.7829039692878723,0.1388636976480484
1733404608184666600,1.49166650390625,10.053253173828125,0.8068459630012512,0.019153613597154617
1733404608194676200,1.50167626953125,9.885659217834473,0.8188169598579407,-0.0694318488240242
1733404608204685800,1.511685791015625,9.799467086791992,0.790086567401886,-0.10055647045373917
1733404608214665200,1.521665283203125,9.864110946655273,0.7469909191131592,-0.17956513166427612
1733404608224674800,1.5316748046875,10.086771965026855,0.6919242739677429,-0.2801215946674347
1733404608234684700,1.5416845703125,10.398017883300781,0.6320692300796509,-0.3926490843296051
1733404608244664000,1.5516640625,10.639832496643066,0.545877993106842,-0.47644615173339844
1733404608254673700,1.561673583984375,10.742782592773438,0.49559974670410156,-0.5674257874488831
1733404608264683500,1.57168359375,10.682928085327148,0.4692635238170624,-0.730231523513794
1733404608274663000,1.581662841796875,10.512939453125,0.4429273009300232,-0.7326257228851318
1733404608284672500,1.591672607421875,10.266336441040039,0.49799394607543945,-0.7972691655158997
1733404608294682400,1.601682373046875,10.041281700134277,0.6536170840263367,-0.8595184087753296
1733404608304692200,1.611692138671875,9.742006301879883,0.849941611289978,-0.9097966551780701
1733404608314671400,1.62167138671875,9.375694274902344,0.9816226959228516,-0.8906430602073669
1733404608324681200,1.63168115234375,8.932766914367676,1.039083480834961,-0.7996633648872375
1733404608334690800,1.64169091796875,8.635885238647461,1.039083480834961,-0.8379706144332886
1733404608344670000,1.651669921875,8.518569946289062,0.9840168952941895,-0.8738836050033569
1733404608354679800,1.6616796875,8.604761123657227,0.8786720037460327,-0.9481038451194763
1733404608364689700,1.671689697265625,8.911218643188477,0.811634361743927,-1.0103530883789062
1733404608374668800,1.681668701171875,9.318233489990234,0.7422025203704834,-1.1420341730117798
1733404608384678700,1.6916787109375,9.603142738342285,0.7326257228851318,-1.1875240802764893
1733404608394688500,1.7016884765625,9.718064308166504,0.8092401623725891,-1.216254472732544
1733404608404668000,1.71166796875,9.53849983215332,0.9840168952941895,-1.338358759880066
1733404608414677500,1.721677490234375,9.078812599182129,1.1540051698684692,-1.4173674583435059
1733404608424687000,1.73168701171875,8.62391471862793,1.3431471586227417,-1.5179238319396973
1733404608434666500,1.74166650390625,8.259995460510254,1.558625340461731,-1.5873557329177856
1733404608444676000,1.751676025390625,8.128314971923828,1.6352397203445435,-1.5538369417190552
1733404608454686000,1.76168603515625,8.276755332946777,1.5945383310317993,-1.4508862495422363
1733404608464665300,1.771665283203125,8.71728801727295,1.4987702369689941,-1.2713210582733154
1733404608474675000,1.781675048828125,9.21288776397705,1.4053963422775269,-1.1276689767837524
1733404608484684800,1.791684814453125,9.859322547912598,1.3551181554794312,-0.9074024558067322
1733404608494664200,1.801664306640625,10.484209060668945,1.3311761617660522,-0.7398083209991455
1733404608504673800,1.811673828125,11.025299072265625,1.3742717504501343,-0.5722141861915588
1733404608514683600,1.82168359375,11.465831756591797,1.4748282432556152,-0.6248866319656372
1733404608524662800,1.831662841796875,11.587936401367188,1.6041151285171509,-0.6416460275650024
1733404608534672400,1.84167236328125,11.556811332702637,1.7262194156646729,-0.629675030708313
1733404608544682200,1.85168212890625,11.21204662322998,1.8339585065841675,-0.6560112833976746
1733404608554692000,1.861692138671875,10.642226219177246,1.8531121015548706,-0.7110779285430908
1733404608564671200,1.871671142578125,10.005369186401367,1.9488801956176758,-0.689530074596405
1733404608574681000,1.88168115234375,9.397241592407227,1.9776105880737305,-0.7350199222564697
1733404608584691000,1.89169091796875,8.990227699279785,1.9153614044189453,-0.790086567401886
1733404608594670000,1.901670166015625,8.71489429473877,1.8626888990402222,-0.8164227604866028
1733404608604680000,1.911679931640625,8.573636054992676,1.7860745191574097,-0.790086567401886
1733404608614689500,1.921689453125,8.468291282653809,1.647210717201233,-0.7469909191131592
1733404608624668700,1.931668701171875,8.413225173950195,1.5418659448623657,-0.7613561153411865
1733404608634678500,1.941678466796875,8.439560890197754,1.479616641998291,-0.7805097699165344
1733404608644688400,1.9516884765625,8.497021675109863,1.479616641998291,-0.6847416758537292
1733404608654667500,1.96166748046875,8.530540466308594,1.5610195398330688,-0.6009446382522583
1733404608664677400,1.971677490234375,8.518569946289062,1.6136919260025024,-0.5410895943641663
1733404608674687200,1.981687255859375,8.451532363891602,1.659181833267212,-0.4692635238170624
1733404608684666600,1.99166650390625,8.525752067565918,1.6759412288665771,-0.45489832758903503
1733404608694676200,2.00167626953125,8.712499618530273,1.7310078144073486,-0.35673606395721436
1733404608704686000,2.01168603515625,9.02135181427002,1.867477297782898,-0.2753331959247589
1733404608714665200,2.021665283203125,9.263166427612305,1.9560627937316895,-0.2322375625371933
1733404608724674800,2.0316748046875,9.557653427124023,2.008735179901123,-0.26336219906806946
1733404608734684700,2.0416845703125,9.823410034179688,2.0015525817871094,-0.31603461503982544
1733404608744664000,2.0516640625,10.046070098876953,2.056619167327881,-0.3758896589279175
1733404608754673700,2.061673583984375,10.02691650390625,2.1380221843719482,-0.5027823448181152
1733404608764683500,2.07168359375,9.847352027893066,2.252943754196167,-0.5267243981361389
1733404608774663000,2.081662841796875,9.636661529541016,2.248155355453491,-0.524330198764801
1733404608784672500,2.091672607421875,9.548076629638672,2.2002713680267334,-0.49559974670410156
1733404608794682400,2.101682373046875,9.710882186889648,2.123656988143921,-0.395043283700943
1733404608804692200,2.111692138671875,10.165780067443848,2.0231003761291504,-0.3926490843296051
1733404608814671400,2.12167138671875,10.795455932617188,1.9776105880737305,-0.40940847992897034
1733404608824681200,2.13168115234375,11.26950740814209,1.9129672050476074,-0.3687070608139038
1733404608834690800,2.14169091796875,11.743558883666992,2.0231003761291504,-0.49320554733276367
1733404608844670000,2.151669921875,11.856086730957031,2.1092917919158936,-0.5099649429321289
1733404608854679800,2.1616796875,11.475408554077148,2.1523873805999756,-0.5434837937355042
1733404608864689700,2.171689697265625,10.92953109741211,2.2385785579681396,-0.47644615173339844
1733404608874669000,2.1816689453125,10.249577522277832,2.296039342880249,-0.5003881454467773
1733404608884678700,2.1916787109375,9.701305389404297,2.2912509441375732,-0.5626373887062073
1733404608894688500,2.2016884765625,9.313444137573242,2.248155355453491,-0.44771572947502136
1733404608904667600,2.211667724609375,9.351752281188965,2.032677173614502,-0.36152446269989014
1733404608914677500,2.221677490234375,9.648633003234863,1.86508309841156,-0.47405192255973816
1733404608924687400,2.231687255859375,10.213664054870605,1.6304513216018677,-0.5003881454467773
1733404608934666500,2.24166650390625,10.78587818145752,1.2497732639312744,-0.31603461503982544
1733404608944676000,2.251676025390625,11.298237800598145,0.7637503147125244,-0.28730419278144836
1733404608954686000,2.26168603515625,11.681309700012207,0.26815059781074524,-0.2968810200691223
1733404608964665000,2.2716650390625,12.057199478149414,-0.17477671802043915,-0.2298433631658554
1733404608974675000,2.281675048828125,12.382811546325684,-0.5195417404174805,-0.2537853717803955
1733404608984684800,2.291684814453125,12.828132629394531,-0.9050082564353943,-0.11971008777618408
1733404608994664200,2.301664306640625,13.204022407531738,-1.0797849893569946,0.023942016065120697
1733404609004673800,2.311673828125,13.555970191955566,-1.2665326595306396,0.15322890877723694
1733404609014683600,2.32168359375,13.747506141662598,-1.3311761617660522,0.31124621629714966
1733404609024662800,2.331662841796875,13.625401496887207,-1.3239935636520386,0.4213795065879822
1733404609034672400,2.34167236328125,13.199234008789062,-1.113303780555725,0.4189853072166443
1733404609044682200,2.35168212890625,12.557587623596191,-0.8667010068893433,0.6177040338516235
1733404609054692000,2.361692138671875,11.5065336227417,-0.3974374830722809,0.7805097699165344
1733404609064671500,2.37167138671875,10.400412559509277,-0.014365210197865963,0.811634361743927
1733404609074681000,2.38168115234375,9.246406555175781,0.33518823981285095,0.849941611289978
1733404609084691000,2.39169091796875,8.250418663024902,0.5482721924781799,0.9241618514060974
1733404609094670000,2.401670166015625,7.259219646453857,0.5410895943641663,1.2210428714752197
1733404609104680000,2.411679931640625,6.75883150100708,0.3734954595565796,1.625662922859192
1733404609114689500,2.421689453125,6.232107162475586,0.3208230137825012,1.644816517829895
1733404609124669000,2.4316689453125,6.117185115814209,0.08379705995321274,1.7932571172714233
1733404609134678500,2.441678466796875,6.129156112670898,-0.0454898327589035,1.7836803197860718
1733404609144688400,2.4516884765625,6.3949127197265625,-0.10773907601833344,1.6208745241165161
1733404609154667800,2.461667724609375,6.782773494720459,-0.14604631066322327,1.522712230682373
1733404609164677400,2.471677490234375,7.326257228851318,-0.2082955539226532,1.314416766166687
1733404609174687200,2.481687255859375,8.106766700744629,-0.23942017555236816,1.2018892765045166
1733404609184666600,2.49166650390625,9.227252960205078,-0.2561795711517334,1.0654197931289673
1733404609194676200,2.50167626953125,10.182539939880371,-0.21787235140800476,0.8379706144332886
1733404609204685800,2.511685791015625,11.001357078552246,-0.07422025501728058,0.6751648783683777
1733404609214665200,2.521665283203125,11.561599731445312,0.08858546614646912,0.5315127968788147
1733404609224674800,2.5316748046875,11.896788597106934,0.28969839215278625,0.31364041566848755
1733404609234684700,2.5416845703125,11.688492774963379,0.5027823448181152,0.07182604819536209
1733404609244664000,2.5516640625,11.039664268493652,0.768538773059845,-0.14844051003456116
1733404609254673700,2.561673583984375,10.11789608001709,1.0079588890075684,-0.17238251864910126
1733404609264683500,2.57168359375,9.387664794921875,1.2090718746185303,-0.17956513166427612
1733404609274663000,2.581662841796875,8.69334602355957,1.3263877630233765,-0.23702596127986908
1733404609284672500,2.591672607421875,8.355764389038086,1.3551181554794312,-0.181959331035614
1733404609294682400,2.601682373046875,8.092401504516602,1.4197616577148438,-0.090979665517807
1733404609304692200,2.611692138671875,7.908048152923584,1.4460978507995605,-0.031124621629714966
1733404609314671400,2.62167138671875,7.704541206359863,1.4197616577148438,0.14365209639072418
1733404609324681200,2.63168115234375,7.565677165985107,1.3623007535934448,0.24181437492370605
1733404609334690800,2.64169091796875,7.41484260559082,1.4101848602294922,0.2777273952960968
1733404609344670000,2.651669921875,7.127538681030273,1.4508862495422363,0.36152446269989014
1733404609354679800,2.6616796875,6.957550048828125,1.4939818382263184,0.37828385829925537
1733404609364689700,2.671689697265625,7.0341644287109375,1.5538369417190552,0.3519476354122162
1733404609374668800,2.681668701171875,7.400477409362793,1.6136919260025024,0.38546648621559143
1733404609384678700,2.6916787109375,7.960720539093018,1.5969325304031372,0.3974374830722809
1733404609394688500,2.7016884765625,8.487444877624512,1.5059528350830078,0.3447650372982025
1733404609404668000,2.71166796875,9.028534889221191,1.4293384552001953,0.33279404044151306
1733404609414677500,2.721677490234375,9.555258750915527,1.381454348564148,0.31603461503982544
1733404609424687000,2.73168701171875,10.074800491333008,1.3862427473068237,0.2346317619085312
1733404609434666500,2.74166650390625,10.433931350708008,1.3958195447921753,0.2585737705230713
1733404609444676000,2.751676025390625,10.584765434265137,1.4508862495422363,0.3208230137825012
1733404609454686000,2.76168603515625,10.541669845581055,1.5729905366897583,0.4141969084739685
1733404609464665300,2.771665283203125,10.338163375854492,1.7190368175506592,0.40462008118629456
1733404609474675000,2.781675048828125,10.120290756225586,1.8291701078414917,0.38546648621559143
1733404609484684800,2.791684814453125,10.04846477508545,1.8531121015548706,0.3878606855869293
1733404609494664200,2.801664306640625,10.043676376342773,1.86508309841156,0.33039984107017517
1733404609504673800,2.811673828125,10.019734382629395,1.8171991109848022,0.3495534360408783
1733404609514683600,2.82168359375,10.170568466186523,1.7142484188079834,0.4405331015586853
1733404609524662800,2.831662841796875,10.65898609161377,1.5203180313110352,0.5626373887062073
1733404609534672400,2.84167236328125,11.446678161621094,1.2497732639312744,0.6224924325942993
1733404609544682200,2.85168212890625,12.509703636169434,1.158793568611145,0.45489832758903503
1733404609554692000,2.861692138671875,13.675680160522461,1.3838485479354858,0.1843535304069519
1733404609564671200,2.871671142578125,14.221558570861816,1.4939818382263184,-0.1843535304069519
1733404609574681000,2.88168115234375,13.838485717773438,1.4867992401123047,-0.31124621629714966
1733404609584691000,2.89169091796875,12.966996192932129,1.6112977266311646,-0.6344634294509888
1733404609594670000,2.901670166015625,12.006921768188477,1.6855180263519287,-1.01753568649292
1733404609604680000,2.911679931640625,11.08994197845459,1.9129672050476074,-1.2330138683319092
1733404609614689500,2.921689453125,10.319009780883789,2.10210919380188,-1.3742717504501343
1733404609624668700,2.931668701171875,9.569623947143555,2.1811177730560303,-1.2521674633026123
1733404609634678500,2.941678466796875,8.992621421813965,1.6903064250946045,-0.47405192255973816
1733404609644688400,2.9516884765625,9.251194953918457,0.8571242094039917,0.12449848651885986
1733404609654667500,2.96166748046875,10.218452453613281,-0.21308395266532898,0
1733404609664677400,2.971677490234375,12.236764907836914,-1.3862427473068237,-0.004788403399288654
1733404609674687200,2.981687255859375,14.391546249389648,-2.0398597717285156,0.043095629662275314
1733404609684666600,2.99166650390625,15.55512809753418,-2.1930887699127197,-0.181959331035614
1733404609694676200,3.00167626953125,15.564704895019531,-1.6376339197158813,-0.8954314589500427
1733404609704686000,3.01168603515625,14.374787330627441,-0.9074024558067322,-1.644816517829895
1733404609714665200,3.021665283203125,11.590330123901367,-0.44532153010368347,-1.800439715385437
1733404609724675000,3.031675048828125,8.463502883911133,-0.08858546614646912,-1.7764976024627686
1733404609734684700,3.0416845703125,5.102043628692627,0.4429273009300232,-2.0446481704711914
1733404609744664000,3.0516640625,2.5905263423919678,0.9002198576927185,-1.8076223134994507
1733404609754673700,3.061673583984375,0.6751648783683777,1.4772224426269531,-1.5394717454910278
1733404609764683500,3.07168359375,0.023942016065120697,1.7621324062347412,-1.0414776802062988
1733404609774663000,3.081662841796875,0.768538773059845,1.5945383310317993,-0.7158663272857666
1733404609784672500,3.091672607421875,3.0142998695373535,1.0606313943862915,-0.49799394607543945
1733404609794682400,3.101682373046875,5.566518783569336,0.4381389021873474,-0.40222588181495667
1733404609804692200,3.111692138671875,8.621520042419434,-0.040701430290937424,-0.7206547260284424
1733404609814671400,3.12167138671875,11.018115997314453,-0.2968810200691223,-1.1013327836990356
1733404609824681200,3.13168115234375,13.093889236450195,-0.30885201692581177,-1.3694833517074585
1733404609834690800,3.14169091796875,14.183250427246094,-0.2513911724090576,-1.3527239561080933
1733404609844670000,3.151669921875,14.2431058883667,-0.16759411990642548,-1.2689268589019775
1733404609854679800,3.1616796875,13.235146522521973,0.10534487664699554,-1.158793568611145
1733404609864689700,3.171689697265625,11.63103199005127,0.5530605912208557,-0.9959878921508789
1733404609874669000,3.1816689453125,10.283096313476562,0.9888052940368652,-0.9002198576927185
1733404609884678700,3.1916787109375,9.17936897277832,1.4508862495422363,-0.9385270476341248
1733404609894688500,3.2016884765625,8.439560890197754,1.7693150043487549,-0.9528923034667969
1733404609904667600,3.211667724609375,8.085219383239746,1.9129672050476074,-1.0007762908935547
1733404609914677500,3.221677490234375,7.841010570526123,2.027888774871826,-1.0414776802062988
1733404609924687400,3.231687255859375,7.747636795043945,1.98958158493042,-1.0414776802062988
1733404609934666500,3.24166650390625,7.864952564239502,1.9057846069335938,-1.1013327836990356
1733404609944676000,3.251676025390625,7.833827972412109,1.9967641830444336,-1.0630255937576294
1733404609954686000,3.26168603515625,7.623138427734375,2.1116859912872314,-0.849941611289978
1733404609964665000,3.2716650390625,7.383718013763428,2.0398597717285156,-0.8068459630012512
1733404609974675000,3.281675048828125,7.316680431365967,1.9823989868164062,-0.8188169598579407
1733404609984684800,3.291684814453125,7.41484260559082,1.98958158493042,-0.790086567401886
1733404609994664200,3.301664306640625,7.544129371643066,2.1068975925445557,-0.8762778043746948
1733404610004673800,3.311673828125,7.592013359069824,2.1523873805999756,-0.950498104095459
1733404610014683600,3.32168359375,7.706935405731201,2.1499931812286377,-0.9145850539207458
1733404610024662800,3.331662841796875,7.850587368011475,2.0901381969451904,-0.9433154463768005
1733404610034672400,3.34167236328125,8.281543731689453,1.944091796875,-0.8331822156906128
1733404610044682200,3.35168212890625,8.875306129455566,1.8148049116134644,-0.8355764150619507
1733404610054692000,3.361692138671875,9.497797966003418,1.6950948238372803,-0.6105214357376099
1733404610064671500,3.37167138671875,10.144232749938965,1.6519991159439087,-0.4141969084739685
1733404610074681000,3.38168115234375,10.326191902160645,1.6950948238372803,-0.3878606855869293
1733404610084691000,3.39169091796875,10.20648193359375,1.7142484188079834,-0.21308395266532898
1733404610094670000,3.401670166015625,9.99100399017334,1.678335428237915,-0.014365210197865963
1733404610104680000,3.411679931640625,9.888052940368652,1.5897499322891235,0.29209262132644653
1733404610114689500,3.421689453125,10.072406768798828,1.4676456451416016,0.47644615173339844
1733404610124669000,3.4316689453125,10.620678901672363,1.403002142906189,0.45010992884635925
1733404610134678500,3.441678466796875,11.683704376220703,1.3072341680526733,0.33758243918418884
1733404610144688400,3.4516884765625,12.837709426879883,1.2282254695892334,0.3208230137825012
1733404610154667800,3.461667724609375,13.802573204040527,1.0031704902648926,0.7445967197418213
1733404610164677400,3.471677490234375,14.302961349487305,0.8619126081466675,0.9050082564353943
1733404610174687200,3.481687255859375,14.647726058959961,0.8978256583213806,0.8882488012313843
1733404610184666600,3.49166650390625,14.61660099029541,0.9552865028381348,0.7038952708244324
1733404610194676200,3.50167626953125,14.12818431854248,1.072602391242981,0.38067805767059326
1733404610204685800,3.511685791015625,13.211204528808594,1.0845733880996704,0.15562310814857483
1733404610214665200,3.521665283203125,12.169727325439453,0.8331822156906128,0.11252748221158981
1733404610224675000,3.531675048828125,11.130643844604492,0.2513911724090576,0.14365209639072418
1733404610234684700,3.5416845703125,10.716446876525879,-0.6129156351089478,0.15562310814857483
1733404610244664000,3.5516640625,11.33654499053955,-1.3455413579940796,-0.009576806798577309
1733404610254673700,3.561673583984375,12.222399711608887,-1.7621324062347412,-0.3423708379268646
1733404610264683500,3.57168359375,12.847286224365234,-1.9919757843017578,-0.44532153010368347
1733404610274663000,3.581662841796875,12.734758377075195,-1.8555063009262085,-0.2298433631658554
1733404610284672500,3.591672607421875,11.678915977478027,-1.455674648284912,0.07422025501728058
1733404610294682400,3.601682373046875,10.14902114868164,-1.0678139925003052,0.4405331015586853
1733404610304692200,3.611692138671875,8.185775756835938,-0.6009446382522583,0.6919242739677429
1733404610314671400,3.62167138671875,6.718130111694336,-0.181959331035614,0.9744400978088379
1733404610324681200,3.63168115234375,5.394136428833008,0.272938996553421,1.192312479019165
1733404610334690800,3.64169091796875,4.611232280731201,0.5793967843055725,1.137245774269104
1733404610344670000,3.651669921875,4.548983097076416,0.629675030708313,1.2449848651885986
1733404610354679800,3.6616796875,5.202600479125977,0.40462008118629456,0.9959878921508789
1733404610364689700,3.671689697265625,6.31829833984375,-0.040701430290937424,0.7924807667732239
1733404610374668800,3.681668701171875,7.90086555480957,-0.3471592366695404,0.33758243918418884
1733404610384678700,3.6916787109375,9.433155059814453,-0.43095630407333374,0.043095629662275314
1733404610394688500,3.7016884765625,10.730812072753906,-0.4118026793003082,-0.20350714027881622
1733404610404667600,3.711667724609375,11.396400451660156,-0.3064578175544739,-0.4644751250743866
1733404610414677500,3.721677490234375,11.432312965393066,-0.07661445438861847,-0.5578489899635315
1733404610424687400,3.731687255859375,10.869675636291504,0.26575639843940735,-0.689530074596405
1733404610434666500,3.74166650390625,10.196905136108398,0.6799532771110535,-0.7254431247711182
1733404610444676000,3.751676025390625,9.423578262329102,1.0199298858642578,-0.689530074596405
1733404610454686000,3.76168603515625,8.846575736999512,1.278503656387329,-0.7493851184844971
1733404610464665000,3.7716650390625,8.437167167663574,1.436521053314209,-0.6512228846549988
1733404610474675000,3.781675048828125,8.149862289428711,1.3910311460494995,-0.3423708379268646
1733404610484684800,3.791684814453125,7.934384346008301,1.3694833517074585,-0.08140286058187485
1733404610494664200,3.801664306640625,7.805097579956055,1.3311761617660522,0.1364694982767105
1733404610504673800,3.811673828125,7.682993412017822,1.2497732639312744,0.4908113479614258
1733404610514683600,3.82168359375,7.694964408874512,1.216254472732544,0.6416460275650024
1733404610524662800,3.831662841796875,7.766790390014648,1.259350061416626,0.646434485912323
1733404610534672400,3.84167236328125,7.879317760467529,1.3000515699386597,0.6631938815116882
1733404610544682200,3.85168212890625,7.939172744750977,1.4077905416488647,0.6967126727104187
1733404610554692000,3.861692138671875,7.996633529663086,1.4676456451416016,0.7805097699165344
1733404610564671500,3.87167138671875,8.125920295715332,1.4844050407409668,0.8547300100326538
1733404610574681000,3.88168115234375,8.281543731689453,1.50355863571167,0.9481038451194763
1733404610584691000,3.89169091796875,8.528146743774414,1.455674648284912,0.9528923034667969
1733404610594670000,3.901670166015625,8.959102630615234,1.436521053314209,0.849941611289978
1733404610604680000,3.911679931640625,9.404424667358398,1.4269442558288574,0.7493851184844971
1733404610614689500,3.921689453125,9.883264541625977,1.501164436340332,0.5027823448181152
1733404610624669000,3.9316689453125,10.168174743652344,1.5179238319396973,0.304063618183136
1733404610634678500,3.941678466796875,10.249577522277832,1.6184803247451782,0.16759411990642548
1733404610644688400,3.9516884765625,10.108319282531738,1.7405846118927002,0.08379705995321274
1733404610654667800,3.961667724609375,9.821015357971191,1.8914192914962769,0.05506663769483566
1733404610664677400,3.971677490234375,9.485827445983887,1.9560627937316895,-0.016759412363171577
1733404610674687200,3.981687255859375,9.265560150146484,1.9608511924743652,-0.10534487664699554
1733404610684666600,3.99166650390625,9.30386734008789,1.9321208000183105,-0.19393034279346466
1733404610694676200,4.00167626953125,9.576807022094727,1.7334020137786865,-0.22026655077934265
1733404610704685800,4.011685791015625,10.271124839782715,1.5322890281677246,-0.2082955539226532
1733404610714665200,4.021665283203125,11.18092155456543,1.2330138683319092,-0.12210428714752197
1733404610724675000,4.031675048828125,12.289437294006348,1.0342950820922852,-0.2082955539226532
1733404610734684700,4.0416845703125,13.12501335144043,0.9959878921508789,-0.3926490843296051
1733404610744664000,4.0516640625,13.524845123291016,1.1899182796478271,-0.8786720037460327
1733404610754673700,4.061673583984375,13.453019142150879,1.3215993642807007,-1.4867992401123047
1733404610764683500,4.07168359375,12.926295280456543,1.4197616577148438,-1.7118542194366455
1733404610774663000,4.081662841796875,12.303802490234375,1.7836803197860718,-1.867477297782898
1733404610784672500,4.091672607421875,11.693281173706055,1.9800047874450684,-1.9249382019042969
1733404610794682400,4.101682373046875,10.917559623718262,1.7860745191574097,-1.8100165128707886
1733404610804661800,4.111661865234375,10.551246643066406,1.1109095811843872,-1.359906554222107
1733404610814671400,4.12167138671875,10.805032730102539,-0.26336219906806946,-0.6607996821403503
1733404610824681200,4.13168115234375,11.798625946044922,-1.886630892753601,-0.08140286058187485
1733404610834690800,4.14169091796875,13.632584571838379,-3.35667085647583,0.05746084079146385
1733404610844670000,4.151669921875,15.58864688873291,-3.8307228088378906,-0.3711012601852417
1733404610854679800,4.1616796875,17.336414337158203,-3.426102638244629,-1.0630255937576294
1733404610864689700,4.171689697265625,17.300500869750977,-2.5306711196899414,-1.647210717201233
1733404610874668800,4.181668701171875,15.286977767944336,-1.802833914756775,-2.0470423698425293
1733404610884678700,4.1916787109375,11.959037780761719,-1.115697979927063,-2.169146776199341
1733404610894688500,4.2016884765625,8.892065048217773,-0.7493851184844971,-1.7190368175506592
1733404610904667600,4.211667724609375,5.477933406829834,-0.2777273952960968,-1.0821791887283325
1733404610914677500,4.221677490234375,2.9544448852539062,0.038307227194309235,-1.048660397529602
1733404610924687400,4.231687255859375,1.1659762859344482,-0.021547814831137657,-1.2976573705673218
1733404610934666500,4.24166650390625,0.8451532125473022,0.768538773059845,-0.33518823981285095
1733404610944676000,4.251676025390625,2.3080103397369385,0.2825157940387726,0.3926490843296051
1733404610954686000,4.26168603515625,4.185064792633057,0.13407529890537262,0.40940847992897034
1733404610964665000,4.2716650390625,6.370970726013184,-0.06224924325942993,0.3974374830722809
1733404610974675000,4.281675048828125,8.233659744262695,-0.17238251864910126,0.304063618183136
1733404610984684800,4.291684814453125,9.497797966003418,-0.20350714027881622,0.14844051003456116
1733404610994664200,4.301664306640625,10.582371711730957,-0.3016694188117981,0.18914192914962769
1733404611004673800,4.311673828125,11.130643844604492,-0.26336219906806946,0.14604631066322327
1733404611014683600,4.32168359375,11.382035255432129,-0.043095629662275314,0.05027823522686958
1733404611024662800,4.331662841796875,11.314997673034668,0.22505496442317963,-0.05746084079146385
1733404611034672400,4.34167236328125,10.862493515014648,0.45010992884635925,-0.17956513166427612
1733404611044682200,4.35168212890625,10.18493366241455,0.6320692300796509,-0.22266076505184174
1733404611054692000,4.361692138671875,9.339780807495117,0.8523358106613159,-0.17238251864910126
1733404611064671500,4.37167138671875,8.669404029846191,1.0678139925003052,-0.19393034279346466
1733404611074681000,4.38168115234375,8.008605003356934,1.2832920551300049,-0.17717093229293823
1733404611084691000,4.39169091796875,7.627926826477051,1.381454348564148,-0.10773907601833344
1733404611094670000,4.401670166015625,7.5848307609558105,1.482010841369629,-0.06703764945268631
1733404611104680000,4.411679931640625,7.661445617675781,1.5418659448623657,-0.08140286058187485
1733404611114689500,4.421689453125,7.7428483963012695,1.5394717454910278,-0.09576806426048279
1733404611124669000,4.4316689453125,7.951143741607666,1.4891934394836426,-0.11013327538967133
1733404611134678500,4.441678466796875,8.164227485656738,1.4460978507995605,-0.22744916379451752
1733404611144688400,4.4516884765625,8.40843677520752,1.3431471586227417,-0.3447650372982025
1733404611154667800,4.461667724609375,8.698134422302246,1.3048399686813354,-0.4692635238170624
1733404611164677400,4.471677490234375,9.05487060546875,1.2473790645599365,-0.5746083855628967
1733404611174687200,4.481687255859375,9.32541561126709,1.194706678390503,-0.6727706789970398
1733404611184666600,4.49166650390625,9.607931137084961,1.1659762859344482,-0.7565677165985107
1733404611194676200,4.50167626953125,9.749189376831055,1.2258312702178955,-0.751779317855835
1733404611204685800,4.511685791015625,9.801861763000488,1.3096283674240112,-0.6272808313369751
1733404611214665200,4.521665283203125,9.758766174316406,1.434126853942871,-0.5147533416748047
1733404611224675000,4.531675048828125,9.682151794433594,1.4891934394836426,-0.4620809257030487
1733404611234684700,4.5416845703125,9.713275909423828,1.5179238319396973,-0.31842881441116333
1733404611244664000,4.5516640625,9.904812812805176,1.3766659498214722,-0.1412578970193863
1733404611254673700,4.561673583984375,10.199298858642578,1.1779472827911377,0.047884032130241394
1733404611264683500,4.57168359375,10.639832496643066,1.036689281463623,0.1843535304069519
1733404611274663000,4.581662841796875,11.386823654174805,0.8906430602073669,0.1867477297782898
1733404611284672500,4.591672607421875,12.045228958129883,0.7852981686592102,0.1628057211637497
1733404611294682400,4.601682373046875,12.689269065856934,0.608127236366272,0.19393034279346466
1733404611304692200,4.611692138671875,13.017274856567383,0.3256114423274994,0.5051765441894531
1733404611314671400,4.62167138671875,13.232752799987793,0.22505496442317963,0.8475474119186401
1733404611324681200,4.63168115234375,13.651738166809082,0.44771572947502136,1.072602391242981
1733404611334690800,4.64169091796875,14.00607967376709,0.768538773059845,1.1085153818130493
1733404611344670000,4.651669921875,14.101847648620605,1.2042834758758545,0.9433154463768005
1733404611354679800,4.6616796875,13.761871337890625,1.3120225667953491,0.9409212470054626
1733404611364689700,4.671689697265625,13.12501335144043,0.8020575642585754,1.1851298809051514
1733404611374668800,4.681668701171875,12.72757625579834,-0.24420857429504395,1.3527239561080933
1733404611384678700,4.6916787109375,12.780248641967773,-1.4413094520568848,0.8379706144332886
1733404611394688500,4.7016884765625,13.340492248535156,-2.10210919380188,-0.1173158809542656
1733404611404667600,4.711667724609375,13.761871337890625,-2.4396915435791016,-0.7134721279144287
1733404611414677500,4.721677490234375,13.316550254821777,-2.2026655673980713,-0.6584054827690125
1733404611424687400,4.731687255859375,12.124237060546875,-1.9800047874450684,-0.26336219906806946
1733404611434666500,4.74166650390625,10.02691650390625,-1.6424223184585571,0.2849099934101105
1733404611444676000,4.751676025390625,7.766790390014648,-1.2330138683319092,0.7829039692878723
1733404611454686000,4.76168603515625,5.3797712326049805,-0.6799532771110535,1.3048399686813354
1733404611464665000,4.7716650390625,3.5625722408294678,-0.05267243832349777,1.4772224426269531
1733404611474675000,4.781675048828125,2.250549554824829,0.4908113479614258,1.6519991159439087
1733404611484684800,4.791684814453125,1.867477297782898,0.6488286852836609,1.9057846069335938
1733404611494664200,4.801664306640625,2.647987127304077,0.47405192255973816,1.764526605606079
1733404611504673800,4.811673828125,4.247313976287842,0.0694318488240242,1.0678139925003052
1733404611514683600,4.82168359375,6.572083473205566,-0.3519476354122162,0.5003881454467773
1733404611524662800,4.831662841796875,8.96389102935791,-0.47644615173339844,0.06703764945268631
1733404611534672400,4.84167236328125,10.848128318786621,-0.4836287498474121,-0.47165772318840027
1733404611544682200,4.85168212890625,12.401965141296387,-0.4620809257030487,-0.9744400978088379
1733404611554692000,4.861692138671875,13.077129364013672,-0.40940847992897034,-1.1971008777618408
1733404611564671500,4.87167138671875,13.103466033935547,-0.16759411990642548,-1.3407529592514038
1733404611574681000,4.88168115234375,12.54561710357666,0.11013327538967133,-1.2737152576446533
1733404611584691000,4.89169091796875,11.473014831542969,0.4405331015586853,-0.9720458984375
1733404611594670000,4.901670166015625,10.405200958251953,0.768538773059845,-0.7661445140838623
1733404611604680000,4.911679931640625,9.385271072387695,1.0821791887283325,-0.5626373887062073
1733404611614689500,4.921689453125,8.702922821044922,1.2665326595306396,-0.36152446269989014
1733404611624669000,4.9316689453125,8.20492935180664,1.3623007535934448,-0.08140286058187485
1733404611634678500,4.941678466796875,7.8314337730407715,1.3694833517074585,0.12210428714752197
1733404611644688400,4.9516884765625,7.539340972900391,1.3670891523361206,0.1867477297782898
1733404611654667800,4.961667724609375,7.223306655883789,1.3335703611373901,0.29209262132644653
1733404611664677400,4.971677490234375,6.971915245056152,1.2449848651885986,0.3471592366695404
1733404611674687200,4.981687255859375,6.756437301635742,1.1468225717544556,0.4572925269603729
1733404611684666600,4.99166650390625,6.823474884033203,1.1635819673538208,0.49799394607543945
1733404611694676200,5.00167626953125,7.0988078117370605,1.1851298809051514,0.5985504388809204
1733404611704685800,5.011685791015625,7.453149795532227,1.1899182796478271,0.6584054827690125
1733404611714665200,5.021665283203125,7.706935405731201,1.2066776752471924,0.6703764796257019
1733404611724675000,5.031675048828125,7.955932140350342,1.2641384601593018,0.6655880808830261
1733404611734684700,5.0416845703125,8.245630264282227,1.359906554222107,0.7110779285430908
1733404611744664000,5.0516640625,8.556877136230469,1.4413094520568848,0.7422025203704834
1733404611754673700,5.061673583984375,8.920795440673828,1.4652514457702637,0.6703764796257019
1733404611764683500,5.07168359375,9.306262016296387,1.522712230682373,0.6153098344802856
1733404611774663000,5.081662841796875,9.821015357971191,1.6328455209732056,0.6153098344802856
1733404611784672500,5.091672607421875,10.45547866821289,1.8100165128707886,0.49799394607543945
1733404611794682400,5.101682373046875,10.781089782714844,1.8626888990402222,0.3926490843296051
1733404611804692200,5.111692138671875,10.737994194030762,1.8818424940109253,0.608127236366272
1733404611814671400,5.12167138671875,10.515334129333496,1.8722656965255737,0.6440402865409851
1733404611824681200,5.13168115234375,10.29746150970459,1.7405846118927002,0.790086567401886
1733404611834690800,5.14169091796875,10.335768699645996,1.5610195398330688,0.9002198576927185
1733404611844670000,5.151669921875,10.879252433776855,1.192312479019165,0.8834604024887085
1733404611854679800,5.1616796875,11.892000198364258,0.8451532125473022,0.706289529800415
1733404611864689700,5.171689697265625,13.115436553955078,0.7733271718025208,0.5027823448181152
1733404611874668800,5.181668701171875,14.322114944458008,1.0007762908935547,-0.0694318488240242
1733404611884678700,5.1916787109375,15.004462242126465,1.400607943534851,-0.790086567401886
1733404611894688500,5.2016884765625,15.004462242126465,1.7597382068634033,-1.4700398445129395
1733404611904667600,5.211667724609375,14.216769218444824,1.9129672050476074,-1.6496049165725708
1733404611914677500,5.221677490234375,13.120224952697754,2.2433669567108154,-1.7118542194366455
1733404611924687400,5.231687255859375,12.351686477661133,2.561795711517334,-1.900996208190918
1733404611934666500,5.24166650390625,11.60948371887207,2.454056739807129,-2.140416383743286
1733404611944676000,5.251676025390625,11.037269592285156,1.8483237028121948,-2.2840683460235596
1733404611954686000,5.26168603515625,10.924742698669434,0.35913026332855225,-1.8938134908676147
1733404611964665000,5.2716650390625,11.487380027770996,-1.7094600200653076,-1.0749965906143188
1733404611974675000,5.281675048828125,12.595894813537598,-3.3518824577331543,-0.38546648621559143
1733404611984684800,5.291684814453125,14.326903343200684,-4.352658748626709,-0.2059013396501541
1733404611994664200,5.301664306640625,15.782577514648438,-4.271255970001221,-0.8690952062606812
1733404612004687000,5.31168701171875,16.055517196655273,-3.794809579849243,-1.9033904075622559
1733404612014683600,5.32168359375,14.743494033813477,-3.35667085647583,-2.4157495498657227
1733404612024662800,5.331662841796875,12.258312225341797,-2.5043349266052246,-2.4013843536376953
1733404612034672400,5.34167236328125,9.299078941345215,-1.8267759084701538,-2.1547815799713135
1733404612044682200,5.35168212890625,5.595249176025391,-1.192312479019165,-1.6927006244659424
1733404612054692000,5.361692138671875,2.4420857429504395,-0.5363011956214905,-1.0630255937576294
1733404612064671500,5.37167138671875,-0.2944868206977844,0.22266076505184174,-0.29209262132644653
1733404612074894600,5.38189453125,-1.742978811264038,0.689530074596405,0.2753331959247589
1733404612084691000,5.39169091796875,-1.5873557329177856,0.7805097699165344,0.5003881454467773
1733404612094670000,5.401670166015625,0.6727706789970398,0.689530074596405,0.7374141216278076
1733404612104680000,5.411679931640625,3.4572272300720215,0.47884035110473633,0.49559974670410156
1733404612114689500,5.421689453125,6.833051681518555,0.2513911724090576,-0.2849099934101105
1733404612124669000,5.4316689453125,9.725247383117676,0.07900865375995636,-0.7637503147125244
1733404612134678500,5.441678466796875,12.471396446228027,-0.026336219161748886,-1.290474772453308
1733404612144688400,5.4516884765625,14.12818431854248,-0.05985504388809204,-1.5610195398330688
1733404612154667800,5.461667724609375,14.733917236328125,-0.0694318488240242,-1.6639702320098877
1733404612164677400,5.471677490234375,14.2431058883667,-0.040701430290937424,-1.5131354331970215
1733404612174687200,5.481687255859375,12.876016616821289,0.12928688526153564,-1.1683704853057861
1733404612184666600,5.49166650390625,11.058817863464355,0.33997663855552673,-1.0055646896362305
1733404612194676200,5.50167626953125,9.600749015808105,0.6272808313369751,-0.9074024558067322
1733404612204685800,5.511685791015625,8.516175270080566,0.9385270476341248,-0.6584054827690125
1733404612214665200,5.521665283203125,7.989450931549072,1.1085153818130493,-0.4572925269603729
1733404612224675000,5.531675048828125,7.812280178070068,1.290474772453308,-0.2825157940387726
1733404612234684700,5.5416845703125,7.790732383728027,1.400607943534851,-0.22744916379451752
1733404612244664000,5.5516640625,7.773972988128662,1.4891934394836426,-0.2513911724090576
1733404612254673700,5.561673583984375,7.690176010131836,1.53707754611969,-0.23702596127986908
1733404612264683500,5.57168359375,7.690176010131836,1.5466543436050415,-0.22505496442317963
1733404612274663000,5.581662841796875,7.800309181213379,1.479616641998291,-0.19393034279346466
1733404612284672500,5.591672607421875,7.893682956695557,1.4245500564575195,-0.14365209639072418
1733404612294682400,5.601682373046875,7.970297336578369,1.403002142906189,-0.17477671802043915
1733404612304692200,5.611692138671875,8.106766700744629,1.3838485479354858,-0.17956513166427612
1733404612314671400,5.62167138671875,8.4108304977417,1.359906554222107,-0.13407529890537262
1733404612324681200,5.63168115234375,8.7484130859375,1.3766659498214722,-0.17717093229293823
1733404612334690800,5.64169091796875,9.078812599182129,1.4891934394836426,-0.20350714027881622
1733404612344670000,5.651669921875,9.32541561126709,1.5921441316604614,-0.17238251864910126
1733404612354679800,5.6616796875,9.433155059814453,1.7190368175506592,-0.29209262132644653
1733404612364689700,5.671689697265625,9.485827445983887,1.8052281141281128,-0.3232172429561615
1733404612374668800,5.681668701171875,9.552865028381348,1.7381904125213623,-0.23942017555236816
1733404612384678700,5.6916787109375,9.75397777557373,1.7310078144073486,-0.09576806426048279
1733404612394688500,5.7016884765625,10.074800491333008,1.5203180313110352,0.004788403399288654
1733404612404667600,5.711667724609375,10.467450141906738,1.235408067703247,0.090979665517807
1733404612414677500,5.721677490234375,11.001357078552246,0.9217676520347595,0.11252748221158981
1733404612424687400,5.731687255859375,11.841721534729004,0.5961562395095825,0.043095629662275314
1733404612434666500,5.74166650390625,12.622231483459473,0.5099649429321289,-0.07182604819536209
1733404612444676000,5.751676025390625,13.352462768554688,0.6033388376235962,-0.05506663769483566
1733404612454686000,5.76168603515625,13.649343490600586,0.7876923680305481,0.21547815203666687
1733404612464665000,5.7716650390625,13.417106628417969,0.9002198576927185,0.5913678407669067
1733404612474675000,5.781675048828125,13.077129364013672,0.9624691009521484,1.01753568649292
1733404612484684800,5.791684814453125,12.880805015563965,1.3024457693099976,1.158793568611145
1733404612494664200,5.801664306640625,12.914323806762695,1.7166426181793213,0.9481038451194763
1733404612504673800,5.811673828125,12.957419395446777,1.7070658206939697,0.950498104095459
1733404612514683600,5.82168359375,12.837709426879883,0.9600749015808105,0.9983820915222168
1733404612524662800,5.831662841796875,12.746729850769043,-0.22505496442317963,1.091755986213684
1733404612534672400,5.84167236328125,13.096282958984375,-1.522712230682373,0.768538773059845
1733404612544682200,5.85168212890625,13.704410552978516,-2.3702597618103027,0.06703764945268631
1733404612554692000,5.861692138671875,14.413094520568848,-2.8443117141723633,-0.5410895943641663
1733404612564671200,5.871671142578125,14.556746482849121,-2.7724854946136475,-0.3711012601852417
1733404612574681000,5.88168115234375,13.539210319519043,-2.4181437492370605,0.040701430290937424
1733404612584691000,5.89169091796875,11.729193687438965,-2.0446481704711914,0.4884171485900879
1733404612594670000,5.901670166015625,9.17697525024414,-1.5083470344543457,0.9552865028381348
1733404612604680000,5.911679931640625,6.907271862030029,-0.9193734526634216,1.1252747774124146
1733404612614689500,5.921689453125,4.6255974769592285,-0.27054479718208313,1.2018892765045166
1733404612624669000,5.9316689453125,2.980781078338623,0.33997663855552673,1.5825673341751099
1733404612634678500,5.941678466796875,2.2697031497955322,0.5363011956214905,1.7573440074920654
1733404612644688400,5.9516884765625,2.300827741622925,0.5506663918495178,1.699883222579956
1733404612654667800,5.961667724609375,3.2824504375457764,0.4141969084739685,1.4101848602294922
1733404612664677400,5.971677490234375,4.917690277099609,0.1628057211637497,0.9624691009521484
1733404612674687200,5.981687255859375,6.672640323638916,-0.06703764945268631,0.7493851184844971
1733404612684666600,5.99166650390625,8.655038833618164,-0.08379705995321274,0.2944868206977844
1733404612694676200,6.00167626953125,10.165780067443848,0.016759412363171577,-0.17238251864910126
1733404612704686000,6.01168603515625,11.504138946533203,0.08619125932455063,-0.6200982332229614
1733404612714665200,6.021665283203125,12.143390655517578,0.19871874153614044,-0.8954314589500427
1733404612724675000,6.031675048828125,12.102689743041992,0.3471592366695404,-1.0582371950149536
1733404612734684700,6.0416845703125,11.461043357849121,0.6153098344802856,-1.070208191871643
1733404612744664000,6.0516640625,10.60391902923584,0.7829039692878723,-0.9457096457481384
1733404612754673700,6.061673583984375,9.737217903137207,0.9433154463768005,-0.7398083209991455
1733404612764683500,6.07168359375,9.169792175292969,1.0845733880996704,-0.524330198764801
1733404612774663000,6.081662841796875,8.719682693481445,1.1276689767837524,-0.2992752194404602
1733404612784672500,6.091672607421875,8.422801971435547,1.0989385843276978,-0.1388636976480484
1733404612794682400,6.101682373046875,8.142680168151855,1.1563993692398071,-0.12210428714752197
1733404612804692200,6.111692138671875,7.864952564239502,1.2018892765045166,0.026336219161748886
1733404612814671400,6.12167138671875,7.601590633392334,1.2330138683319092,0.18914192914962769
1733404612824681200,6.13168115234375,7.347805023193359,1.2401964664459229,0.2777273952960968
1733404612834690800,6.14169091796875,6.9695210456848145,1.3192051649093628,0.42856210470199585
1733404612844670000,6.151669921875,6.722918510437012,1.3120225667953491,0.646434485912323
1733404612854679800,6.1616796875,6.672640323638916,1.3623007535934448,0.7374141216278076
1733404612864689700,6.171689697265625,6.789956092834473,1.3527239561080933,0.8786720037460327
1733404612874668800,6.181668701171875,7.187393665313721,1.2473790645599365,0.8379706144332886
1733404612884678700,6.1916787109375,7.757213592529297,1.113303780555725,0.8451532125473022
1733404612894688500,6.2016884765625,8.429984092712402,1.0678139925003052,0.8786720037460327
1733404612904667600,6.211667724609375,9.215282440185547,1.036689281463623,0.7661445140838623
1733404612914677500,6.221677490234375,9.974244117736816,1.0271124839782715,0.5937620401382446
1733404612924687400,6.231687255859375,10.828974723815918,1.1348515748977661,0.3423708379268646
1733404612934666500,6.24166650390625,11.461043357849121,1.3048399686813354,0.17477671802043915
1733404612944676000,6.251676025390625,11.906365394592285,1.4748282432556152,0.031124621629714966
1733404612954686000,6.26168603515625,11.841721534729004,1.6208745241165161,0.08858546614646912
1733404612964665000,6.2716650390625,11.417947769165039,1.7621324062347412,0.2082955539226532
1733404612974675000,6.281675048828125,10.922348022460938,1.8938134908676147,0.38307225704193115
1733404612984684800,6.291684814453125,10.5344877243042,1.9273324012756348,0.5123591423034668
1733404612994664200,6.301664306640625,10.556035041809082,1.7573440074920654,0.6584054827690125
1733404613004673800,6.311673828125,11.039664268493652,1.5729905366897583,0.8571242094039917
1733404613014683600,6.32168359375,11.91354751586914,1.2880805730819702,1.0797849893569946
1733404613024662800,6.331662841796875,12.890381813049316,1.1252747774124146,1.0606313943862915
1733404613034672400,6.34167236328125,13.955801963806152,1.0438719987869263,0.7493851184844971
1733404613044682200,6.35168212890625,14.449007034301758,1.0414776802062988,0.12689268589019775
1733404613054692000,6.361692138671875,14.528016090393066,1.2880805730819702,-0.646434485912323
1733404613064671500,6.37167138671875,14.104242324829102,1.6711528301239014,-1.1971008777618408
1733404613074681000,6.38168115234375,13.005303382873535,1.8722656965255737,-1.4221558570861816
1733404613084691000,6.39169091796875,11.338939666748047,1.5490485429763794,-1.742978811264038
1733404613094670000,6.401670166015625,10.177751541137695,0.6488286852836609,-1.7334020137786865
1733404613104680000,6.411679931640625,9.823410034179688,-1.070208191871643,-1.0031704902648926
1733404613114689500,6.421689453125,10.678139686584473,-2.7078421115875244,-0.6536170840263367
1733404613124669000,6.4316689453125,12.49055004119873,-4.266467571258545,-0.5291185975074768
1733404613134678500,6.441678466796875,14.618995666503906,-4.898536682128906,-1.01753568649292
1733404613144688400,6.4516884765625,16.46731948852539,-4.3861775398254395,-1.9177556037902832
1733404613154667800,6.461667724609375,16.64688491821289,-3.397372245788574,-2.205059766769409
1733404613164677400,6.471677490234375,14.753070831298828,-2.537853717803955,-2.2673089504241943
1733404613174687200,6.481687255859375,11.532869338989258,-1.53707754611969,-2.276885747909546
1733404613184666600,6.49166650390625,8.08282470703125,-0.8092401623725891,-2.0901381969451904
1733404613194676200,6.50167626953125,3.9911341667175293,-0.0071826050989329815,-1.4652514457702637
1733404613204686000,6.51168603515625,0.849941611289978,0.8523358106613159,-0.8427590131759644
1733404613214665200,6.521665283203125,-1.678335428237915,1.4293384552001953,-0.22744916379451752
1733404613224675000,6.531675048828125,-2.470816135406494,1.4413094520568848,0.10055647045373917
1733404613234684700,6.5416845703125,-1.2689268589019775,1.1803414821624756,0.21308395266532898
1733404613244664000,6.5516640625,1.436521053314209,0.8044517636299133,0.1628057211637497
1733404613254673700,6.561673583984375,5.197812080383301,0.14365209639072418,0.021547814831137657
1733404613264683500,6.57168359375,8.520963668823242,-0.37828385829925537,-0.2322375625371933
1733404613274663000,6.581662841796875,11.88002872467041,-0.8427590131759644,-0.45010992884635925
1733404613284672500,6.591672607421875,14.774619102478027,-0.9816226959228516,-0.5961562395095825
1733404613294682400,6.601682373046875,16.033967971801758,-1.0582371950149536,-0.6224924325942993
1733404613304692200,6.611692138671875,15.993267059326172,-1.1300631761550903,-0.47644615173339844
1733404613314671400,6.62167138671875,14.800954818725586,-0.9433154463768005,-0.26336219906806946
1733404613324681200,6.63168115234375,12.876016616821289,-0.4644751250743866,-0.07900865375995636
1733404613334690800,6.64169091796875,11.200075149536133,-0.023942016065120697,0.24899697303771973
1733404613344670000,6.651669921875,9.919178009033203,0.31603461503982544,0.3926490843296051
1733404613354679800,6.6616796875,9.229647636413574,0.6727706789970398,0.5171475410461426
1733404613364689700,6.671689697265625,8.743624687194824,1.0319008827209473,0.6560112833976746
1733404613374668800,6.681668701171875,8.348581314086914,1.137245774269104,0.7086837291717529
1733404613384678700,6.6916787109375,7.999027729034424,1.3263877630233765,0.7541735172271729
1733404613394688500,6.7016884765625,7.706935405731201,1.4437036514282227,0.7709329724311829
1733404613404667600,6.711667724609375,7.565677165985107,1.5083470344543457,0.7326257228851318
1733404613414677500,6.721677490234375,7.433996200561523,1.41257905960083,0.6248866319656372
1733404613424687400,6.731687255859375,7.716512203216553,1.2713210582733154,0.5386953949928284
1733404613434666500,6.74166650390625,8.037335395812988,0.9768342971801758,0.5434837937355042
1733404613444676000,6.751676025390625,8.446743965148926,0.7996633648872375,0.5099649429321289
1733404613454686000,6.76168603515625,8.851364135742188,0.6775590777397156,0.3519476354122162
1733404613464665000,6.7716650390625,9.136273384094238,0.6560112833976746,0.1604115068912506
1733404613474675000,6.781675048828125,9.425971984863281,0.6416460275650024,0.05985504388809204
1733404613484684800,6.791684814453125,9.500192642211914,0.7398083209991455,-0.19632454216480255
1733404613494664200,6.801664306640625,9.481039047241211,0.7996633648872375,-0.30885201692581177
1733404613504673800,6.811673828125,9.397241592407227,0.9241618514060974,-0.45250412821769714
1733404613514683600,6.82168359375,9.193734169006348,1.0558429956436157,-0.5793967843055725
1733404613524662800,6.831662841796875,9.20091724395752,1.0654197931289673,-0.5961562395095825
1733404613534672400,6.84167236328125,9.440337181091309,1.0031704902648926,-0.6871358752250671
1733404613544682200,6.85168212890625,9.797073364257812,0.8140285611152649,-0.7661445140838623
1733404613554692000,6.861692138671875,10.098742485046387,0.608127236366272,-0.9959878921508789
1733404613564671500,6.87167138671875,10.431536674499512,0.3902548849582672,-1.3239935636520386
1733404613574681000,6.88168115234375,10.848128318786621,0.6057330369949341,-1.3431471586227417
1733404613584691000,6.89169091796875,11.556811332702637,0.9792284965515137,-1.1061211824417114
1733404613594670000,6.901670166015625,12.236764907836914,1.0462661981582642,-1.4772224426269531
1733404613604680000,6.911679931640625,12.935872077941895,1.2617442607879639,-0.6560112833976746
1733404613614689500,6.921689453125,12.775460243225098,1.3479355573654175,-1.0558429956436157
1733404613624669000,6.9316689453125,12.378023147583008,1.5610195398330688,-0.9672574996948242
1733404613634678500,6.941678466796875,11.60948371887207,1.9033904075622559,-0.9313444495201111
1733404613644688400,6.9516884765625,10.958261489868164,1.6328455209732056,-0.8044517636299133
1733404613654667800,6.961667724609375,10.682928085327148,0.6009446382522583,-0.47165772318840027
1733404613664677400,6.971677490234375,11.403582572937012,-0.4812345504760742,-0.06703764945268631
1733404613674687200,6.981687255859375,12.87362289428711,-1.5490485429763794,0.13168109953403473
1733404613684666600,6.99166650390625,14.305355072021484,-2.2649147510528564,-0.19393034279346466
1733404613694676200,7.00167626953125,15.82567310333252,-2.58813214302063,-0.8738836050033569
1733404613704686000,7.01168603515625,16.369157791137695,-2.4899697303771973,-1.1827356815338135
1733404613714665200,7.021665283203125,15.01164436340332,-1.9512743949890137,-1.139639973640442
1733404613724675000,7.031675048828125,12.51449203491211,-1.2258312702178955,-0.9193734526634216
1733404613734684700,7.0416845703125,10.17296314239502,-0.5386953949928284,-0.5315127968788147
1733404613744663800,7.051663818359375,7.457938194274902,0.13407529890537262,-0.05506663769483566
1733404613754673700,7.061673583984375,5.408501625061035,0.6248866319656372,0.09576806426048279
1733404613764683500,7.07168359375,3.773261785507202,1.0271124839782715,0.24899697303771973
1733404613774663000,7.081662841796875,3.155557870864868,1.2713210582733154,0.33758243918418884
1733404613784672500,7.091672607421875,3.3494882583618164,1.173158884048462,0.4572925269603729
1733404613794682400,7.101682373046875,4.20421838760376,0.8667010068893433,0.5315127968788147
1733404613804692200,7.111692138671875,5.60722017288208,0.45489832758903503,0.33518823981285095
1733404613814671400,7.12167138671875,6.950367450714111,0.12689268589019775,0.24899697303771973
1733404613824681200,7.13168115234375,8.382100105285645,-0.021547814831137657,0.11252748221158981
1733404613834690800,7.14169091796875,9.682151794433594,0.05506663769483566,-0.004788403399288654
1733404613844670000,7.151669921875,10.76193618774414,0.21547815203666687,-0.11252748221158981
1733404613854679800,7.1616796875,11.592724800109863,0.3064578175544739,-0.22505496442317963
1733404613864689700,7.171689697265625,11.834539413452148,0.47405192255973816,-0.4572925269603729
1733404613874668800,7.181668701171875,11.707646369934082,0.646434485912323,-0.6009446382522583
1733404613884678700,7.1916787109375,11.231200218200684,0.751779317855835,-0.5913678407669067
1733404613894688500,7.2016884765625,10.532093048095703,0.8236053586006165,-0.5961562395095825
1733404613904667600,7.211667724609375,9.974244117736816,0.8954314589500427,-0.5913678407669067
1733404613914677500,7.221677490234375,9.548076629638672,0.933738648891449,-0.5578489899635315
1733404613924687400,7.231687255859375,9.129091262817383,0.9241618514060974,-0.5602431893348694
1733404613934666500,7.24166650390625,8.669404029846191,0.8930372595787048,-0.5339069962501526
1733404613944676000,7.251676025390625,8.324639320373535,0.849941611289978,-0.40701428055763245
1733404613954686000,7.26168603515625,8.039729118347168,0.8547300100326538,-0.3878606855869293
1733404613964665000,7.2716650390625,7.843404769897461,0.7948749661445618,-0.22026655077934265
1733404613974675000,7.281675048828125,8.030152320861816,0.7541735172271729,-0.05985504388809204
1733404613984684800,7.291684814453125,8.372523307800293,0.6272808313369751,0.019153613597154617
1733404613994664200,7.301664306640625,8.853757858276367,0.5027823448181152,0.05027823522686958
1733404614004673800,7.311673828125,9.378087997436523,0.45010992884635925,0.031124621629714966
1733404614014683600,7.32168359375,9.75637149810791,0.43095630407333374,0.047884032130241394
1733404614024662800,7.331662841796875,9.998186111450195,0.4118026793003082,-0.05027823522686958
1733404614034672400,7.34167236328125,10.067618370056152,0.49320554733276367,-0.16759411990642548
1733404614044682200,7.35168212890625,9.995792388916016,0.5674257874488831,-0.33758243918418884
1733404614054692000,7.361692138671875,9.859322547912598,0.5817909836769104,-0.3711012601852417
1733404614064671500,7.37167138671875,9.8784761428833,0.5267243981361389,-0.28730419278144836
1733404614074681000,7.38168115234375,9.971850395202637,0.3711012601852417,-0.2322375625371933
1733404614084691000,7.39169091796875,10.11550235748291,0.2537853717803955,-0.2346317619085312
1733404614094670000,7.401670166015625,10.493785858154297,0.1149216815829277,-0.15562310814857483
1733404614104680000,7.411679931640625,10.795455932617188,0.07182604819536209,-0.08858546614646912
1733404614114689500,7.421689453125,10.977415084838867,0.0933738648891449,-0.016759412363171577
1733404614124669000,7.4316689453125,10.99896240234375,0.2753331959247589,0.021547814831137657
1733404614134678500,7.441678466796875,10.819397926330566,0.5626373887062073,-0.1412578970193863
1733404614144688400,7.4516884765625,10.565611839294434,0.8427590131759644,-0.4405331015586853
1733404614154667800,7.461667724609375,10.163386344909668,1.0223240852355957,-0.7350199222564697
1733404614164677400,7.471677490234375,9.481039047241211,1.113303780555725,-1.1348515748977661
1733404614174687200,7.481687255859375,8.892065048217773,1.070208191871643,-1.4389152526855469
1733404614184666600,7.49166650390625,8.628703117370605,0.9816226959228516,-1.7094600200653076
1733404614194676200,7.50167626953125,8.62630844116211,0.8978256583213806,-1.9057846069335938
1733404614204686000,7.51168603515625,8.9064302444458,0.8523358106613159,-2.0422539710998535
1733404614214665200,7.521665283203125,9.172186851501465,0.7709329724311829,-2.0638017654418945
1733404614224675000,7.531675048828125,9.421183586120605,0.7398083209991455,-2.078166961669922
1733404614234684700,7.5416845703125,9.588777542114258,0.7134721279144287,-2.0446481704711914
1733404614244664000,7.5516640625,9.5408935546875,0.6392518281936646,-2.142810583114624
1733404614254673700,7.561673583984375,9.47146224975586,0.5482721924781799,-2.073378562927246
1733404614264683500,7.57168359375,9.38048267364502,0.4213795065879822,-2.121262788772583
1733404614274663000,7.581662841796875,9.35654067993164,0.2992752194404602,-2.4875755310058594
1733404614284672500,7.591672607421875,9.349357604980469,0.09816227108240128,-2.4660277366638184
1733404614294682400,7.601682373046875,9.188945770263672,0.08140286058187485,-2.695871114730835
1733404614304692200,7.611692138671875,8.954314231872559,-0.004788403399288654,-2.7916390895843506
1733404614314671400,7.62167138671875,8.774748802185059,-0.05985504388809204,-2.873042106628418
1733404614324681200,7.63168115234375,8.734047889709473,-0.1173158809542656,-2.8850131034851074
1733404614334690800,7.64169091796875,8.810662269592285,-0.1628057211637497,-2.8658595085144043
1733404614344670000,7.651669921875,9.188945770263672,-0.1867477297782898,-2.894589900970459
1733404614354679800,7.6616796875,9.75637149810791,-0.21308395266532898,-3.0166940689086914
1733404614364689700,7.671689697265625,10.168174743652344,-0.1843535304069519,-3.136404275894165
1733404614374668800,7.681668701171875,10.381258964538574,-0.21547815203666687,-3.117250680923462
1733404614384678700,7.6916787109375,10.45547866821289,-0.3280056416988373,-3.0119056701660156
1733404614394688500,7.7016884765625,10.438719749450684,-0.3687070608139038,-2.9448680877685547
1733404614404667600,7.711667724609375,10.273519515991211,-0.5171475410461426,-2.8826189041137695
1733404614414677500,7.721677490234375,10.11789608001709,-0.7086837291717529,-2.7533318996429443
1733404614424687400,7.731687255859375,9.923966407775879,-0.9145850539207458,-2.499546527862549
1733404614434666500,7.74166650390625,9.75637149810791,-1.0773907899856567,-2.5091233253479004
1733404614444676000,7.751676025390625,9.53849983215332,-1.2258312702178955,-2.341529369354248
1733404614454686000,7.76168603515625,9.397241592407227,-1.2880805730819702,-2.298433542251587
1733404614464665000,7.7716650390625,9.354146003723145,-1.3766659498214722,-2.1475989818573
1733404614474675000,7.781675048828125,9.41639518737793,-1.501164436340332,-2.2146365642547607
1733404614484684800,7.791684814453125,9.44991397857666,-1.6112977266311646,-2.4372973442077637
1733404614494664200,7.801664306640625,9.68694019317627,-1.6879122257232666,-2.7988216876983643
1733404614504673800,7.811673828125,10.132261276245117,-1.7836803197860718,-2.999934673309326
1733404614514683600,7.82168359375,11.02051067352295,-3.2776620388031006,-6.167463779449463
1733404614524662800,7.831662841796875,11.473014831542969,-2.1763293743133545,-3.6727054119110107
1733404614534672400,7.84167236328125,10.38844108581543,-1.647210717201233,-0.9528923034667969
1733404614544682200,7.85168212890625,9.706093788146973,-1.6496049165725708,-0.7158663272857666
1733404614554692000,7.861692138671875,9.433155059814453,-1.2210428714752197,-0.9672574996948242
1733404614564671500,7.87167138671875,9.524134635925293,-1.1444283723831177,-0.5650315880775452
1733404614574681000,7.88168115234375,10.055646896362305,-1.2186486721038818,-0.35913026332855225
1733404614584691000,7.89169091796875,10.896012306213379,-1.338358759880066,-0.6440402865409851
1733404614594670000,7.901670166015625,11.88002872467041,-1.4939818382263184,-0.8236053586006165
1733404614604680000,7.911679931640625,12.4785795211792,-1.4963760375976562,-0.8810662031173706
1733404614614689500,7.921689453125,12.686874389648438,-1.482010841369629,-0.9768342971801758
1733404614624669000,7.9316689453125,12.674903869628906,-1.3623007535934448,-1.1755530834197998
1733404614634678500,7.941678466796875,12.650961875915527,-1.2425906658172607,-1.039083480834961
1733404614644688400,7.9516884765625,12.54801082611084,-0.993593692779541,-0.7326257228851318
1733404614654667800,7.961667724609375,11.803414344787598,-0.8954314589500427,-0.5147533416748047
1733404614664677400,7.971677490234375,10.524910926818848,-0.727837324142456,-0.5746083855628967
1733404614674687200,7.981687255859375,9.66299819946289,-0.3902548849582672,0.0071826050989329815
1733404614684666600,7.99166650390625,8.899248123168945,-0.2537853717803955,0.5003881454467773
1733404614694676200,8.00167626953125,8.44195556640625,-0.28730419278144836,0.3902548849582672
1733404614704686000,8.01168603515625,8.2312650680542,-0.2753331959247589,0.23942017555236816
1733404614714665200,8.021665283203125,8.20732307434082,-0.1388636976480484,0.43095630407333374
1733404614724675000,8.031675048828125,8.279149055480957,-0.038307227194309235,0.5195417404174805
1733404614734684700,8.0416845703125,8.236053466796875,0.038307227194309235,0.40940847992897034
1733404614744664000,8.0516640625,8.238448143005371,0.09576806426048279,0.40222588181495667
1733404614754673700,8.061673583984375,8.415618896484375,0.10534487664699554,0.3471592366695404
1733404614764683500,8.07168359375,8.774748802185059,0.07661445438861847,0.2849099934101105
1733404614774663000,8.081662841796875,9.411606788635254,0.011971008032560349,0.40701428055763245
1733404614784672500,8.091672607421875,10.204087257385254,-0.11013327538967133,0.6775590777397156
1733404614794682400,8.101682373046875,11.027692794799805,-0.28969839215278625,0.9361328482627869
1733404614804692200,8.111692138671875,11.585541725158691,-0.4118026793003082,1.1037269830703735
1733404614814671400,8.12167138671875,11.91354751586914,-0.3926490843296051,1.0558429956436157
1733404614824681200,8.13168115234375,11.947066307067871,-0.27054479718208313,0.9552865028381348
1733404614834690800,8.14169091796875,11.626243591308594,-0.2513911724090576,0.8619126081466675
1733404614844670000,8.151669921875,11.042057991027832,-0.10773907601833344,0.9600749015808105
1733404614854679800,8.1616796875,10.460267066955566,0.1628057211637497,1.2401964664459229
1733404614864689700,8.171689697265625,9.93593692779541,0.40222588181495667,1.6136919260025024
1733404614874668800,8.181668701171875,9.66299819946289,0.5003881454467773,1.8986018896102905
1733404614884678700,8.1916787109375,9.533711433410645,0.6224924325942993,2.212242364883423
1733404614894688500,8.2016884765625,9.519346237182617,0.7565677165985107,2.5067291259765625
1733404614904667600,8.211667724609375,9.44991397857666,0.8355764150619507,2.762908697128296
1733404614914677500,8.221677490234375,9.344569206237793,0.8092401623725891,3.043030261993408
1733404614924687400,8.231687255859375,9.148244857788086,0.6703764796257019,3.0550012588500977
1733404614934666500,8.24166650390625,9.153033256530762,0.5985504388809204,2.784456491470337
1733404614944676000,8.251676025390625,9.57441234588623,0.4836287498474121,2.5689783096313477
1733404614954686000,8.26168603515625,10.11550235748291,0.4620809257030487,2.33913516998291
1733404614964665000,8.2716650390625,10.60152530670166,0.44532153010368347,2.1978771686553955
1733404614974675000,8.281675048828125,10.630255699157715,0.4644751250743866,2.0661959648132324
1733404614984684800,8.291684814453125,10.302249908447266,0.6823474764823914,1.944091796875
1733404614994664200,8.301664306640625,9.672574996948242,0.9744400978088379,1.8555063009262085
1733404615004673800,8.311673828125,9.045293807983398,1.2042834758758545,1.8052281141281128
1733404615014683600,8.32168359375,8.398859977722168,1.4293384552001953,1.659181833267212
1733404615024662800,8.331662841796875,7.785943984985352,1.5179238319396973,1.6519991159439087
1733404615034672400,8.34167236328125,7.376535415649414,1.5418659448623657,1.7357962131500244
1733404615044682200,8.35168212890625,7.371747016906738,1.4245500564575195,1.6184803247451782
1733404615054692000,8.361692138671875,8.030152320861816,1.3120225667953491,1.6328455209732056
1733404615064671500,8.37167138671875,9.08838939666748,1.2952631711959839,1.6280571222305298
1733404615074681000,8.38168115234375,9.84256362915039,1.2641384601593018,1.6400281190872192
1733404615084691000,8.39169091796875,10.230423927307129,1.1803414821624756,1.501164436340332
1733404615094670000,8.401670166015625,10.177751541137695,1.3024457693099976,1.3287819623947144
1733404615104680000,8.411679931640625,9.854534149169922,1.4221558570861816,1.2761094570159912
1733404615114689500,8.421689453125,9.344569206237793,1.599326729774475,1.1444283723831177
1733404615124669000,8.4316689453125,8.927978515625,1.702277421951294,0.9648633003234863
1733404615134678500,8.441678466796875,8.676587104797363,1.8411411046981812,0.9050082564353943
1733404615144688400,8.4516884765625,8.796297073364258,1.944091796875,0.8523358106613159
1733404615154667800,8.461667724609375,9.208099365234375,1.9153614044189453,0.8667010068893433
1733404615164677400,8.471677490234375,9.72285270690918,1.8148049116134644,0.8619126081466675
1733404615174687200,8.481687255859375,10.424354553222656,1.745373010635376,0.950498104095459
1733404615184666600,8.49166650390625,10.668562889099121,1.6639702320098877,0.8954314589500427
1733404615194676200,8.50167626953125,10.72841739654541,1.5825673341751099,0.6871358752250671
1733404615204686000,8.51168603515625,10.903194427490234,1.6759412288665771,0.5434837937355042
1733404615214665200,8.521665283203125,10.759542465209961,1.7501614093780518,0.3064578175544739
1733404615224675000,8.531675048828125,10.3549222946167,1.8291701078414917,0.16759411990642548
1733404615234684700,8.5416845703125,9.799467086791992,1.9967641830444336,0.06703764945268631
1733404615244664000,8.5516640625,9.272743225097656,2.140416383743286,0.10055647045373917
1733404615254673700,8.561673583984375,8.815450668334961,2.229001760482788,0.2346317619085312
1733404615264683500,8.57168359375,8.513781547546387,2.315192937850952,0.3256114423274994
1733404615274663000,8.581662841796875,8.315062522888184,2.27209734916687,0.3998316824436188
1733404615284672500,8.591672607421875,8.377311706542969,2.1595699787139893,0.2944868206977844
1733404615294682400,8.601682373046875,8.633491516113281,2.1356279850006104,0.1604115068912506
1733404615304692200,8.611692138671875,8.9064302444458,1.9297266006469727,0.07182604819536209
1733404615314671400,8.62167138671875,9.083600997924805,1.8626888990402222,0.043095629662275314
1733404615324681200,8.63168115234375,9.117119789123535,1.7549498081207275,0.004788403399288654
1733404615334690800,8.64169091796875,9.157821655273438,1.656787633895874,0.1388636976480484
1733404615344670000,8.651669921875,9.279925346374512,1.6711528301239014,0.33758243918418884
1733404615354679800,8.6616796875,9.339780807495117,1.6759412288665771,0.5841852426528931
1733404615364689700,8.671689697265625,9.229647636413574,1.7166426181793213,0.7757213711738586
1733404615374668800,8.681668701171875,9.148244857788086,1.8339585065841675,0.8571242094039917
1733404615384678700,8.6916787109375,9.11233139038086,1.821987509727478,0.811634361743927
1733404615394688500,8.7016884765625,9.059659004211426,1.8770540952682495,0.790086567401886
1733404615404667600,8.711667724609375,8.951920509338379,1.9943699836730957,0.7948749661445618
1733404615414677500,8.721677490234375,8.769960403442383,2.078166961669922,0.811634361743927
1733404615424687400,8.731687255859375,8.69334602355957,2.0829553604125977,0.8810662031173706
1733404615434666500,8.74166650390625,8.652645111083984,2.032677173614502,1.0007762908935547
1733404615444676000,8.751676025390625,8.848969459533691,1.9632453918457031,0.9648633003234863
1733404615454686000,8.76168603515625,9.531316757202148,1.8794482946395874,0.8020575642585754
1733404615464665000,8.7716650390625,10.340557098388672,1.9057846069335938,0.6320692300796509
1733404615474675000,8.781675048828125,11.130643844604492,1.8842366933822632,0.4620809257030487
1733404615484684800,8.791684814453125,11.745953559875488,1.946485996246338,0.24181437492370605
1733404615494664200,8.801664306640625,11.966219902038574,1.9943699836730957,0.028730420395731926
1733404615504673800,8.811673828125,11.820174217224121,2.027888774871826,-0.1173158809542656
1733404615514683600,8.82168359375,11.35809326171875,2.0231003761291504,-0.22266076505184174
1733404615524662800,8.831662841796875,10.864887237548828,2.056619167327881,-0.3016694188117981
1733404615534672400,8.84167236328125,10.563218116760254,2.10210919380188,-0.3016694188117981
1733404615544682200,8.85168212890625,10.287884712219238,2.1739351749420166,-0.33518823981285095
1733404615554692000,8.861692138671875,10.08198356628418,2.231395959854126,-0.3519476354122162
1733404615564671500,8.87167138671875,9.99100399017334,2.3247697353363037,-0.3519476354122162
1733404615574681000,8.88168115234375,9.914389610290527,2.432508945465088,-0.3687070608139038
1733404615584691000,8.89169091796875,9.938331604003906,2.537853717803955,-0.3878606855869293
1733404615594670000,8.901670166015625,10.007762908935547,2.717418909072876,-0.45489832758903503
1733404615604680000,8.911679931640625,10.007762908935547,3.047818660736084,-0.4357447028160095
1733404615614689500,8.921689453125,9.560047149658203,3.3734302520751953,-0.47644615173339844
1733404615624669000,8.9316689453125,9.14585018157959,3.4596214294433594,-0.5506663918495178
1733404615634678500,8.941678466796875,8.583212852478027,3.1675288677215576,-0.6057330369949341
1733404615644688400,8.9516884765625,8.432378768920898,2.4827871322631836,-0.5051765441894531
1733404615654667800,8.961667724609375,9.220070838928223,1.359906554222107,0.016759412363171577
1733404615664677400,8.971677490234375,10.512939453125,0.20111294090747833,0.45010992884635925
1733404615674687200,8.981687255859375,12.60307788848877,-0.828393816947937,0.2537853717803955
1733404615684666600,8.99166650390625,14.403517723083496,-1.278503656387329,-0.28969839215278625
1733404615694676200,9.00167626953125,15.547945976257324,-1.137245774269104,-0.9265560507774353
1733404615704686000,9.01168603515625,15.70117473602295,-0.6105214357376099,-1.4532804489135742
1733404615714665500,9.02166552734375,14.879963874816895,-0.040701430290937424,-1.7597382068634033
1733404615724675000,9.031675048828125,13.113042831420898,0.33279404044151306,-2.1787235736846924
1733404615734684700,9.0416845703125,10.951078414916992,0.49559974670410156,-2.5450363159179688
1733404615744664000,9.0516640625,8.932766914367676,0.7110779285430908,-2.5330653190612793
1733404615754673700,9.061673583984375,7.654263019561768,0.9409212470054626,-2.695871114730835
1733404615764683500,9.07168359375,6.773196697235107,1.2282254695892334,-2.82515811920166
1733404615774663000,9.081662841796875,6.380547523498535,1.4748282432556152,-2.7964274883270264
1733404615784672500,9.091672607421875,5.9974751472473145,1.764526605606079,-2.6623523235321045
1733404615794682400,9.101682373046875,5.643133640289307,1.9943699836730957,-2.473210334777832
1733404615804692200,9.111692138671875,5.415684223175049,2.094926595687866,-2.255337953567505
1733404615814671400,9.12167138671875,5.2049946784973145,1.9105730056762695,-1.8339585065841675
1733404615824681200,9.13168115234375,5.463568210601807,1.5634137392044067,-1.4963760375976562
1733404615834690800,9.14169091796875,6.449979305267334,1.048660397529602,-1.0558429956436157
1733404615844670000,9.151669921875,7.881711959838867,0.6200982332229614,-1.0438719987869263
1733404615854679800,9.1616796875,9.607931137084961,0.272938996553421,-1.2449848651885986
1733404615864689700,9.171689697265625,11.068394660949707,0.1173158809542656,-1.434126853942871
1733404615874668800,9.181668701171875,12.356474876403809,0.019153613597154617,-1.4676456451416016
1733404615884678700,9.1916787109375,13.014880180358887,0.10773907601833344,-1.357512354850769
1733404615894688500,9.2016884765625,12.983756065368652,0.3519476354122162,-1.335964560508728
1733404615904667600,9.211667724609375,12.435483932495117,0.667982280254364,-1.3096283674240112
1733404615914677500,9.221677490234375,11.413159370422363,1.0534487962722778,-1.278503656387329
1733404615924687400,9.231687255859375,10.259154319763184,1.3455413579940796,-1.0342950820922852
1733404615934666500,9.24166650390625,9.27034854888916,1.5682021379470825,-0.790086567401886
1733404615944676000,9.251676025390625,8.252813339233398,1.7884687185287476,-0.6967126727104187
1733404615954686000,9.26168603515625,7.453149795532227,1.8842366933822632,-0.6320692300796509
1733404615964665000,9.2716650390625,6.777985095977783,2.013523578643799,-0.5171475410461426
1733404615974675000,9.281675048828125,6.332663536071777,2.0685901641845703,-0.45489832758903503
1733404615984684800,9.291684814453125,6.052541732788086,2.1763293743133545,-0.2537853717803955
1733404615994664200,9.301664306640625,5.944802761077881,2.2026655673980713,-0.15801730751991272
1733404616004673800,9.311673828125,6.009446144104004,2.2385785579681396,-0.08140286058187485
1733404616014683600,9.32168359375,6.347028732299805,2.205059766769409,-0.002394201699644327
1733404616024662800,9.331662841796875,6.689399719238281,2.1595699787139893,0.06703764945268631
1733404616034672400,9.34167236328125,7.129932880401611,2.1356279850006104,0.002394201699644327
1733404616044682200,9.35168212890625,7.522581577301025,2.078166961669922,0.038307227194309235
1733404616054692000,9.361692138671875,8.037335395812988,2.032677173614502,0.021547814831137657
1733404616064671500,9.37167138671875,8.705317497253418,1.965639591217041,-0.21308395266532898
1733404616074681000,9.38168115234375,9.50498104095459,1.9177556037902832,-0.6823474764823914
1733404616084691000,9.39169091796875,10.010157585144043,1.9345149993896484,-0.933738648891449
1733404616094670000,9.401670166015625,10.376470565795898,1.944091796875,-1.0582371950149536
1733404616104679700,9.4116796875,10.376470565795898,2.0470423698425293,-1.158793568611145
1733404616114689500,9.421689453125,10.022128105163574,2.075772762298584,-1.039083480834961
1733404616124669000,9.4316689453125,9.696516990661621,2.1092917919158936,-1.0007762908935547
1733404616134678500,9.441678466796875,9.643844604492188,2.1475989818573,-0.8164227604866028
1733404616144688400,9.4516884765625,10.02691650390625,2.0829553604125977,-0.5674257874488831
1733404616154667800,9.461667724609375,10.675745010375977,1.9632453918457031,-0.3687070608139038
1733404616164677400,9.471677490234375,11.892000198364258,1.7310078144073486,-0.11013327538967133
1733404616174687200,9.481687255859375,12.947842597961426,1.6663644313812256,0.031124621629714966
1733404616184666600,9.49166650390625,13.953407287597656,1.9488801956176758,0.06224924325942993
1733404616194676200,9.50167626953125,14.346056938171387,2.276885747909546,0.035913024097681046
1733404616204686000,9.51168603515625,14.03720474243164,2.454056739807129,0.22266076505184174
1733404616214665500,9.52166552734375,13.419500350952148,2.4899697303771973,0.31603461503982544
1733404616224675000,9.531675048828125,12.878411293029785,2.5713725090026855,0.272938996553421
1733404616234684700,9.5416845703125,12.51209831237793,2.542642116546631,0.26096799969673157
1733404616244664000,9.5516640625,12.236764907836914,2.456450939178467,0.3280056416988373
1733404616254673700,9.561673583984375,11.860875129699707,2.1475989818573,0.40940847992897034
1733404616264683500,9.57168359375,11.372458457946777,1.5682021379470825,0.6775590777397156
1733404616274663000,9.581662841796875,11.034875869750977,0.768538773059845,0.5482721924781799
1733404616284672500,9.591672607421875,11.085153579711914,-0.11971008777618408,0.15083470940589905
1733404616294682400,9.601682373046875,11.903970718383789,-1.1899182796478271,-0.5961562395095825
1733404616304692200,9.611692138671875,13.199234008789062,-1.9488801956176758,-1.039083480834961
1733404616314671400,9.62167138671875,14.753070831298828,-2.1954829692840576,-1.1994950771331787
1733404616324681200,9.63168115234375,15.150507926940918,-2.008735179901123,-0.9672574996948242
1733404616334690800,9.64169091796875,13.819332122802734,-1.3982137441635132,-0.7996633648872375
1733404616344670000,9.651669921875,11.568782806396484,-0.8164227604866028,-0.21787235140800476
1733404616354679800,9.6616796875,8.949525833129883,-0.14844051003456116,0.4381389021873474
1733404616364689700,9.671689697265625,6.4164605140686035,0.3423708379268646,0.8978256583213806
1733404616374668800,9.681668701171875,4.570530891418457,0.6344634294509888,1.173158884048462
1733404616384678700,9.6916787109375,3.222595453262329,1.0247182846069336,1.37906014919281
1733404616394688500,9.7016884765625,2.784456491470337,1.278503656387329,1.4987702369689941
1733404616404667600,9.711667724609375,3.162740468978882,1.235408067703247,1.5849615335464478
1733404616414677500,9.721677490234375,4.201824188232422,0.9816226959228516,1.5682021379470825
1733404616424687400,9.731687255859375,5.6191911697387695,0.5746083855628967,1.357512354850769
1733404616434666500,9.74166650390625,6.766014099121094,0.2346317619085312,0.9481038451194763
1733404616444676000,9.751676025390625,8.11634349822998,-0.26575639843940735,0.6200982332229614
1733404616454686000,9.76168603515625,9.579200744628906,-0.5602431893348694,0.4596867263317108
1733404616464665000,9.7716650390625,10.805032730102539,-0.5746083855628967,0.12928688526153564
1733404616474675000,9.781675048828125,11.923124313354492,-0.3902548849582672,-0.13407529890537262
1733404616484684800,9.791684814453125,12.418724060058594,-0.0933738648891449,-0.3016694188117981
1733404616494664200,9.801664306640625,12.258312225341797,0.3663128614425659,-0.6536170840263367
1733404616504673800,9.811673828125,11.712434768676758,0.790086567401886,-0.8212111592292786
1733404616514683600,9.82168359375,10.773907661437988,1.2737152576446533,-1.0414776802062988
1733404616524662800,9.831662841796875,9.804255485534668,1.5538369417190552,-1.2761094570159912
1733404616534672400,9.84167236328125,9.677363395690918,2.7988216876983643,-1.280897855758667
1733404616544682200,9.85168212890625,8.286332130432129,1.3958195447921753,-0.7182605266571045
1733404616554692000,9.861692138671875,7.524975776672363,1.8339585065841675,-0.6703764796257019
1733404616564671500,9.87167138671875,7.33583402633667,1.5610195398330688,-0.5961562395095825
1733404616574681000,9.88168115234375,7.29034423828125,1.3862427473068237,-0.4357447028160095
1733404616584691000,9.89169091796875,7.390900611877441,1.3072341680526733,-0.15562310814857483
1733404616594670000,9.901670166015625,7.599195957183838,1.2497732639312744,-0.05985504388809204
1733404616604680000,9.911679931640625,7.714118003845215,1.2689268589019775,-0.15083470940589905
1733404616614689500,9.921689453125,7.663839817047119,1.3072341680526733,-0.12689268589019775
1733404616624669000,9.9316689453125,7.433996200561523,1.5083470344543457,-0.07182604819536209
1733404616634678500,9.941678466796875,7.038952827453613,1.7046716213226318,-0.10295066982507706
1733404616644688400,9.9516884765625,6.675034523010254,1.8626888990402222,-0.05746084079146385
1733404616654667800,9.961667724609375,6.7923502922058105,2.056619167327881,-0.038307227194309235
1733404616664677400,9.971677490234375,7.321468830108643,2.1763293743133545,-0.019153613597154617
1733404616674687200,9.981687255859375,7.979874134063721,2.1523873805999756,0.014365210197865963
1733404616684666600,9.99166650390625,8.674192428588867,2.1595699787139893,-0.0071826050989329815
1733404616694676200,10.00167626953125,9.366117477416992,2.161964178085327,-0.009576806798577309
1733404616704686000,10.01168603515625,9.952696800231934,2.1308395862579346,0.031124621629714966
1733404616714665500,10.02166552734375,10.69489860534668,2.1571757793426514,-0.026336219161748886
1733404616724675000,10.031675048828125,11.444284439086914,2.2218191623687744,-0.07661445438861847
1733404616734684700,10.0416845703125,11.858481407165527,2.2649147510528564,0.26815059781074524
1733404616744664000,10.0516640625,11.975796699523926,2.341529369354248,0.5650315880775452
1733404616754673700,10.061673583984375,11.97100830078125,2.3798365592956543,0.6584054827690125
1733404616764683500,10.07168359375,12.040440559387207,2.3702597618103027,0.6488286852836609
1733404616774663000,10.081662841796875,12.27507209777832,2.2601263523101807,0.49320554733276367
1733404616784672500,10.091672607421875,12.773066520690918,2.1308395862579346,0.20350714027881622
1733404616794682400,10.101682373046875,13.295001983642578,2.030282974243164,-0.21308395266532898
1733404616804692200,10.111692138671875,13.855245590209961,1.8746598958969116,-1.1061211824417114
1733404616814671400,10.12167138671875,13.967772483825684,1.7836803197860718,-2.0039467811584473
1733404616824681200,10.13168115234375,13.876792907714844,1.8315643072128296,-2.5091233253479004
1733404616834690800,10.14169091796875,13.498509407043457,2.0805611610412598,-2.6240451335906982
1733404616844670000,10.151669921875,12.96460247039795,2.4851813316345215,-2.6192567348480225
1733404616854679800,10.1616796875,12.521675109863281,2.6815059185028076,-2.6431987285614014
1733404616864689700,10.171689697265625,11.688492774963379,2.2601263523101807,-2.2649147510528564
1733404616874668800,10.181668701171875,11.116278648376465,1.1755530834197998,-1.577778935432434
1733404616884678700,10.1916787109375,11.281478881835938,-0.6057330369949341,-0.8355764150619507
1733404616894688500,10.2016884765625,12.550405502319336,-2.094926595687866,-0.5770025849342346
1733404616904667600,10.211667724609375,14.561534881591797,-2.959233283996582,-0.8810662031173706
1733404616914677500,10.221677490234375,16.02678680419922,-2.8586769104003906,-1.4676456451416016
1733404616924687400,10.231687255859375,16.017210006713867,-2.0470423698425293,-1.920149803161621
1733404616934666500,10.24166650390625,14.092270851135254,-1.192312479019165,-2.2146365642547607
1733404616944676000,10.251676025390625,11.317391395568848,-0.6584054827690125,-2.3965959548950195
1733404616954686000,10.26168603515625,7.515398979187012,-0.22505496442317963,-2.425326347351074
1733404616964665000,10.2716650390625,4.141968727111816,0.2298433631658554,-2.2697031497955322
1733404616974675000,10.281675048828125,1.2713210582733154,0.768538773059845,-1.8555063009262085
1733404616984684800,10.291684814453125,-0.29209262132644653,1.1492167711257935,-1.5849615335464478
1733404616994784000,10.301783935546876,-0.6560112833976746,1.2449848651885986,-1.170764684677124
1733404617004918000,10.31191796875,0.8810662031173706,0.9720458984375,-0.9720458984375
1733404617014683600,10.32168359375,3.179499864578247,0.6584054827690125,-0.9169792532920837
1733404617024662800,10.331662841796875,6.418854713439941,0.24660277366638184,-0.5817909836769104
1733404617034672400,10.34167236328125,9.066842079162598,0.028730420395731926,-0.6703764796257019
1733404617044682200,10.35168212890625,11.690886497497559,-0.05506663769483566,-0.8331822156906128
1733404617054692000,10.361692138671875,13.48653793334961,-0.26575639843940735,-0.5793967843055725
1733404617064671500,10.37167138671875,14.302961349487305,-0.5770025849342346,-0.21787235140800476
1733404617074681000,10.38168115234375,14.075511932373047,-0.524330198764801,-0.2082955539226532
1733404617084691000,10.39169091796875,13.153743743896484,-0.27054479718208313,-0.2825157940387726
1733404617094670000,10.401670166015625,11.999738693237305,0.12210428714752197,-0.2537853717803955
1733404617104680000,10.411679931640625,10.764330863952637,0.6344634294509888,-0.19153612852096558
1733404617114689500,10.421689453125,9.62947940826416,1.0462661981582642,-0.21787235140800476
1733404617124669000,10.4316689453125,8.686163902282715,1.403002142906189,-0.2944868206977844
1733404617134678500,10.441678466796875,7.814674377441406,1.699883222579956,-0.22266076505184174
1733404617144688400,10.4516884765625,7.223306655883789,1.9800047874450684,-0.2059013396501541
1733404617154667800,10.461667724609375,6.600813865661621,2.126051187515259,-0.1412578970193863
1733404617164677400,10.471677490234375,6.090848922729492,2.2026655673980713,-0.1364694982767105
1733404617174687200,10.481687255859375,5.868188381195068,2.2433669567108154,-0.12928688526153564
1733404617184666600,10.49166650390625,5.8203043937683105,2.2218191623687744,-0.047884032130241394
1733404617194676200,10.50167626953125,6.088454723358154,2.1547815799713135,0.031124621629714966
1733404617204686000,10.51168603515625,6.521805286407471,2.070984363555908,0.10534487664699554
1733404617214665500,10.52166552734375,7.01979923248291,1.9776105880737305,0.004788403399288654
1733404617224675000,10.531675048828125,7.771578788757324,1.867477297782898,-0.1173158809542656
1733404617234684700,10.5416845703125,8.647856712341309,1.7980455160140991,-0.21547815203666687
1733404617244664000,10.5516640625,9.220070838928223,1.742978811264038,-0.40462008118629456
1733404617254673700,10.561673583984375,9.521739959716797,1.8291701078414917,-0.49559974670410156
1733404617264683500,10.57168359375,9.75637149810791,2.0398597717285156,-0.49559974670410156
1733404617274663000,10.581662841796875,9.66539192199707,2.22660756111145,-0.545877993106842
1733404617284672500,10.591672607421875,9.536105155944824,2.3487119674682617,-0.48602294921875
1733404617294682400,10.601682373046875,9.636661529541016,2.3080103397369385,-0.3519476354122162
1733404617304692200,10.611692138671875,10.053253173828125,2.343923568725586,-0.5482721924781799
1733404617314671400,10.62167138671875,10.539276123046875,2.2840683460235596,-0.6368576288223267
1733404617324681200,10.63168115234375,11.02051067352295,2.0254945755004883,-0.6344634294509888
1733404617334690800,10.64169091796875,11.640608787536621,1.889025092124939,-0.6584054827690125
1733404617344670000,10.651669921875,12.073959350585938,1.7980455160140991,-0.5315127968788147
1733404617354679800,10.6616796875,12.48815631866455,1.867477297782898,-0.395043283700943
1733404617364689700,10.671689697265625,12.58152961730957,2.056619167327881,-0.17477671802043915
1733404617374668800,10.681668701171875,12.588712692260742,2.0901381969451904,0.35913026332855225
1733404617384678700,10.6916787109375,12.600683212280273,2.1356279850006104,0.7015010714530945
1733404617394688500,10.7016884765625,12.725181579589844,2.229001760482788,0.8906430602073669
1733404617404667600,10.711667724609375,12.995726585388184,2.363077163696289,0.8930372595787048
1733404617414677500,10.721677490234375,13.146561622619629,2.5498247146606445,0.7493851184844971
1733404617424687400,10.731687255859375,12.871228218078613,2.410961151123047,0.5195417404174805
1733404617434666500,10.74166650390625,12.27507209777832,1.623268723487854,0.22026655077934265
1733404617444676000,10.751676025390625,12.126631736755371,0.6033388376235962,0.13168109953403473
1733404617454686000,10.76168603515625,12.49055004119873,-0.3902548849582672,-0.24181437492370605
1733404617464665000,10.7716650390625,12.986149787902832,-0.9744400978088379,-0.4692635238170624
1733404617474675000,10.781675048828125,13.129801750183105,-1.113303780555725,-0.5650315880775452
1733404617484684800,10.791684814453125,12.497733116149902,-1.1252747774124146,-0.5434837937355042
1733404617494664200,10.801664306640625,11.221623420715332,-1.01753568649292,0.12689268589019775
1733404617504673800,10.811673828125,9.476250648498535,-0.6177040338516235,0.6488286852836609
1733404617514683600,10.82168359375,7.960720539093018,-0.17956513166427612,0.9696516990661621
1733404617524662800,10.831662841796875,6.703764915466309,0.2059013396501541,1.2880805730819702
1733404617534672400,10.84167236328125,6.162675380706787,0.569819986820221,1.173158884048462
1733404617544682200,10.85168212890625,6.287173748016357,0.7924807667732239,0.8954314589500427
1733404617554692000,10.861692138671875,7.050923824310303,0.7565677165985107,0.7493851184844971
1733404617564671500,10.87167138671875,7.8098859786987305,0.48602294921875,0.36152446269989014
1733404617574681000,10.88168115234375,8.595184326171875,0.16519992053508759,-0.14365209639072418
1733404617584691000,10.89169091796875,9.074024200439453,0.019153613597154617,-0.3878606855869293
1733404617594670000,10.901670166015625,9.557653427124023,-0.10055647045373917,-0.5410895943641663
1733404617604680000,10.911679931640625,9.895236015319824,0.0071826050989329815,-0.7326257228851318
1733404617614689500,10.921689453125,9.931148529052734,0.12928688526153564,-0.828393816947937
1733404617624669000,10.9316689453125,9.624691009521484,0.2561795711517334,-0.8834604024887085
1733404617634678800,10.9416787109375,9.016563415527344,0.5961562395095825,-1.01753568649292
1733404617644688400,10.9516884765625,8.379706382751465,0.9433154463768005,-1.0749965906143188
1733404617654667800,10.961667724609375,7.8314337730407715,1.2234370708465576,-0.8930372595787048
1733404617664677400,10.971677490234375,7.299921035766602,1.3551181554794312,-0.9600749015808105
1733404617674687200,10.981687255859375,7.026981830596924,1.50355863571167,-1.05105459690094
1733404617684666600,10.99166650390625,6.806715488433838,1.577778935432434,-1.070208191871643
1733404617694676200,11.00167626953125,6.615179061889648,1.4077905416488647,-0.8738836050033569
1733404617704686000,11.01168603515625,6.763619899749756,1.2665326595306396,-0.7781155705451965
1733404617714665500,11.02166552734375,6.842628479003906,1.1659762859344482,-0.7757213711738586
1733404617724675000,11.031675048828125,6.914454460144043,1.070208191871643,-0.6560112833976746
1733404617734684700,11.0416845703125,7.058106422424316,0.9983820915222168,-0.3711012601852417
1733404617744664000,11.0516640625,7.230489253997803,1.0749965906143188,-0.1628057211637497
1733404617754673700,11.061673583984375,7.350199222564697,1.2689268589019775,-0.1364694982767105
1733404617764683500,11.07168359375,7.4555439949035645,1.460463047027588,0.13407529890537262
1733404617774663000,11.081662841796875,7.50582218170166,1.7262194156646729,0.1628057211637497
1733404617784672500,11.091672607421875,7.680599212646484,1.8986018896102905,0.2849099934101105
1733404617794682400,11.101682373046875,8.17141056060791,2.032677173614502,0.22266076505184174
1733404617804692200,11.111692138671875,8.724471092224121,1.9632453918457031,0.38307225704193115
1733404617814671400,11.12167138671875,9.318233489990234,1.9369091987609863,0.42377370595932007
1733404617824681200,11.13168115234375,9.907206535339355,1.8387469053268433,0.45250412821769714
1733404617834690800,11.14169091796875,10.486603736877441,1.7357962131500244,0.36152446269989014
1733404617844670000,11.151669921875,10.92953109741211,1.702277421951294,0.3998316824436188
1733404617854679800,11.1616796875,11.219228744506836,1.7693150043487549,0.49559974670410156
1733404617864689700,11.171689697265625,11.118672370910645,1.886630892753601,0.4572925269603729
1733404617874668800,11.181668701171875,10.99896240234375,1.9273324012756348,0.545877993106842
1733404617884678700,11.1916787109375,10.84094524383545,1.9393033981323242,0.5913678407669067
1733404617894688500,11.2016884765625,11.008539199829102,1.8555063009262085,0.5770025849342346
1733404617904667600,11.211667724609375,11.81059741973877,1.6400281190872192,0.5099649429321289
1733404617914677500,11.221677490234375,12.9741792678833,1.4173674583435059,0.5530605912208557
1733404617924687400,11.231687255859375,14.302961349487305,1.280897855758667,0.569819986820221
1733404617934666500,11.24166650390625,15.33725643157959,1.3551181554794312,0.4118026793003082
1733404617944676000,11.251676025390625,15.986084938049316,1.522712230682373,0.12689268589019775
1733404617954686000,11.26168603515625,15.804125785827637,1.800439715385437,-0.40940847992897034
1733404617964665000,11.2716650390625,14.877569198608398,1.9728221893310547,-0.9241618514060974
1733404617974675000,11.281675048828125,13.725957870483398,2.0853497982025146,-1.213860273361206
1733404617984684800,11.291684814453125,12.409147262573242,2.3295583724975586,-1.3718775510787964
1733404617994664200,11.301664306640625,11.398794174194336,2.5234885215759277,-1.7046716213226318
1733404618004673800,11.311673828125,10.656591415405273,2.360682964324951,-1.824381709098816
1733404618014683600,11.32168359375,10.299856185913086,1.5442601442337036,-1.5921441316604614
1733404618024662800,11.331662841796875,10.776301383972168,0.2513911724090576,-1.0223240852355957
1733404618034672400,11.34167236328125,11.987768173217773,-1.3263877630233765,-0.5626373887062073
1733404618044682200,11.35168212890625,13.646949768066406,-2.056619167327881,-0.8379706144332886
1733404618054692000,11.361692138671875,14.765042304992676,-2.169146776199341,-1.314416766166687
1733404618064671200,11.371671142578125,14.341268539428711,-1.7381904125213623,-1.7956513166427612
1733404618074681000,11.38168115234375,12.60307788848877,-1.161187767982483,-2.0590133666992188
1733404618084691000,11.39169091796875,10.38844108581543,-0.6631938815116882,-2.1068975925445557
1733404618094670000,11.401670166015625,7.441178798675537,-0.12689268589019775,-2.0829553604125977
1733404618104680000,11.411679931640625,4.663905143737793,0.2561795711517334,-1.6735470294952393
1733404618114689500,11.421689453125,2.693476915359497,0.7110779285430908,-1.1971008777618408
1733404618124669000,11.4316689453125,1.455674648284912,1.113303780555725,-0.6943184733390808
1733404618134678800,11.4416787109375,1.2545616626739502,1.235408067703247,-0.24899697303771973
1733404618144688400,11.4516884765625,2.2170307636260986,0.9792284965515137,0.10295066982507706
1733404618154667500,11.46166748046875,4.120420932769775,0.7086837291717529,0.08140286058187485
1733404618164677400,11.471677490234375,6.830657482147217,0.5195417404174805,0.043095629662275314
1733404618174687200,11.481687255859375,8.920795440673828,0.43095630407333374,-0.12210428714752197
1733404618184666600,11.49166650390625,10.38604736328125,0.4596867263317108,-0.45489832758903503
1733404618194676200,11.50167626953125,11.207258224487305,0.6536170840263367,-0.5363011956214905
1733404618204686000,11.51168603515625,11.444284439086914,0.8547300100326538,-0.5746083855628967
1733404618214665200,11.521665283203125,10.960655212402344,1.0821791887283325,-0.5817909836769104
1733404618224675000,11.531675048828125,10.249577522277832,1.3120225667953491,-0.4836287498474121
1733404618234685000,11.541684814453125,9.272743225097656,1.5059528350830078,-0.4908113479614258
1733404618244664000,11.5516640625,8.573636054992676,1.6089035272598267,-0.6057330369949341
1733404618254673700,11.561673583984375,8.190564155578613,1.6615760326385498,-0.7086837291717529
1733404618264683500,11.57168359375,8.08282470703125,1.6496049165725708,-0.8690952062606812
1733404618274663000,11.581662841796875,8.2312650680542,1.6831238269805908,-0.9888052940368652
1733404618284672500,11.591672607421875,8.245630264282227,1.723825216293335,-0.8523358106613159
1733404618294682400,11.601682373046875,8.142680168151855,1.7357962131500244,-0.7158663272857666
1733404618304692200,11.611692138671875,7.975085735321045,1.7860745191574097,-0.5913678407669067
1733404618314671600,11.621671630859375,7.754819393157959,1.8171991109848022,-0.4644751250743866
1733404618324681200,11.63168115234375,7.572859764099121,1.86508309841156,-0.3711012601852417
1733404618334690800,11.64169091796875,7.515398979187012,1.941697597503662,-0.40222588181495667
1733404618344670000,11.651669921875,7.60637903213501,1.9847931861877441,-0.4692635238170624
1733404618354679800,11.6616796875,7.812280178070068,2.0422539710998535,-0.6177040338516235
1733404618364689700,11.671689697265625,8.178592681884766,2.0590133666992188,-0.5841852426528931
1733404618374669000,11.6816689453125,8.44434928894043,2.0590133666992188,-0.7182605266571045
1733404618384678700,11.6916787109375,8.734047889709473,2.078166961669922,-0.7350199222564697
1733404618394688500,11.7016884765625,8.944737434387207,2.008735179901123,-0.6488286852836609
1733404618404668000,11.71166796875,9.222464561462402,1.9728221893310547,-0.6248866319656372
1733404618414677500,11.721677490234375,9.627084732055664,2.0446481704711914,-0.6871358752250671
1733404618424687000,11.73168701171875,10.019734382629395,2.1332337856292725,-0.6392518281936646
1733404618434666500,11.74166650390625,10.211270332336426,2.250549554824829,-0.7924807667732239
1733404618444676000,11.751676025390625,10.38844108581543,2.4157495498657227,-0.8690952062606812
1733404618454686000,11.76168603515625,10.606313705444336,2.4468741416931152,-0.9026140570640564
1733404618464665300,11.771665283203125,10.912771224975586,2.300827741622925,-0.7182605266571045
1733404618474675000,11.781675048828125,11.592724800109863,2.013523578643799,-0.6440402865409851
1733404618484684800,11.791684814453125,12.416330337524414,1.7286136150360107,-0.7134721279144287
1733404618494664200,11.801664306640625,13.242329597473145,1.5897499322891235,-0.790086567401886
1733404618504673800,11.811673828125,13.67807388305664,1.7046716213226318,-0.6224924325942993
1733404618514683600,11.82168359375,12.96460247039795,2.1499931812286377,-0.7110779285430908
1733404618524662800,11.831662841796875,12.610260009765625,2.298433542251587,-0.38067805767059326
1733404618534672400,11.84167236328125,12.155362129211426,2.166752576828003,0.43095630407333374
1733404618544682200,11.85168212890625,12.035652160644531,2.027888774871826,0.5219359993934631
1733404618554692000,11.861692138671875,12.287043571472168,2.183511972427368,0.2777273952960968
1733404618564671500,11.87167138671875,12.409147262573242,2.4636335372924805,-0.11971008777618408
1733404618574681000,11.88168115234375,12.181697845458984,2.2673089504241943,-0.2992752194404602
1733404618584691000,11.89169091796875,11.628637313842773,1.3287819623947144,-0.05267243832349777
1733404618594670000,11.901670166015625,11.128249168395996,0.17238251864910126,0.3687070608139038
1733404618604680000,11.911679931640625,11.33654499053955,-1.1803414821624756,0.3902548849582672
1733404618614689500,11.921689453125,12.155362129211426,-1.9800047874450684,0.1388636976480484
1733404618624669000,11.9316689453125,13.455413818359375,-2.1523873805999756,-0.5123591423034668
1733404618634678800,11.9416787109375,13.864822387695312,-1.9776105880737305,-0.7565677165985107
1733404618644688400,11.9516884765625,12.868834495544434,-1.335964560508728,-0.5937620401382446
1733404618654667800,11.961667724609375,10.733205795288086,-0.8427590131759644,-0.019153613597154617
1733404618664677400,11.971677490234375,8.35097599029541,-0.3711012601852417,0.4118026793003082
1733404618674687200,11.981687255859375,5.856217384338379,0.1843535304069519,1.115697979927063
1733404618684666600,11.99166650390625,4.1156325340271,0.5985504388809204,1.2449848651885986
1733404618694676200,12.00167626953125,2.937685489654541,1.0295066833496094,1.4867992401123047
1733404618704686000,12.01168603515625,2.6886885166168213,1.3024457693099976,1.6950948238372803
1733404618714665500,12.02166552734375,3.337517261505127,1.278503656387329,1.6184803247451782
1733404618724675000,12.031675048828125,4.632780075073242,0.993593692779541,1.3192051649093628
1733404618734684700,12.0416845703125,6.22731876373291,0.5147533416748047,1.1109095811843872
1733404618744664000,12.0516640625,7.682993412017822,0.2082955539226532,0.7709329724311829
1733404618754673700,12.061673583984375,9.308655738830566,0.011971008032560349,0.3423708379268646
1733404618764683500,12.07168359375,10.680533409118652,-0.15083470940589905,-0.15801730751991272
1733404618774663000,12.081662841796875,11.616666793823242,-0.2322375625371933,-0.6033388376235962
1733404618784672500,12.091672607421875,12.33253288269043,-0.26096799969673157,-0.9433154463768005
1733404618794682400,12.101682373046875,12.57913589477539,-0.2106897532939911,-1.1516109704971313
1733404618804692200,12.111692138671875,12.337321281433105,-0.0071826050989329815,-1.3239935636520386
1733404618814671400,12.12167138671875,11.707646369934082,0.2825157940387726,-1.2761094570159912
1733404618824681200,12.13168115234375,10.702081680297852,0.7134721279144287,-1.1013327836990356
1733404618834690800,12.14169091796875,9.775525093078613,0.993593692779541,-0.9193734526634216
1733404618844670000,12.151669921875,8.705317497253418,1.2449848651885986,-0.6440402865409851
1733404618854679800,12.1616796875,7.723694801330566,1.3886369466781616,-0.42377370595932007
1733404618864689700,12.171689697265625,6.818686485290527,1.4748282432556152,-0.13168109953403473
1733404618874668800,12.181668701171875,6.3518171310424805,1.482010841369629,0.026336219161748886
1733404618884678700,12.1916787109375,6.246472358703613,1.4700398445129395,0.1173158809542656
1733404618894688500,12.2016884765625,6.493074893951416,1.314416766166687,0.3519476354122162
1733404618904667600,12.211667724609375,6.909666061401367,1.278503656387329,0.2944868206977844
1733404618914677500,12.221677490234375,7.390900611877441,1.237802267074585,0.2322375625371933
1733404618924687400,12.231687255859375,7.608773231506348,1.2090718746185303,0.31124621629714966
1733404618934666500,12.24166650390625,7.740454196929932,1.1851298809051514,0.4644751250743866
1733404618944676000,12.251676025390625,7.850587368011475,1.2090718746185303,0.47165772318840027
1733404618954686000,12.26168603515625,8.101978302001953,1.2449848651885986,0.3998316824436188
1733404618964665000,12.2716650390625,8.518569946289062,1.2689268589019775,0.3016694188117981
1733404618974675000,12.281675048828125,8.987833023071289,1.3239935636520386,0.26575639843940735
1733404618984684800,12.291684814453125,9.581595420837402,1.4077905416488647,0.20350714027881622
1733404618994664200,12.301664306640625,9.976638793945312,1.4077905416488647,0.2298433631658554
1733404619004673800,12.311673828125,10.429142951965332,1.53707754611969,0.21547815203666687
1733404619014683600,12.32168359375,10.76193618774414,1.7717092037200928,0.06464344263076782
1733404619024662800,12.331662841796875,10.886435508728027,1.9967641830444336,-0.07900865375995636
1733404619034672400,12.34167236328125,10.74996566772461,2.1715409755706787,-0.13407529890537262
1733404619044682200,12.35168212890625,10.541669845581055,2.2625205516815186,-0.11971008777618408
1733404619054692000,12.361692138671875,10.47942066192627,2.169146776199341,-0.021547814831137657
1733404619064671200,12.371671142578125,10.457873344421387,1.9488801956176758,-0.0071826050989329815
1733404619074681000,12.38168115234375,10.881647109985352,1.5897499322891235,-0.026336219161748886
1733404619084691000,12.39169091796875,11.990161895751953,1.1851298809051514,0.05746084079146385
1733404619094670000,12.401670166015625,13.043610572814941,0.828393816947937,-0.090979665517807
1733404619104680000,12.411679931640625,13.874399185180664,0.7398083209991455,-0.38546648621559143
1733404619114689500,12.421689453125,14.508862495422363,0.9457096457481384,-0.730231523513794
1733404619124669000,12.4316689453125,14.48970890045166,1.158793568611145,-1.3503297567367554
1733404619134678800,12.4416787109375,13.48414421081543,1.3072341680526733,-1.6903064250946045
1733404619144688400,12.4516884765625,12.425907135009766,1.6208745241165161,-1.766920804977417
1733404619154667500,12.46166748046875,11.408370971679688,1.987187385559082,-1.946485996246338
1733404619164677400,12.471677490234375,10.563218116760254,2.075772762298584,-2.1787235736846924
1733404619174687200,12.481687255859375,10.089165687561035,1.400607943534851,-2.049436569213867
1733404619184666400,12.491666259765625,10.465055465698242,0.2849099934101105,-1.3742717504501343
1733404619194676200,12.50167626953125,11.494562149047852,-1.4772224426269531,-0.6368576288223267
1733404619204686000,12.51168603515625,13.309367179870605,-3.0550012588500977,-0.3471592366695404
1733404619214665500,12.52166552734375,14.894329071044922,-3.6104562282562256,-0.5937620401382446
1733404619224675000,12.531675048828125,16.225505828857422,-3.490746021270752,-1.1420341730117798
1733404619234684700,12.5416845703125,16.17522621154785,-2.8107926845550537,-1.6184803247451782
1733404619244664000,12.5516640625,14.393940925598145,-1.699883222579956,-2.032677173614502
1733404619254673700,12.561673583984375,11.66694450378418,-0.9026140570640564,-1.922544002532959
1733404619264683500,12.57168359375,7.558494567871094,-0.1412578970193863,-1.460463047027588
1733404619274662700,12.58166259765625,4.077325344085693,0.47884035110473633,-1.1755530834197998
1733404619284672500,12.591672607421875,1.0414776802062988,1.170764684677124,-0.5027823448181152
1733404619294682400,12.601682373046875,-0.3256114423274994,1.3431471586227417,-0.2825157940387726
1733404619304692200,12.611692138671875,0.14365209639072418,0.9169792532920837,0.016759412363171577
1733404619314671600,12.621671630859375,2.985569477081299,0.44771572947502136,0.24420857429504395
1733404619324681200,12.63168115234375,6.531382083892822,-0.11013327538967133,0.26815059781074524
1733404619334690800,12.64169091796875,10.309432983398438,-0.5363011956214905,-0.19393034279346466
1733404619344670000,12.651669921875,13.005303382873535,-0.5770025849342346,-0.35673606395721436
1733404619354679800,12.6616796875,14.906299591064453,-0.5841852426528931,-0.3711012601852417
1733404619364689700,12.671689697265625,15.389928817749023,-0.3711012601852417,-0.4381389021873474
1733404619374669000,12.6816689453125,14.516044616699219,-0.05746084079146385,-0.3232172429561615
1733404619384678700,12.6916787109375,12.765883445739746,0.16998831927776337,-0.1388636976480484
1733404619394688500,12.7016884765625,10.599130630493164,0.5793967843055725,-0.16759411990642548
1733404619404668000,12.71166796875,9.105149269104004,0.8595184087753296,-0.11252748221158981
1733404619414677500,12.721677490234375,7.982268333435059,1.0845733880996704,-0.17238251864910126
1733404619424687000,12.73168701171875,7.484274387359619,1.237802267074585,-0.3734954595565796
1733404619434666500,12.74166650390625,7.292738437652588,1.335964560508728,-0.4884171485900879
1733404619444676000,12.751676025390625,7.187393665313721,1.3646949529647827,-0.5171475410461426
1733404619454686000,12.76168603515625,7.005434036254883,1.4700398445129395,-0.4381389021873474
1733404619464665000,12.7716650390625,6.7277069091796875,1.4772224426269531,-0.395043283700943
1733404619474675000,12.781675048828125,6.5050458908081055,1.4891934394836426,-0.3280056416988373
1733404619484684800,12.791684814453125,6.418854713439941,1.5322890281677246,-0.20350714027881622
1733404619494664200,12.801664306640625,6.378153324127197,1.5682021379470825,-0.10295066982507706
1733404619504673800,12.811673828125,6.5050458908081055,1.4748282432556152,0.031124621629714966
1733404619514683600,12.82168359375,6.8162922859191895,1.4413094520568848,0.019153613597154617
1733404619524662800,12.831662841796875,7.398083209991455,1.3215993642807007,-0.021547814831137657
1733404619534672400,12.84167236328125,7.891288757324219,1.1635819673538208,-0.05267243832349777
1733404619544682200,12.85168212890625,8.451532363891602,1.0247182846069336,-0.24420857429504395
1733404619554692000,12.861692138671875,9.184157371520996,0.9911994934082031,-0.4189853072166443
1733404619564671200,12.871671142578125,9.720458984375,1.0007762908935547,-0.5051765441894531
1733404619574681000,12.88168115234375,10.022128105163574,1.1348515748977661,-0.5410895943641663
1733404619584691000,12.89169091796875,10.137049674987793,1.2976573705673218,-0.6105214357376099
1733404619594670000,12.901670166015625,10.067618370056152,1.50355863571167,-0.667982280254364
1733404619604680000,12.911679931640625,10.017339706420898,1.601720929145813,-0.5961562395095825
1733404619614689500,12.921689453125,10.067618370056152,1.6184803247451782,-0.5482721924781799
1733404619624669000,12.9316689453125,10.36449909210205,1.5634137392044067,-0.3902548849582672
1733404619634678800,12.9416787109375,10.910377502441406,1.4867992401123047,-0.272938996553421
1733404619644688400,12.9516884765625,11.678915977478027,1.335964560508728,-0.19632454216480255
1733404619654667500,12.96166748046875,12.466608047485352,1.2856862545013428,-0.33758243918418884
1733404619664677400,12.971677490234375,13.168108940124512,1.2737152576446533,-0.4836287498474121
1733404619674687200,12.981687255859375,13.541604995727539,1.1635819673538208,-0.35913026332855225
1733404619684666600,12.99166650390625,13.646949768066406,0.8523358106613159,-0.08858546614646912
1733404619694676200,13.00167626953125,13.515268325805664,0.6727706789970398,0.18914192914962769
1733404619704686000,13.01168603515625,13.4290771484375,0.7805097699165344,0.395043283700943
1733404619714665500,13.02166552734375,13.476961135864258,1.0079588890075684,0.47165772318840027
1733404619724675000,13.031675048828125,13.383587837219238,1.256955862045288,0.4668693244457245
1733404619734684700,13.0416845703125,13.00051498413086,1.2832920551300049,0.38067805767059326
1733404619744664000,13.0516640625,12.39957046508789,0.9074024558067322,0.5386953949928284
1733404619754673700,13.061673583984375,11.836933135986328,0.17477671802043915,0.5434837937355042
1733404619764683500,13.07168359375,11.654973983764648,-1.0271124839782715,0.38307225704193115
1733404619774662700,13.08166259765625,11.990161895751953,-2.2457611560821533,0.31842881441116333
1733404619784672500,13.091672607421875,12.945448875427246,-2.8610711097717285,-0.07182604819536209
1733404619794682400,13.101682373046875,14.070723533630371,-2.8802247047424316,-0.586579442024231
1733404619804692200,13.111692138671875,14.044386863708496,-2.3750481605529785,-0.47644615173339844
1733404619814671600,13.121671630859375,12.497733116149902,-1.659181833267212,-0.11252748221158981
1733404619824681200,13.13168115234375,10.393229484558105,-1.170764684677124,0.33039984107017517
1733404619834690800,13.14169091796875,7.754819393157959,-0.5051765441894531,0.646434485912323
1733404619844670000,13.151669921875,5.430049419403076,-0.05746084079146385,0.730231523513794
1733404619854679800,13.1616796875,3.5410242080688477,0.45489832758903503,0.9600749015808105
1733404619864689700,13.171689697265625,2.38462495803833,0.9481038451194763,1.235408067703247
1733404619874669000,13.1816689453125,2.032677173614502,1.036689281463623,1.5083470344543457
1733404619884678700,13.1916787109375,2.5258827209472656,0.8164227604866028,1.6352397203445435
1733404619894688500,13.2016884765625,3.931279182434082,0.4836287498474121,1.3838485479354858
1733404619904667600,13.211667724609375,5.918466567993164,-0.05027823522686958,0.9313444495201111
1733404619914677500,13.221677490234375,7.690176010131836,-0.42377370595932007,0.4908113479614258
