time,seconds_elapsed,z,y,x
1732873913486686700,0.165686767578125,-0.010380744934082031,-0.0018122196197509766,0.0009588152170181274
1732873913496775400,0.175775390625,0.04168128967285156,-0.012442827224731445,-0.09321432560682297
1732873913506754800,0.1857548828125,0.08214569091796875,0.011212468147277832,-0.16030532121658325
1732873913516764700,0.1957646484375,0.1949920654296875,0.04324972629547119,-0.11456337571144104
1732873913526774300,0.205774169921875,0.22322654724121094,0.006223797798156738,-0.08544932305812836
1732873913536753700,0.215753662109375,0.263702392578125,0.02230989933013916,-0.07956439256668091
1732873913546763300,0.22576318359375,0.22033023834228516,0.010186553001403809,-0.0622534453868866
1732873913556773000,0.235773193359375,0.1127462387084961,0.027968645095825195,-0.03147924318909645
1732873913566782700,0.24578271484375,0.029237747192382812,0.0350496768951416,-0.06127776950597763
1732873913576762000,0.25576220703125,-0.060848236083984375,0.01561427116394043,-0.0733543187379837
1732873913586772000,0.26577197265625,-0.15118122100830078,0.008224010467529297,-0.09734050929546356
1732873913596781600,0.275781494140625,-0.17734241485595703,0.04520058631896973,-0.0405411571264267
1732873913606761000,0.285760986328125,-0.1171731948852539,0.06513512134552002,0.06356964260339737
1732873913616770600,0.2957705078125,-0.08997917175292969,0.026418089866638184,0.09540833532810211
1732873913626780400,0.305780517578125,-0.13079547882080078,0.0034232139587402344,0.055973924696445465
1732873913636759800,0.315759765625,-0.163482666015625,0.003652811050415039,-0.011587342247366905
1732873913646769700,0.325769775390625,-0.11590385437011719,-0.01540839672088623,0.01911240443587303
1732873913656779300,0.335779296875,-0.044404029846191406,-0.03425753116607666,0.09181516617536545
1732873913666758400,0.34575830078125,0.13848495483398438,-0.05278372764587402,0.12222258001565933
1732873913676768300,0.355768310546875,0.28180789947509766,-0.08910012245178223,0.0718817263841629
1732873913686777900,0.36577783203125,0.3993873596191406,-0.06340909004211426,0.0189213789999485
1732873913696757200,0.37575732421875,0.48114776611328125,-0.03590106964111328,0.008080869913101196
1732873913706767000,0.38576708984375,0.5370664596557617,-0.02170276641845703,0.058464206755161285
1732873913716776700,0.395776611328125,0.4935903549194336,0.008094191551208496,0.009856976568698883
1732873913726756000,0.405756103515625,0.32587432861328125,0.058998823165893555,-0.05034666135907173
1732873913736766000,0.415765869140625,0.085540771484375,0.08611583709716797,-0.049379460513591766
1732873913746775800,0.42577587890625,-0.1273336410522461,0.11104512214660645,-0.007171351462602615
1732873913756754700,0.435754638671875,-0.27258872985839844,0.11960053443908691,0.001859765499830246
1732873913766764500,0.4457646484375,-0.34156131744384766,0.08169400691986084,0.055523842573165894
1732873913776774400,0.4557744140625,-0.2652454376220703,0.060482025146484375,0.09333375841379166
1732873913786753500,0.46575341796875,-0.16232681274414062,0.020023822784423828,0.07708598673343658
1732873913796763400,0.475763427734375,-0.057403564453125,-0.06749165058135986,0.06269308179616928
1732873913806773000,0.48577294921875,0.1286144256591797,-0.092551589012146,0.0810471773147583
1732873913816782800,0.495782958984375,0.2306537628173828,-0.08732795715332031,-0.008442029356956482
1732873913826762200,0.50576220703125,0.2825050354003906,-0.06602847576141357,-0.052784230560064316
1732873913836772000,0.515772216796875,0.2890310287475586,-0.07953667640686035,-0.10755254328250885
1732873913846781700,0.52578173828125,0.1999988555908203,-0.06840813159942627,-0.1055864691734314
1732873913856760800,0.5357607421875,0.09685134887695312,-0.052202582359313965,-0.1130070835351944
1732873913866770700,0.545770751953125,0.027454376220703125,-0.03563344478607178,-0.021145589649677277
1732873913876780300,0.5557802734375,0.0013113021850585938,-0.032468557357788086,0.08891056478023529
1732873913886759700,0.565759765625,-0.08222103118896484,-0.08742940425872803,0.22855201363563538
1732873913896769500,0.57576953125,-0.1275472640991211,-0.07672977447509766,0.2916748523712158
1732873913906779100,0.585779052734375,-0.17778587341308594,-0.14144468307495117,0.2712802290916443
1732873913916758500,0.595758544921875,-0.2114391326904297,-0.14946472644805908,0.20827245712280273
1732873913926768400,0.605768310546875,-0.17101001739501953,-0.12265241146087646,0.1773398220539093
1732873913936778000,0.615778076171875,-0.10435295104980469,-0.09966135025024414,0.21585774421691895
1732873913946757000,0.625757080078125,-0.09758377075195312,-0.09816479682922363,0.16873854398727417
1732873913956767000,0.63576708984375,-0.05250072479248047,-0.058817386627197266,0.1020594984292984
1732873913966776600,0.645776611328125,0.03331756591796875,0.003630995750427246,0.046265825629234314
1732873913976756000,0.655755859375,0.009013175964355469,-0.020237445831298828,0.13015490770339966
1732873913986765800,0.665765869140625,-0.07035350799560547,-0.08699178695678711,0.28579482436180115
1732873913996775400,0.675775390625,-0.10913658142089844,-0.18100279569625854,0.5125254988670349
1732873914006754800,0.6857548828125,-0.04525279998779297,-0.2501577138900757,0.7297238111495972
1732873914016764700,0.6957646484375,0.08532047271728516,-0.2646315097808838,0.8563441038131714
1732873914026774300,0.705774169921875,0.28977394104003906,-0.2645183801651001,0.7882276773452759
1732873914036753700,0.715753662109375,0.47976016998291016,-0.2538989186286926,0.7847546339035034
1732873914046763300,0.72576318359375,0.6409206390380859,-0.23628336191177368,0.8389310240745544
1732873914056773000,0.735773193359375,0.6992588043212891,-0.21440106630325317,0.8805831670761108
1732873914066783000,0.745782958984375,0.7172451019287109,-0.167313814163208,1.013137698173523
1732873914076762000,0.75576220703125,0.6255426406860352,-0.09182292222976685,1.1991249322891235
1732873914086772000,0.76577197265625,0.47922801971435547,-0.0004061460494995117,1.340275764465332
1732873914096781600,0.775781494140625,0.3158245086669922,0.08001130819320679,1.2371827363967896
1732873914106761000,0.785760986328125,0.08150291442871094,0.11888575553894043,1.2800495624542236
1732873914116770600,0.7957705078125,-0.10953235626220703,0.19170349836349487,1.1099708080291748
1732873914126780400,0.805780517578125,-0.3027992248535156,0.2107301950454712,0.9559265375137329
1732873914136759800,0.815759765625,-0.47446155548095703,0.22329628467559814,0.8737659454345703
1732873914146769400,0.825769287109375,-0.5552024841308594,0.24998629093170166,0.8890533447265625
1732873914156779300,0.835779296875,-0.42636775970458984,0.18875503540039062,0.5721904039382935
1732873914166758400,0.84575830078125,-0.19562816619873047,0.1671837568283081,0.46415042877197266
1732873914176768300,0.855768310546875,0.16510391235351562,0.18033337593078613,0.4019283056259155
1732873914186777900,0.86577783203125,0.4673280715942383,0.19149959087371826,0.39455974102020264
1732873914196757200,0.87575732421875,0.7073497772216797,0.1540759801864624,0.2638143301010132
1732873914206767000,0.88576708984375,0.7488393783569336,0.06493544578552246,-0.11409604549407959
1732873914216776700,0.895776611328125,0.6204080581665039,-0.148459792137146,-0.5083618760108948
1732873914226756000,0.905756103515625,0.5261678695678711,-0.27505290508270264,-0.693112850189209
1732873914236766000,0.915765869140625,0.41345691680908203,-0.30422693490982056,-0.7303122282028198
1732873914246775600,0.925775634765625,0.33687591552734375,-0.3233206868171692,-0.7229487895965576
1732873914256754700,0.935754638671875,0.3055133819580078,-0.32318538427352905,-0.647713303565979
1732873914266764500,0.9457646484375,0.28154945373535156,-0.3019194006919861,-0.5367681384086609
1732873914276774100,0.955774169921875,0.2652721405029297,-0.2821459174156189,-0.41556769609451294
1732873914286753500,0.96575341796875,0.26412296295166016,-0.2748491168022156,-0.2756430506706238
1732873914296763400,0.975763427734375,0.1776142120361328,-0.2737753391265869,-0.18397760391235352
1732873914306773000,0.98577294921875,-0.032540321350097656,-0.24543225765228271,-0.15050780773162842
1732873914316782800,0.995782958984375,-0.2539386749267578,-0.27933943271636963,-0.1806355118751526
1732873914326762200,1.00576220703125,-0.39086437225341797,-0.27736055850982666,-0.08771926164627075
1732873914336772000,1.015772216796875,-0.3571310043334961,-0.24184530973434448,0.05084282159805298
1732873914346781700,1.02578173828125,-0.4765453338623047,-0.2202659249305725,-0.2696823477745056
1732873914356760800,1.0357607421875,-0.25978660583496094,-0.48355036973953247,0.05141329765319824
1732873914366770700,1.045770751953125,-0.03444194793701172,-0.30820930004119873,0.14164400100708008
1732873914376780300,1.0557802734375,0.28745269775390625,-0.05245959758758545,0.318845272064209
1732873914386759700,1.065759765625,0.5749187469482422,0.02939736843109131,0.5368261933326721
1732873914396769500,1.07576953125,0.7744569778442383,0.11926132440567017,0.6995581388473511
1732873914406779100,1.085779052734375,0.8282270431518555,0.1537068486213684,0.7378028631210327
1732873914416758500,1.095758544921875,0.7665481567382812,0.16489756107330322,0.7090873718261719
1732873914426768400,1.105768310546875,0.633946418762207,0.20169854164123535,0.5830795764923096
1732873914436778000,1.115778076171875,0.3941001892089844,0.20620810985565186,0.4284299612045288
1732873914446757000,1.125757080078125,0.09943389892578125,0.15576493740081787,0.30855417251586914
1732873914456767000,1.13576708984375,-0.13737773895263672,0.11455261707305908,0.31812405586242676
1732873914466776600,1.145776611328125,-0.20862388610839844,0.05085289478302002,0.3381906747817993
1732873914476756000,1.155755859375,-0.09527111053466797,-0.08766627311706543,0.4390842914581299
1732873914486765800,1.165765869140625,0.16887378692626953,-0.21352463960647583,0.44941020011901855
1732873914496775400,1.175775390625,0.4559812545776367,-0.1990332007408142,0.23967766761779785
1732873914506754800,1.1857548828125,0.6815881729125977,-0.19642633199691772,-0.007729530334472656
1732873914516764700,1.1957646484375,0.7437591552734375,-0.20986402034759521,-0.30870234966278076
1732873914526774300,1.205774169921875,0.4953126907348633,-0.2820766568183899,-0.6385899186134338
1732873914536753700,1.215753662109375,0.2800111770629883,-0.3527441620826721,-0.851284921169281
1732873914546763300,1.22576318359375,0.18766403198242188,-0.3726426362991333,-0.9441001415252686
1732873914556773000,1.235773193359375,0.25916385650634766,-0.29702872037887573,-0.2256050705909729
1732873914566783000,1.245782958984375,0.5427932739257812,0.05455106496810913,-0.19546037912368774
1732873914576762000,1.25576220703125,0.5067996978759766,0.145258367061615,-0.11527812480926514
1732873914586771700,1.265771728515625,0.35608482360839844,0.387630820274353,-0.2758640646934509
1732873914596781600,1.275781494140625,0.21717071533203125,0.66995769739151,-0.5837830305099487
1732873914606761000,1.285760986328125,0.02229785919189453,0.7221677303314209,-0.5933670401573181
1732873914616770600,1.2957705078125,-0.1114358901977539,0.7479305863380432,-0.5524699091911316
1732873914626780400,1.305780517578125,-0.18426799774169922,0.6828082799911499,-0.4424629807472229
1732873914636759800,1.315759765625,-0.15443134307861328,0.35919737815856934,-0.31987953186035156
1732873914646769400,1.325769287109375,-0.04334068298339844,0.08736717700958252,-0.4684706926345825
1732873914656779300,1.335779296875,0.12792205810546875,-0.12944602966308594,-0.8612695932388306
1732873914666758400,1.34575830078125,0.2055215835571289,-0.18060553073883057,-1.2849948406219482
1732873914676768300,1.355768310546875,0.2496623992919922,-0.013663411140441895,-1.7376363277435303
1732873914686777900,1.36577783203125,0.16742897033691406,0.30887413024902344,-2.0722758769989014
1732873914696757200,1.37575732421875,-0.17147350311279297,0.5002936124801636,-1.5888402462005615
1732873914706767000,1.38576708984375,-0.6068716049194336,0.7529290914535522,-1.106300950050354
1732873914716776700,1.395776611328125,-0.8172969818115234,1.1510313749313354,-1.1233868598937988
1732873914726756000,1.405756103515625,-1.1756620407104492,1.2991821765899658,-1.0098063945770264
1732873914736766000,1.415765869140625,-1.3974685668945312,1.331993579864502,-0.9111692905426025
1732873914746775600,1.425775634765625,-1.1889925003051758,1.3407373428344727,-0.5416885614395142
1732873914756754700,1.435754638671875,-0.7689294815063477,1.2013822793960571,-0.6280565857887268
1732873914766764500,1.4457646484375,-0.13763141632080078,0.9950364828109741,-0.7420819401741028
1732873914776774100,1.455774169921875,0.5451736450195312,0.8246183395385742,-1.3790236711502075
1732873914786753500,1.46575341796875,1.0880537033081055,0.5829977989196777,-1.7797290086746216
1732873914796763400,1.475763427734375,1.3290462493896484,0.43275630474090576,-1.8864091634750366
1732873914806773000,1.48577294921875,1.2361173629760742,0.3518047332763672,-1.7654632329940796
1732873914816782800,1.495782958984375,0.8620166778564453,0.39722681045532227,-1.461580753326416
1732873914826762200,1.50576220703125,0.2979555130004883,0.42530345916748047,-1.1347287893295288
1732873914836772000,1.515772216796875,-0.43454933166503906,0.42108678817749023,-0.9247289299964905
1732873914846781700,1.52578173828125,-0.9912729263305664,0.411465048789978,-0.9301395416259766
1732873914856760800,1.5357607421875,-1.5689420700073242,0.49890053272247314,-1.0555274486541748
1732873914866770700,1.545770751953125,-1.7609519958496094,0.5028324127197266,-0.6471157073974609
1732873914876780300,1.5557802734375,-1.7968330383300781,0.48268187046051025,-0.4284174144268036
1732873914886759700,1.565759765625,-1.6608810424804688,0.46915459632873535,-0.1666712760925293
1732873914896769500,1.57576953125,-1.3027610778808594,0.3280472755432129,0.20529979467391968
1732873914906779100,1.585779052734375,-0.851597785949707,0.19015789031982422,0.4671427011489868
1732873914916758500,1.595758544921875,-0.5945558547973633,0.107452392578125,0.34331101179122925
1732873914926768400,1.605768310546875,-0.4258289337158203,0.0631636381149292,0.22276100516319275
1732873914936778000,1.615778076171875,-0.44353389739990234,0.11981940269470215,-0.012524902820587158
1732873914946757000,1.625757080078125,-0.6189594268798828,0.1824016571044922,-0.15246635675430298
1732873914956767000,1.63576708984375,-0.8459939956665039,0.22392654418945312,-0.23314368724822998
1732873914966776600,1.645776611328125,-0.9789485931396484,0.3722625970840454,-0.07702624797821045
1732873914976756000,1.655755859375,-0.8708124160766602,0.46868896484375,0.22160965204238892
1732873914986765800,1.665765869140625,-0.6247720718383789,0.5129745006561279,0.4628985524177551
1732873914996775400,1.675775390625,-0.178924560546875,0.45558059215545654,0.48498544096946716
1732873915006754800,1.6857548828125,0.25221729278564453,0.4053771495819092,0.30062469840049744
1732873915016764700,1.6957646484375,0.7335710525512695,0.4072103500366211,0.11110347509384155
1732873915026774300,1.705774169921875,1.2176313400268555,0.37602555751800537,-0.049382686614990234
1732873915036753700,1.715753662109375,1.766636848449707,0.3694366216659546,-0.010464906692504883
1732873915046763300,1.72576318359375,2.002640724182129,0.2523519992828369,-0.10421139001846313
1732873915056773000,1.735773193359375,2.1192522048950195,0.09219849109649658,-0.0474700927734375
1732873915066783000,1.745782958984375,2.08579158782959,-0.08124756813049316,-0.2123444676399231
1732873915076762000,1.75576220703125,1.914790153503418,-0.31672751903533936,-0.5859581232070923
1732873915086771700,1.765771728515625,1.860116958618164,-0.4831426739692688,-0.6381746530532837
1732873915096781600,1.775781494140625,1.9338455200195312,-0.5071539282798767,-0.612518846988678
1732873915106761000,1.785760986328125,1.8484735488891602,-0.4686448574066162,-0.3140200972557068
1732873915116770600,1.7957705078125,1.4988012313842773,-0.2612687349319458,-0.24138957262039185
1732873915126780400,1.805780517578125,1.0909719467163086,-0.18977594375610352,-0.08655226230621338
1732873915136759800,1.815759765625,0.21164512634277344,-0.27791106700897217,0.22614675760269165
1732873915146769400,1.825769287109375,-0.30321311950683594,-0.21301746368408203,0.6234188675880432
1732873915156779300,1.835779296875,-0.34506702423095703,-0.058669090270996094,1.1649250984191895
1732873915166758400,1.84575830078125,-0.25399208068847656,0.038017988204956055,1.2284263372421265
1732873915176768300,1.855768310546875,-0.0004968643188476562,-0.1113588809967041,1.1954548358917236
1732873915186777900,1.86577783203125,0.6825656890869141,-0.4979701042175293,1.4170726537704468
1732873915196757200,1.87575732421875,1.1654090881347656,-0.7713251113891602,1.5158134698867798
1732873915206767000,1.88576708984375,1.4327278137207031,-1.110905408859253,1.552409052848816
1732873915216776700,1.895776611328125,1.5523366928100586,-1.2610137462615967,1.287652850151062
1732873915226756000,1.905756103515625,1.672377586364746,-1.1805896759033203,0.6483981609344482
1732873915236766000,1.915765869140625,1.7897872924804688,-0.8739233613014221,-0.29382431507110596
1732873915246775600,1.925775634765625,1.8941926956176758,-0.5757369995117188,-1.1326029300689697
1732873915256754700,1.935754638671875,1.505636215209961,-0.3665846586227417,-2.019340753555298
1732873915266764500,1.9457646484375,0.6803493499755859,-0.1727994680404663,-2.466620922088623
1732873915276774400,1.9557744140625,-0.5690450668334961,0.08324182033538818,-2.64800763130188
1732873915286753500,1.96575341796875,-1.9565019607543945,-0.059166908264160156,-2.0954694747924805
1732873915296763400,1.975763427734375,-3.262187957763672,-0.27646660804748535,-1.3531543016433716
1732873915306773000,1.98577294921875,-4.059056282043457,-0.5733592510223389,-0.650413990020752
1732873915316782800,1.995782958984375,-4.446521282196045,-0.9923045039176941,-0.007851839065551758
1732873915326762200,2.00576220703125,-3.8942418098449707,-1.411341667175293,0.09264057874679565
1732873915336772000,2.015772216796875,-2.4759325981140137,-2.0088601112365723,0.20820961892604828
1732873915346781700,2.02578173828125,0.11806869506835938,-2.3357245922088623,0.1574435979127884
1732873915356760800,2.0357607421875,2.5988283157348633,-2.1131181716918945,-0.0570080541074276
1732873915366770700,2.045770751953125,4.820186614990234,-1.7247543334960938,-0.4027358889579773
1732873915376780300,2.0557802734375,5.804741859436035,-1.4437884092330933,-0.7426608800888062
1732873915386759700,2.065759765625,5.503145217895508,-1.3627793788909912,-1.3813045024871826
1732873915396769500,2.07576953125,4.443005561828613,-1.0340168476104736,-1.9123822450637817
1732873915406779100,2.085779052734375,2.9372997283935547,-0.7235021591186523,-2.4611222743988037
1732873915416758500,2.095758544921875,1.5878314971923828,-0.713758111000061,-2.511137008666992
1732873915426768400,2.105768310546875,0.24680233001708984,-0.637004017829895,-2.1579067707061768
1732873915436778000,2.115778076171875,-0.6754388809204102,-0.5369737148284912,-1.5198590755462646
1732873915446757000,2.125757080078125,-1.0204639434814453,-0.4148555397987366,-0.6015242338180542
1732873915456767000,2.13576708984375,-1.1983375549316406,-0.2132502794265747,0.2303616851568222
1732873915466776600,2.145776611328125,-1.3315544128417969,-0.06895411014556885,1.14150071144104
1732873915476756000,2.155755859375,-1.355463981628418,0.10671937465667725,2.0985355377197266
1732873915486765800,2.165765869140625,-1.3251771926879883,0.1132204532623291,2.7352917194366455
1732873915496775400,2.175775390625,-1.3913793563842773,0.028694868087768555,2.9839959144592285
1732873915506754800,2.1857548828125,-1.394392967224121,-0.10733234882354736,3.302588939666748
1732873915516764700,2.1957646484375,-0.9490871429443359,-0.4598565101623535,2.9792561531066895
1732873915526774300,2.205774169921875,-0.9218740463256836,-0.7868754863739014,2.155684471130371
1732873915536753700,2.215753662109375,-0.8691635131835938,-1.077291488647461,0.9044164419174194
1732873915546763300,2.22576318359375,-1.492527961730957,-1.1875832080841064,-0.22852128744125366
1732873915556773000,2.235773193359375,-1.8299565315246582,-1.5805816650390625,-0.020580023527145386
1732873915566783000,2.245782958984375,-1.6139030456542969,-1.6967759132385254,0.5632356405258179
1732873915576762000,2.25576220703125,-0.9518098831176758,-1.6163108348846436,1.1569057703018188
1732873915586771700,2.265771728515625,-0.10079193115234375,-1.3100508451461792,2.0755863189697266
1732873915596781600,2.275781494140625,0.6095848083496094,-0.9897556900978088,3.513420343399048
1732873915606761000,2.285760986328125,1.2161684036254883,-0.8050915002822876,4.384242057800293
1732873915616770600,2.2957705078125,1.389204978942871,-0.6642916202545166,3.614583730697632
1732873915626780400,2.305780517578125,1.2868452072143555,-0.9229772090911865,0.31960105895996094
1732873915636759800,2.315759765625,0.7865781784057617,-1.291634440422058,-0.7114604115486145
1732873915646769400,2.325769287109375,0.6943149566650391,-1.5202219486236572,-0.7804676294326782
1732873915656779300,2.335779296875,0.946258544921875,-1.1319975852966309,-0.8411109447479248
1732873915666758700,2.345758544921875,1.0071659088134766,-0.863341212272644,-0.8419532775878906
1732873915676768300,2.355768310546875,0.8376379013061523,-1.0644749402999878,-0.9362717270851135
1732873915686777900,2.36577783203125,0.9020538330078125,-1.1413850784301758,-1.3356279134750366
1732873915696757200,2.37575732421875,0.7740974426269531,-0.9974802136421204,-1.0222370624542236
1732873915706767000,2.38576708984375,0.5900850296020508,-0.8785271048545837,-0.7169280052185059
1732873915716776700,2.395776611328125,0.5959749221801758,-1.1497154235839844,-0.13989917933940887
1732873915726756000,2.405756103515625,0.8954200744628906,-1.6016781330108643,0.5473763346672058
1732873915736766000,2.415765869140625,1.5040197372436523,-2.0937352180480957,0.6278119683265686
1732873915746775600,2.425775634765625,2.4683637619018555,-2.3196330070495605,0.04038889333605766
1732873915756754700,2.435754638671875,3.5042543411254883,-2.1795907020568848,-0.704882025718689
1732873915766764500,2.4457646484375,3.909438133239746,-1.8434042930603027,-2.013084888458252
1732873915776774100,2.455774169921875,3.166074752807617,-1.3825947046279907,-2.722637891769409
1732873915786753500,2.46575341796875,1.4241752624511719,-0.9378080368041992,-3.3229458332061768
1732873915796763400,2.475763427734375,-0.2029247283935547,-0.2591015696525574,-2.7018423080444336
1732873915806773000,2.48577294921875,-1.7545080184936523,0.34493982791900635,-1.8887518644332886
1732873915816782800,2.495782958984375,-2.886960029602051,0.795020580291748,-1.2717362642288208
1732873915826762200,2.50576220703125,-3.599449634552002,1.2322239875793457,-0.8472448587417603
1732873915836772000,2.515772216796875,-3.9701809883117676,1.5208014249801636,-0.4789789319038391
1732873915846781700,2.52578173828125,-3.8907432556152344,1.6365970373153687,-0.19684487581253052
1732873915856760800,2.5357607421875,-3.4294753074645996,1.6104071140289307,-0.0371842086315155
1732873915866770700,2.545770751953125,-2.6851511001586914,1.4317158460617065,0.549448549747467
1732873915876780300,2.5557802734375,-1.7263011932373047,1.256667971611023,1.156626582145691
1732873915886759700,2.565759765625,-0.7416114807128906,1.0080878734588623,1.5618435144424438
1732873915896769500,2.57576953125,0.34628772735595703,0.6131578683853149,1.7208836078643799
1732873915906779100,2.585779052734375,0.7696866989135742,0.46750807762145996,2.4052367210388184
1732873915916758500,2.595758544921875,1.1951103210449219,0.29074811935424805,1.5761669874191284
1732873915926768400,2.605768310546875,1.8696928024291992,0.0934748649597168,0.4702868163585663
1732873915936778000,2.615778076171875,2.145059585571289,0.01326286792755127,0.4115731120109558
1732873915946757000,2.625757080078125,1.970952033996582,0.008241534233093262,-0.3865464925765991
1732873915956767000,2.63576708984375,1.2941970825195312,-0.15939927101135254,-0.832221508026123
1732873915966776600,2.645776611328125,0.06217384338378906,0.15075933933258057,-0.3570449650287628
1732873915976756000,2.655755859375,0.4591102600097656,0.9348636865615845,-0.8278934955596924
1732873915986765800,2.665765869140625,0.6005916595458984,0.5920636653900146,-0.5073831081390381
1732873915996775400,2.675775390625,-0.8452959060668945,0.5026794672012329,-1.1000392436981201
1732873916006754800,2.6857548828125,-1.5118999481201172,0.6734317541122437,-1.2059376239776611
1732873916016764700,2.6957646484375,-1.7359037399291992,0.5877165794372559,-1.0750652551651
1732873916026774300,2.705774169921875,-2.147357940673828,0.6120626926422119,-0.9587559700012207
1732873916036753700,2.715753662109375,-2.166830539703369,0.569311261177063,-0.7641299366950989
1732873916046763500,2.725763427734375,-2.055927276611328,0.47392964363098145,-0.7591861486434937
1732873916056773000,2.735773193359375,-1.713912010192871,0.5145907402038574,-0.9953365325927734
1732873916066783000,2.745782958984375,-1.1070556640625,0.48409414291381836,-0.9615284204483032
1732873916076762000,2.75576220703125,-0.7426233291625977,0.2771404981613159,-1.009979486465454
1732873916086771700,2.765771728515625,-0.708439826965332,0.13295769691467285,-1.202068567276001
1732873916096781600,2.775781494140625,-0.59906005859375,-0.03935694694519043,-1.376131296157837
1732873916106761000,2.785760986328125,-0.3621196746826172,-0.10634839534759521,-1.6238843202590942
1732873916116770800,2.795770751953125,-0.20137786865234375,-0.1523207426071167,-1.7220053672790527
1732873916126780400,2.805780517578125,-0.11953163146972656,-0.243219792842865,-1.4883317947387695
1732873916136759800,2.815759765625,-0.1192617416381836,-0.35428041219711304,-1.2331421375274658
1732873916146769400,2.825769287109375,0.3952503204345703,-0.5134587287902832,-0.560748815536499
1732873916156779300,2.835779296875,0.9424419403076172,-0.21991848945617676,0.22783568501472473
1732873916166758400,2.84575830078125,0.9793891906738281,-0.3052052855491638,0.1480233371257782
1732873916176768300,2.855768310546875,0.5571136474609375,-0.4054805636405945,-0.0015167593955993652
1732873916186777900,2.86577783203125,0.008170127868652344,-0.2474827766418457,-0.351157546043396
1732873916196757200,2.87575732421875,-0.11481761932373047,-0.1481584906578064,0.02075117826461792
1732873916206767000,2.88576708984375,0.12781238555908203,-0.00208890438079834,0.6889115571975708
1732873916216776700,2.895776611328125,0.2644519805908203,-0.014833450317382812,1.1373167037963867
1732873916226756000,2.905756103515625,0.4653472900390625,0.023389697074890137,1.8735487461090088
1732873916236766000,2.915765869140625,0.7248830795288086,-0.24558353424072266,2.30592679977417
1732873916246775600,2.925775634765625,1.024026870727539,-0.752360463142395,2.6475367546081543
1732873916256755000,2.9357548828125,1.4315214157104492,-1.195480227470398,2.781001567840576
1732873916266764500,2.9457646484375,1.9313793182373047,-1.8893015384674072,2.6947245597839355
1732873916276774400,2.9557744140625,2.4830989837646484,-2.4736950397491455,2.4018239974975586
1732873916286753500,2.96575341796875,3.2215919494628906,-2.8010549545288086,1.984902262687683
1732873916296763400,2.975763427734375,3.68082332611084,-2.6340484619140625,1.4730087518692017
1732873916306773000,2.98577294921875,3.917017936706543,-2.140979528427124,0.7327309846878052
1732873916316782800,2.995782958984375,3.9521312713623047,-1.2788918018341064,0.5594626069068909
1732873916326762200,3.00576220703125,3.3190269470214844,-0.5361791849136353,1.0872070789337158
1732873916336771800,3.015771728515625,1.828068733215332,0.36414632201194763,0.854141891002655
1732873916346781700,3.02578173828125,0.4292154312133789,0.6631680727005005,0.2309257835149765
1732873916356760800,3.0357607421875,-0.6432151794433594,0.7451774477958679,-0.6412639617919922
1732873916366770400,3.0457705078125,-1.4157724380493164,0.7222502827644348,-1.6052488088607788
1732873916376780300,3.0557802734375,-2.1781420707702637,0.5734332203865051,-2.1268410682678223
1732873916386759700,3.065759765625,-2.6746912002563477,0.3885161876678467,-2.253584623336792
1732873916396769500,3.07576953125,-2.6641788482666016,0.23752880096435547,-2.2110369205474854
1732873916406779100,3.085779052734375,-2.1306910514831543,-0.06888115406036377,-1.802478313446045
1732873916416758500,3.095758544921875,-1.3451204299926758,-0.5764768719673157,-1.3557945489883423
1732873916426768400,3.105768310546875,-0.34563636779785156,-1.0412310361862183,-0.9910520911216736
1732873916436778000,3.115778076171875,0.6142749786376953,-1.1075677871704102,-0.8048422336578369
1732873916446757400,3.12575732421875,1.2096185684204102,-1.0070576667785645,-0.8694171905517578
1732873916456767000,3.13576708984375,1.3165197372436523,-0.8433325290679932,-0.7087839841842651
1732873916466776600,3.145776611328125,1.090749740600586,-0.7035020589828491,-0.5961365699768066
1732873916476756000,3.155755859375,0.7841796875,-0.7125102281570435,-0.725246787071228
1732873916486765800,3.165765869140625,0.5836048126220703,-0.8155508637428284,-0.8262914419174194
1732873916496775400,3.175775390625,0.1634359359741211,-0.6064384579658508,-0.6697025299072266
1732873916506754800,3.1857548828125,-0.06684494018554688,-0.5885908603668213,-0.18501931428909302
1732873916516764700,3.1957646484375,-0.5669698715209961,-0.6646758317947388,-0.07429562509059906
1732873916526774300,3.205774169921875,-1.0352363586425781,-0.5136791467666626,-0.08478286117315292
1732873916536753700,3.215753662109375,-1.4408292770385742,-0.4095699191093445,-0.10871930420398712
1732873916546763500,3.225763427734375,-1.7743120193481445,-0.2897151708602905,-0.27697569131851196
1732873916556773000,3.235773193359375,-2.1531519889831543,-0.12781283259391785,-0.40093913674354553
1732873916566783000,3.245782958984375,-2.450584888458252,-0.019520878791809082,-0.430713951587677
1732873916576762000,3.25576220703125,-2.57816743850708,-0.00977855920791626,-0.418440043926239
1732873916586772000,3.26577197265625,-2.4571356773376465,-0.19103723764419556,-0.4054833650588989
1732873916596781600,3.275781494140625,-1.7046136856079102,-0.4628942012786865,-0.5150241851806641
1732873916606761000,3.285760986328125,-0.9053220748901367,-0.7879263758659363,-0.31570547819137573
1732873916616770800,3.295770751953125,-0.14252758026123047,-1.0434337854385376,0.01129460334777832
1732873916626780400,3.305780517578125,0.6246500015258789,-1.1852102279663086,0.18644022941589355
1732873916636759800,3.315759765625,1.1019525527954102,-1.255091905593872,0.11700205504894257
1732873916646769700,3.325769775390625,1.3087129592895508,-1.2424204349517822,0.2594829201698303
1732873916656779300,3.335779296875,1.1968631744384766,-1.157034993171692,0.3161614239215851
1732873916666758400,3.34575830078125,0.8555698394775391,-1.2071595191955566,0.6897917985916138
1732873916676768300,3.355768310546875,0.4478311538696289,-1.175864815711975,0.9128819704055786
1732873916686777900,3.36577783203125,-0.055237770080566406,-1.1242859363555908,0.993798553943634
1732873916696757200,3.37575732421875,-0.31858253479003906,-1.095172643661499,1.0795397758483887
1732873916706767000,3.38576708984375,-0.5554618835449219,-1.0901938676834106,1.112585186958313
1732873916716776700,3.395776611328125,-0.2512941360473633,-1.1542788743972778,0.8292107582092285
1732873916726756000,3.405756103515625,0.37816524505615234,-1.24630868434906,0.21974077820777893
1732873916736766000,3.415765869140625,0.7200508117675781,-1.3348032236099243,-0.18977266550064087
1732873916746775800,3.42577587890625,0.8989629745483398,-1.3223739862442017,-0.23773719370365143
1732873916756754700,3.435754638671875,0.9636917114257812,-0.8838731050491333,-0.07385469228029251
1732873916766764500,3.4457646484375,0.94146728515625,-0.4728251099586487,0.057873692363500595
1732873916776774100,3.455774169921875,0.7469711303710938,-0.2586975395679474,0.23622718453407288
1732873916786753500,3.46575341796875,0.6199445724487305,-0.08148050308227539,0.5137426853179932
1732873916796763400,3.475763427734375,0.6240310668945312,0.21217980980873108,0.8719838261604309
1732873916806773200,3.485773193359375,0.7693328857421875,0.4459933936595917,1.087717890739441
1732873916816782800,3.495782958984375,0.8886117935180664,0.5959230661392212,1.3063937425613403
1732873916826762200,3.50576220703125,0.8121242523193359,0.5907348990440369,1.1919869184494019
1732873916836772000,3.515772216796875,0.7961759567260742,0.1659107655286789,0.7801978588104248
1732873916846781700,3.52578173828125,1.6654138565063477,-0.1960889995098114,0.01566523313522339
1732873916856760800,3.5357607421875,3.036083221435547,-0.3291458487510681,-1.0733656883239746
1732873916866770700,3.545770751953125,3.861745834350586,-0.34669631719589233,-2.77595591545105
1732873916876780300,3.5557802734375,4.067042350769043,0.0064002275466918945,-3.789824962615967
1732873916886759700,3.565759765625,3.3131160736083984,0.5334553718566895,-3.7213194370269775
1732873916896769300,3.575769287109375,2.0025787353515625,1.0521745681762695,-3.4110352993011475
1732873916906779100,3.585779052734375,0.06235980987548828,1.8397287130355835,-3.254201889038086
1732873916916758500,3.595758544921875,-1.702113151550293,2.2916319370269775,-2.84554386138916
1732873916926768400,3.605768310546875,-3.377962112426758,2.8500492572784424,-2.27899169921875
1732873916936778000,3.615778076171875,-4.229117393493652,3.1725194454193115,-1.8071107864379883
1732873916946757000,3.625757080078125,-4.255126953125,3.2716896533966064,-1.1740282773971558
1732873916956767000,3.63576708984375,-3.336520195007324,2.9325413703918457,-0.6081348657608032
1732873916966776600,3.645776611328125,-2.0072755813598633,2.3957741260528564,-0.36207878589630127
1732873916976756000,3.655755859375,-0.49295520782470703,1.6206029653549194,-0.258523553609848
1732873916986765800,3.665765869140625,0.8999547958374023,1.1283934116363525,-0.3168216943740845
1732873916996775400,3.675775390625,1.9700660705566406,0.7222452163696289,-0.6532351970672607
1732873917006754800,3.6857548828125,2.5566139221191406,0.6931827664375305,-0.9288861751556396
1732873917016764700,3.6957646484375,2.673661231994629,0.7487055063247681,-0.7211827635765076
1732873917026774300,3.705774169921875,2.001988410949707,0.935341477394104,-0.40531420707702637
1732873917036753700,3.715753662109375,0.7929391860961914,1.1253758668899536,-0.22780531644821167
1732873917046763500,3.725763427734375,-0.31238460540771484,1.218606948852539,-0.18212351202964783
1732873917056773000,3.735773193359375,-1.2605934143066406,1.2550395727157593,-0.27966731786727905
1732873917066783000,3.745782958984375,-1.8452215194702148,1.2276082038879395,-0.3624778985977173
1732873917076762000,3.75576220703125,-2.094651699066162,1.2481160163879395,-0.5287993550300598
1732873917086771700,3.765771728515625,-2.2815613746643066,1.2230947017669678,-0.7128125429153442
1732873917096781600,3.775781494140625,-2.2814273834228516,1.201700210571289,-0.8802533149719238
1732873917106761000,3.785760986328125,-2.314359188079834,1.2768442630767822,-0.9344720840454102
1732873917116770600,3.7957705078125,-2.4066786766052246,1.2899564504623413,-0.8975378274917603
1732873917126780400,3.805780517578125,-2.381420135498047,1.3149793148040771,-0.8537958860397339
1732873917136759800,3.815759765625,-2.2577733993530273,1.3090295791625977,-0.7254618406295776
1732873917146769400,3.825769287109375,-1.9519333839416504,1.219594955444336,-0.5660324096679688
1732873917156779300,3.835779296875,-1.6554489135742188,1.0930289030075073,-0.4555748999118805
1732873917166758400,3.84575830078125,-1.136124610900879,1.0086381435394287,-0.4748355746269226
1732873917176768300,3.855768310546875,-0.38443946838378906,0.9036580324172974,-0.5404527187347412
1732873917186777900,3.86577783203125,0.49907970428466797,0.8696123361587524,-0.64284747838974
1732873917196757200,3.87575732421875,0.8679170608520508,0.8261046409606934,-0.8543269038200378
1732873917206767000,3.88576708984375,0.9350357055664062,0.9260181784629822,-0.9094825983047485
1732873917216776700,3.895776611328125,0.8126316070556641,1.1201591491699219,-0.6451233625411987
1732873917226756000,3.905756103515625,0.5368747711181641,1.3143984079360962,-0.359648197889328
1732873917236766000,3.915765869140625,0.1773052215576172,1.5226314067840576,-0.1583285629749298
1732873917246775600,3.925775634765625,-0.15106964111328125,1.614018440246582,0.0012638121843338013
1732873917256755000,3.9357548828125,-0.2757892608642578,1.5667312145233154,0.22612930834293365
1732873917266764500,3.9457646484375,-0.060318946838378906,1.548668384552002,0.2777426242828369
1732873917276774100,3.955774169921875,0.44502830505371094,1.4223042726516724,0.10385914146900177
1732873917286753500,3.96575341796875,0.9936532974243164,1.18651282787323,0.04002191126346588
1732873917296763400,3.975763427734375,1.6813688278198242,0.9097890853881836,-0.11816752701997757
1732873917306773000,3.98577294921875,2.1489439010620117,0.6316266059875488,-0.20611976087093353
1732873917316782800,3.995782958984375,2.063582420349121,0.41313594579696655,-0.052579283714294434
1732873917326762200,4.00576220703125,2.121978759765625,0.15876173973083496,0.24606803059577942
1732873917336771800,4.015771728515625,2.3673629760742188,-0.13149221241474152,0.4041469991207123
1732873917346781700,4.02578173828125,2.5341882705688477,-0.38499733805656433,0.7761290669441223
1732873917356760800,4.0357607421875,2.7039642333984375,-0.3818149268627167,1.1100958585739136
1732873917366770400,4.0457705078125,2.826448440551758,-0.3747526705265045,1.3200492858886719
1732873917376780300,4.0557802734375,2.880194664001465,-0.5894680023193359,1.5700819492340088
1732873917386759700,4.065759765625,3.138251304626465,-0.9537864923477173,1.3937321901321411
1732873917396769500,4.07576953125,3.7252159118652344,-1.1618037223815918,-0.2143341600894928
1732873917406779100,4.085779052734375,3.8770313262939453,-1.236315369606018,-1.9216914176940918
1732873917416758500,4.095758544921875,3.7693910598754883,-1.064939260482788,-3.302480459213257
1732873917426768400,4.105768310546875,3.1948041915893555,-0.7464280128479004,-3.970782518386841
1732873917436778000,4.115778076171875,1.9752922058105469,-0.42802345752716064,-4.274014472961426
1732873917446757000,4.125757080078125,0.29315185546875,-0.23324865102767944,-4.099020957946777
1732873917456767000,4.13576708984375,-1.6395692825317383,0.06969225406646729,-3.409656524658203
1732873917466776600,4.145776611328125,-2.9593048095703125,0.366153746843338,-2.497232675552368
1732873917476756000,4.155755859375,-3.8009519577026367,0.743461549282074,-0.801261305809021
1732873917486765800,4.165765869140625,-3.321025848388672,1.0127933025360107,2.11843204498291
1732873917496775400,4.175775390625,-2.8241381645202637,0.5566949844360352,2.8114194869995117
1732873917506754800,4.1857548828125,-2.290060043334961,0.0614582896232605,0.3591740131378174
1732873917516764700,4.1957646484375,-2.05513858795166,-0.8055658340454102,-1.2143548727035522
1732873917526774500,4.2057744140625,-0.773076057434082,-1.6705015897750854,-1.9457509517669678
1732873917536753700,4.215753662109375,0.7081069946289062,-1.8197380304336548,-2.2610678672790527
1732873917546763500,4.225763427734375,1.8042173385620117,-1.5689681768417358,-2.436152696609497
1732873917556773000,4.235773193359375,1.9928903579711914,-1.2916046380996704,-2.652895212173462
1732873917566783000,4.245782958984375,1.4916801452636719,-0.8139356970787048,-2.806774616241455
1732873917576762000,4.25576220703125,0.5511417388916016,-0.5561584234237671,-2.200745105743408
1732873917586772000,4.26577197265625,-0.9020500183105469,0.042996183037757874,-1.3662257194519043
1732873917596781600,4.275781494140625,-2.0655221939086914,0.45938870310783386,-0.48114609718322754
1732873917606761000,4.285760986328125,-3.1254310607910156,0.8432586789131165,0.34356456995010376
1732873917616770800,4.295770751953125,-3.9473586082458496,1.0481817722320557,0.09977729618549347
1732873917626780400,4.305780517578125,-4.3277764320373535,1.1609888076782227,0.2235267162322998
1732873917636759800,4.315759765625,-4.307872295379639,1.1985583305358887,-0.10964909195899963
1732873917646769700,4.325769775390625,-3.9144344329833984,1.1673121452331543,-0.14364013075828552
1732873917656779300,4.335779296875,-3.2387518882751465,1.0802149772644043,0.2502668499946594
1732873917666758400,4.34575830078125,-2.1061720848083496,1.0297672748565674,1.1221574544906616
1732873917676768300,4.355768310546875,-0.4783763885498047,1.059398889541626,2.1988093852996826
1732873917686777900,4.36577783203125,-0.2585916519165039,0.4928450882434845,0.2074926346540451
1732873917696757200,4.37575732421875,-0.5008554458618164,-0.136764258146286,-0.992863118648529
1732873917706767000,4.38576708984375,0.12590789794921875,-0.7921392917633057,-0.792940616607666
1732873917716776700,4.395776611328125,1.2100286483764648,-1.02524995803833,-0.42152202129364014
1732873917726756000,4.405756103515625,1.7963180541992188,-0.9938371181488037,-0.30509302020072937
1732873917736766000,4.415765869140625,1.5687541961669922,-1.044359803199768,-0.15550054609775543
1732873917746775600,4.425775634765625,0.807373046875,-1.0158947706222534,0.15946361422538757
1732873917756754700,4.435754638671875,0.21843910217285156,-0.8696586489677429,0.30635759234428406
1732873917766764500,4.4457646484375,-0.4900627136230469,-0.5484021902084351,0.1530429720878601
1732873917776774100,4.455774169921875,-0.3988313674926758,-0.5481278896331787,0.4271480143070221
1732873917786753500,4.46575341796875,-0.0730752944946289,-0.36216986179351807,0.47360190749168396
1732873917796763400,4.475763427734375,0.5039329528808594,-0.280860960483551,0.15850093960762024
1732873917806773200,4.485773193359375,1.4064226150512695,-0.3557039499282837,0.026327326893806458
1732873917816782800,4.495782958984375,1.9904212951660156,-0.45212265849113464,-0.3483738303184509
1732873917826762200,4.50576220703125,1.9997730255126953,-0.593015730381012,-1.129781723022461
1732873917836772000,4.515772216796875,2.485595703125,-0.5807849764823914,-0.5127168893814087
1732873917846781700,4.52578173828125,2.502285957336426,-0.5228521823883057,-0.42147696018218994
1732873917856760800,4.5357607421875,2.0068655014038086,-0.4735879898071289,-0.564582109451294
1732873917866770700,4.545770751953125,1.7392091751098633,-0.5564379096031189,-0.21834202110767365
1732873917876780300,4.5557802734375,1.7113275527954102,-0.6163119077682495,0.18606197834014893
1732873917886759700,4.565759765625,1.7746591567993164,-0.5390521883964539,0.220319926738739
1732873917896769300,4.575769287109375,1.704024314880371,-0.37316834926605225,-0.1108957976102829
1732873917906779100,4.585779052734375,1.1881933212280273,-0.2898924946784973,-0.4248701333999634
1732873917916758500,4.595758544921875,0.8330440521240234,-0.2722526490688324,-0.25192567706108093
1732873917926768400,4.605768310546875,0.9976959228515625,-0.15856565535068512,0.9369581341743469
1732873917936778000,4.615778076171875,1.5027647018432617,-0.42786380648612976,1.3544199466705322
1732873917946757000,4.625757080078125,2.0588321685791016,-0.876096785068512,0.8543727397918701
1732873917956767000,4.63576708984375,2.8748369216918945,-1.251983642578125,0.1420224905014038
1732873917966776800,4.64577685546875,3.656343460083008,-1.0984830856323242,-1.4084357023239136
1732873917976756000,4.655755859375,3.77077579498291,-0.3563632071018219,-2.0475664138793945
1732873917986765800,4.665765869140625,2.280454635620117,0.6081163883209229,-2.463676929473877
1732873917996775400,4.675775390625,-0.0971078872680664,1.5448558330535889,-3.2452328205108643
1732873918006754800,4.6857548828125,-2.104051113128662,2.268946647644043,-3.4583077430725098
1732873918016764700,4.6957646484375,-3.444974422454834,2.7507011890411377,-2.976652145385742
1732873918026774300,4.705774169921875,-4.351304054260254,3.2227020263671875,-2.2296953201293945
1732873918036753700,4.715753662109375,-4.680983066558838,3.5205023288726807,-1.6168328523635864
1732873918046763500,4.725763427734375,-4.9503889083862305,3.369159460067749,-1.4478410482406616
1732873918056773000,4.735773193359375,-4.658918857574463,3.105581045150757,-1.0284090042114258
1732873918066783000,4.745782958984375,-3.7707371711730957,2.524766683578491,-1.1451504230499268
1732873918076762000,4.75576220703125,-2.4221982955932617,1.5489848852157593,-1.406510353088379
1732873918086771700,4.765771728515625,-0.8454179763793945,0.7835651636123657,-1.6367261409759521
1732873918096781600,4.775781494140625,2.1279706954956055,0.25599950551986694,-0.8980581760406494
1732873918106761000,4.785760986328125,3.8806581497192383,-0.06684538722038269,-0.9519283771514893
1732873918116770600,4.7957705078125,3.230642318725586,-0.38714730739593506,-3.1565475463867188
1732873918126780400,4.805780517578125,2.7407007217407227,-0.3913137912750244,-3.4778685569763184
1732873918136759800,4.815759765625,2.2202768325805664,-0.11336423456668854,-2.550776481628418
1732873918146769400,4.825769287109375,1.5679407119750977,0.1821974813938141,-1.5506367683410645
1732873918156779300,4.835779296875,0.6586809158325195,0.8092300891876221,-0.9833575487136841
1732873918166758400,4.84575830078125,-0.7536077499389648,1.3366475105285645,-0.576490581035614
1732873918176768300,4.855768310546875,-2.0269083976745605,1.4242911338806152,-0.13589885830879211
1732873918186777900,4.86577783203125,-3.1919736862182617,1.6172373294830322,0.23343539237976074
1732873918196757200,4.87575732421875,-3.856006622314453,1.698440432548523,0.36318108439445496
1732873918206767000,4.88576708984375,-4.052581787109375,1.6948661804199219,0.07778948545455933
1732873918216776700,4.895776611328125,-4.188876152038574,1.5583148002624512,-0.23102495074272156
1732873918226756000,4.905756103515625,-3.7313919067382812,1.4720406532287598,-0.5224483609199524
1732873918236766000,4.915765869140625,-2.8360939025878906,1.442895770072937,-0.5106387138366699
1732873918246775600,4.925775634765625,-1.6945581436157227,1.4884326457977295,-0.3203026056289673
1732873918256754700,4.935754638671875,-0.9697904586791992,1.4648213386535645,-0.4614134430885315
1732873918266764500,4.9457646484375,-0.24020957946777344,1.3252583742141724,-0.6443401575088501
1732873918276774400,4.9557744140625,0.4942913055419922,1.179578185081482,-0.9643757343292236
1732873918286753500,4.96575341796875,0.9967727661132812,1.1049715280532837,-1.1792323589324951
1732873918296763400,4.975763427734375,1.4419851303100586,1.018389344215393,-1.2394394874572754
1732873918306773200,4.985773193359375,1.6454057693481445,1.0851202011108398,-1.3760273456573486
1732873918316782800,4.995782958984375,1.461014747619629,0.984777569770813,-0.8408836126327515
1732873918326762200,5.00576220703125,0.6852893829345703,1.0360605716705322,0.012567929923534393
1732873918336771800,5.015771728515625,-0.32500457763671875,1.3489314317703247,0.11629289388656616
1732873918346781700,5.02578173828125,-0.24359607696533203,1.5799670219421387,-0.49973517656326294
1732873918356760800,5.0357607421875,0.22794818878173828,0.6205711960792542,-1.6749359369277954
1732873918366770400,5.0457705078125,2.1839685440063477,1.0854954719543457,-0.027257032692432404
1732873918376780300,5.0557802734375,2.2845640182495117,1.3667426109313965,0.5480530858039856
1732873918386759700,5.065759765625,1.5161027908325195,1.1409319639205933,0.6469390988349915
1732873918396769500,5.07576953125,1.2192792892456055,0.8495771288871765,0.17054176330566406
1732873918406779100,5.085779052734375,1.5594158172607422,0.5300465822219849,-0.1866345852613449
1732873918416758500,5.095758544921875,2.0457286834716797,0.15501245856285095,-0.14539840817451477
1732873918426768400,5.105768310546875,2.3813934326171875,-0.374741792678833,0.06912843883037567
1732873918436778000,5.115778076171875,2.4924659729003906,-0.7962480187416077,-0.11767859756946564
1732873918446757000,5.125757080078125,3.0422353744506836,-0.9182201623916626,-0.04807913303375244
1732873918456767000,5.13576708984375,3.614321708679199,-0.9962847232818604,-0.2533595561981201
1732873918466776800,5.14577685546875,4.259066581726074,-1.0805789232254028,-0.16568328440189362
1732873918476756000,5.155755859375,4.332223892211914,-1.0877506732940674,-0.37141406536102295
1732873918486765800,5.165765869140625,3.500751495361328,-1.0372885465621948,-0.8976638317108154
1732873918496775400,5.175775390625,1.7884654998779297,-1.0717368125915527,-2.0473339557647705
1732873918506754800,5.1857548828125,0.6521921157836914,-0.9296499490737915,-2.817429780960083
1732873918516764700,5.1957646484375,-0.2574005126953125,-0.612951397895813,-2.9529004096984863
1732873918526774300,5.205774169921875,-0.8012876510620117,-0.2810150980949402,-2.535017490386963
1732873918536753700,5.215753662109375,-1.4891157150268555,0.054497331380844116,-1.9343922138214111
1732873918546763500,5.225763427734375,-2.234424591064453,0.1235828697681427,-1.7939550876617432
1732873918556773000,5.235773193359375,-2.5319771766662598,0.03176617622375488,-2.0707714557647705
1732873918566783000,5.245782958984375,-2.548238754272461,-0.1853078156709671,-2.3182079792022705
1732873918576762000,5.25576220703125,-2.0282163619995117,-0.4171808063983917,-2.1034603118896484
1732873918586772000,5.26577197265625,-1.0807571411132812,-0.7997740507125854,-2.3128533363342285
1732873918596781600,5.275781494140625,0.4095487594604492,-1.128735065460205,-2.8881213665008545
1732873918606761000,5.285760986328125,0.2519569396972656,-1.0472090244293213,-3.306776523590088
1732873918616770800,5.295770751953125,-0.11842536926269531,-0.8922611474990845,-3.1339805126190186
1732873918626780400,5.305780517578125,-0.4447507858276367,-0.499178022146225,-2.0011019706726074
1732873918636759800,5.315759765625,-0.6680564880371094,-0.05863615870475769,-1.4291889667510986
1732873918646769700,5.325769775390625,-1.0916166305541992,0.37383919954299927,-0.950102686882019
1732873918656779300,5.335779296875,-1.596846580505371,0.616685152053833,-0.7477585673332214
1732873918666758400,5.34575830078125,-2.3246188163757324,0.8165037631988525,-0.9081308841705322
1732873918676768300,5.355768310546875,-2.6713643074035645,0.9880994558334351,-0.8128045797348022
1732873918686777900,5.36577783203125,-2.787992477416992,1.1315042972564697,-0.8762546181678772
1732873918696757200,5.37575732421875,-2.79415225982666,1.2124286890029907,-0.9687105417251587
1732873918706767000,5.38576708984375,-2.6755642890930176,1.2276077270507812,-0.8512113690376282
1732873918716776700,5.395776611328125,-2.293522357940674,1.1764034032821655,-0.6134915947914124
1732873918726756000,5.405756103515625,-1.8660235404968262,1.0257773399353027,-0.4919019937515259
1732873918736766000,5.415765869140625,-1.414586067199707,0.8266284465789795,-0.42417293787002563
1732873918746775600,5.425775634765625,-1.0325613021850586,0.6255273818969727,-0.5827207565307617
1732873918756754700,5.435754638671875,-0.6121816635131836,0.36455145478248596,-0.8327914476394653
1732873918766764500,5.4457646484375,-0.15820884704589844,0.15296372771263123,-0.8475143313407898
1732873918776774100,5.455774169921875,0.3509101867675781,-0.10147303342819214,-0.6926435232162476
1732873918786753500,5.46575341796875,0.7883462905883789,-0.3042174279689789,-0.5555102825164795
1732873918796763400,5.475763427734375,1.3217039108276367,-0.557494044303894,-0.6103881001472473
1732873918806773200,5.485773193359375,1.6110858917236328,-0.791999340057373,-0.690959632396698
1732873918816782800,5.495782958984375,1.6037960052490234,-0.9541348814964294,-0.7766582369804382
1732873918826762200,5.50576220703125,1.105942726135254,-0.9566214084625244,-0.7721807956695557
1732873918836772000,5.515772216796875,0.39047813415527344,-0.7778439521789551,-0.6764146089553833
1732873918846781700,5.52578173828125,-0.32462024688720703,-0.5533629655838013,-0.39374879002571106
1732873918856760800,5.5357607421875,-0.7091083526611328,-0.3684830069541931,-0.08986380696296692
1732873918866770700,5.545770751953125,-1.1414127349853516,-0.15768340229988098,0.23082125186920166
1732873918876780300,5.5557802734375,-1.236429214477539,-0.08140522241592407,-0.06967496126890182
1732873918886759700,5.565759765625,-0.8409767150878906,0.19289946556091309,0.23515938222408295
1732873918896769300,5.575769287109375,-0.07011604309082031,0.28289592266082764,0.17261958122253418
1732873918906779100,5.585779052734375,1.1696205139160156,0.22314667701721191,-0.06339442729949951
1732873918916758500,5.595758544921875,1.8105974197387695,0.02745455503463745,-0.2602943480014801
1732873918926768400,5.605768310546875,1.9440898895263672,-0.08250242471694946,-0.021903440356254578
1732873918936778000,5.615778076171875,1.9556617736816406,0.026278167963027954,0.31588298082351685
1732873918946757000,5.625757080078125,1.9219579696655273,0.03534670174121857,0.35841625928878784
1732873918956767000,5.63576708984375,1.8356037139892578,0.22699511051177979,0.169167160987854
1732873918966776800,5.64577685546875,1.5959577560424805,0.4956149458885193,0.2020532339811325
1732873918976756000,5.655755859375,1.3800678253173828,0.6282265782356262,0.6814216375350952
1732873918986765800,5.665765869140625,1.429703712463379,0.511296272277832,1.0734705924987793
1732873918996775400,5.675775390625,1.9987144470214844,-0.03220553696155548,1.2138265371322632
1732873919006754800,5.6857548828125,2.7258033752441406,-0.8680105805397034,0.22636492550373077
1732873919016764700,5.6957646484375,3.757321357727051,-1.6905887126922607,-1.32882821559906
1732873919026774300,5.705774169921875,4.672335624694824,-2.019545793533325,-2.7646777629852295
1732873919036753700,5.715753662109375,4.513035774230957,-1.8528270721435547,-4.021968364715576
1732873919046763500,5.725763427734375,3.113558769226074,-1.2930887937545776,-4.593541145324707
1732873919056773000,5.735773193359375,1.2202215194702148,-0.4401695430278778,-4.199865818023682
1732873919066783000,5.745782958984375,-1.0904064178466797,0.6892611980438232,-3.2010276317596436
1732873919076762000,5.75576220703125,-2.893634796142578,1.7171053886413574,-2.3692007064819336
1732873919086771700,5.765771728515625,-4.526490688323975,2.6523187160491943,-1.6982617378234863
1732873919096781600,5.775781494140625,-5.540981769561768,3.3222596645355225,-1.3134925365447998
1732873919106761000,5.785760986328125,-6.188560485839844,3.9745404720306396,-1.1427974700927734
1732873919116770800,5.795770751953125,-6.675509452819824,4.22097635269165,-1.4728889465332031
1732873919126780400,5.805780517578125,-5.328914642333984,3.9854142665863037,-2.1588361263275146
1732873919136759800,5.815759765625,-3.5788235664367676,3.6066269874572754,-1.0817567110061646
1732873919146769400,5.825769287109375,-1.793564796447754,2.8359408378601074,-0.5865715146064758
1732873919156779300,5.835779296875,-0.5639772415161133,1.733085036277771,-1.1357014179229736
1732873919166758400,5.84575830078125,0.44779205322265625,0.6168559789657593,-1.8153425455093384
1732873919176768300,5.855768310546875,1.8214807510375977,-0.3304259181022644,-2.3832969665527344
1732873919186777900,5.86577783203125,3.0688705444335938,-0.8446834087371826,-2.6650662422180176
1732873919196757200,5.87575732421875,4.063107490539551,-0.9727104306221008,-2.9098687171936035
1732873919206767000,5.88576708984375,4.480795860290527,-0.6887292861938477,-2.725341558456421
1732873919216776700,5.895776611328125,4.082088470458984,-0.26148301362991333,-2.726919412612915
1732873919226756000,5.905756103515625,2.7968692779541016,-0.1570957601070404,-2.580554962158203
1732873919236766000,5.915765869140625,0.9694356918334961,0.0545358806848526,-2.3974902629852295
1732873919246775600,5.925775634765625,-0.7109212875366211,0.42885103821754456,-1.966890573501587
1732873919256754700,5.935754638671875,-2.005821704864502,0.8149644136428833,-1.2169530391693115
1732873919266764500,5.9457646484375,-3.240318775177002,1.1588993072509766,-0.38257497549057007
1732873919276774100,5.955774169921875,-4.153313159942627,1.4898358583450317,0.13653919100761414
1732873919286753500,5.96575341796875,-4.972339153289795,1.8147389888763428,0.1946404129266739
1732873919296763400,5.975763427734375,-5.127861022949219,1.9931269884109497,0.059779174625873566
1732873919306773000,5.98577294921875,-4.610628604888916,2.006274938583374,-0.047509267926216125
1732873919316782800,5.995782958984375,-3.6579670906066895,1.9302202463150024,-0.21331444382667542
1732873919326762200,6.00576220703125,-2.339040756225586,1.7375388145446777,-0.49303799867630005
1732873919336771800,6.015771728515625,-1.1036996841430664,1.5613770484924316,-0.6380736231803894
1732873919346781700,6.02578173828125,0.15602397918701172,1.239872932434082,-0.807267963886261
1732873919356760800,6.0357607421875,1.1936321258544922,1.0471727848052979,-1.0188283920288086
1732873919366770400,6.0457705078125,1.8917274475097656,0.8734743595123291,-1.0942622423171997
1732873919376780300,6.0557802734375,2.3770036697387695,0.7979376316070557,-1.093397855758667
1732873919386759700,6.065759765625,2.5363550186157227,0.7798078060150146,-1.1637827157974243
1732873919396769500,6.07576953125,2.300037384033203,0.8474907875061035,-0.9801414608955383
1732873919406779100,6.085779052734375,1.8118085861206055,0.9844768047332764,-0.5879616737365723
1732873919416758500,6.095758544921875,1.1650505065917969,1.1433346271514893,-0.12547162175178528
1732873919426768400,6.105768310546875,0.7166566848754883,1.2053170204162598,0.2673078179359436
1732873919436778000,6.115778076171875,0.35677337646484375,1.2233247756958008,0.5835290551185608
1732873919446757000,6.125757080078125,0.2601642608642578,1.1862273216247559,0.6135933995246887
1732873919456767000,6.13576708984375,0.28337860107421875,1.06216561794281,0.41129687428474426
1732873919466776800,6.14577685546875,0.3882007598876953,0.8674603700637817,0.20258206129074097
1732873919476756000,6.155755859375,0.42135143280029297,0.7563530802726746,0.0599777027964592
1732873919486765800,6.165765869140625,0.24394702911376953,0.6760830879211426,-0.06766131520271301
1732873919496775400,6.175775390625,0.6892023086547852,0.7917829751968384,0.07957211136817932
1732873919506754800,6.1857548828125,1.065281867980957,0.7440032958984375,0.9458520412445068
1732873919516764700,6.1957646484375,1.2190475463867188,0.33011409640312195,1.7513432502746582
1732873919526774300,6.205774169921875,1.3971185684204102,-0.5588945150375366,2.2079551219940186
1732873919536753700,6.215753662109375,2.100543975830078,-1.7104289531707764,2.4728407859802246
1732873919546763500,6.225763427734375,3.399184226989746,-3.0630791187286377,2.0902962684631348
1732873919556773000,6.235773193359375,4.7407331466674805,-3.632664442062378,0.4316369593143463
1732873919566783000,6.245782958984375,5.588953971862793,-3.4103212356567383,-1.9783574342727661
1732873919576762000,6.25576220703125,5.301015853881836,-2.6278908252716064,-4.136722087860107
1732873919586772000,6.26577197265625,3.9313859939575195,-1.6136314868927002,-4.9845356941223145
1732873919596781600,6.275781494140625,1.4869012832641602,-0.503611147403717,-4.170131206512451
1732873919606761000,6.285760986328125,-0.5820159912109375,0.473664253950119,-2.5609631538391113
1732873919616770800,6.295770751953125,-2.8736915588378906,1.4760479927062988,-1.1026439666748047
1732873919626780400,6.305780517578125,-4.41806173324585,1.9968832731246948,-0.07849311828613281
1732873919636759800,6.315759765625,-5.397525787353516,2.3392622470855713,0.7669902443885803
1732873919646769700,6.325769775390625,-5.555302143096924,2.3484842777252197,0.7043551802635193
1732873919656779300,6.335779296875,-4.887553691864014,1.289476752281189,-0.6428770422935486
1732873919666758400,6.34575830078125,-3.484548568725586,-0.08608581870794296,-2.6976845264434814
1732873919676768300,6.355768310546875,-0.5018758773803711,-1.235528588294983,-4.127002239227295
1732873919686777900,6.36577783203125,2.4002580642700195,-1.961386799812317,-4.833463668823242
1732873919696757200,6.37575732421875,4.035299301147461,-2.034961223602295,-5.15850305557251
1732873919706767000,6.38576708984375,4.426784515380859,-1.6648783683776855,-4.825163841247559
1732873919716776700,6.395776611328125,3.9131383895874023,-1.042471170425415,-3.7448105812072754
1732873919726756000,6.405756103515625,2.224496841430664,-0.399140864610672,-2.540090322494507
1732873919736766000,6.415765869140625,0.4257392883300781,0.10547298192977905,-1.6741032600402832
1732873919746775600,6.425775634765625,-1.192957878112793,0.6394020915031433,-0.9497761726379395
1732873919756754700,6.435754638671875,-2.1617393493652344,1.1400983333587646,-0.6147961616516113
1732873919766764500,6.4457646484375,-2.7447452545166016,1.4970306158065796,-0.5270733833312988
1732873919776774100,6.455774169921875,-2.8340225219726562,1.6114799976348877,-0.4666276276111603
1732873919786753500,6.46575341796875,-2.6017441749572754,1.582122802734375,-0.4527907967567444
1732873919796763400,6.475763427734375,-2.126831531524658,1.4351155757904053,-0.32974353432655334
1732873919806773200,6.485773193359375,-1.469369888305664,1.2790226936340332,-0.42774665355682373
1732873919816782800,6.495782958984375,-0.859379768371582,1.1468935012817383,-0.6143951416015625
1732873919826762200,6.50576220703125,-0.6321182250976562,0.939821720123291,-0.7950968146324158
1732873919836772000,6.515772216796875,-0.2659645080566406,0.710608720779419,-0.9458136558532715
1732873919846781700,6.52578173828125,0.028247833251953125,0.419891893863678,-0.9732311367988586
1732873919856760800,6.5357607421875,0.35585975646972656,0.2319120168685913,-0.9921738505363464
1732873919866770700,6.545770751953125,0.5397529602050781,0.021046943962574005,-0.8178340196609497
1732873919876780300,6.5557802734375,0.5705060958862305,-0.2981806993484497,-0.2697284519672394
1732873919886759700,6.565759765625,0.4295969009399414,-0.3779100775718689,0.09646430611610413
1732873919896769300,6.575769287109375,0.24056339263916016,-0.5336146950721741,0.12056043744087219
1732873919906779100,6.585779052734375,0.039081573486328125,-0.6382296085357666,-0.15930062532424927
1732873919916758500,6.595758544921875,-0.057933807373046875,-0.7486037611961365,-0.499751478433609
1732873919926768400,6.605768310546875,-0.0017347335815429688,-0.8031622767448425,-0.7014371156692505
1732873919936778000,6.615778076171875,0.02817821502685547,-0.6590112447738647,-0.42820388078689575
1732873919946757000,6.625757080078125,-0.027441024780273438,-0.6000145077705383,-0.14809763431549072
1732873919956767000,6.63576708984375,-0.1670207977294922,-0.4792943000793457,0.005736649036407471
1732873919966776800,6.64577685546875,-0.3205556869506836,-0.14168252050876617,0.1816841959953308
1732873919976756000,6.655755859375,-0.40592002868652344,0.23672983050346375,0.2137775421142578
1732873919986765800,6.665765869140625,-0.5463228225708008,0.203263059258461,0.36732134222984314
1732873919996775400,6.675775390625,-0.9746408462524414,0.32454079389572144,0.5215623378753662
1732873920006754800,6.6857548828125,-1.4611902236938477,0.4568071961402893,0.8826655745506287
1732873920016764700,6.6957646484375,-1.500070571899414,0.500193178653717,1.5574625730514526
1732873920026774300,6.705774169921875,-1.3233509063720703,0.5589203834533691,1.891455888748169
1732873920036753700,6.715753662109375,-1.1105327606201172,0.6261279582977295,1.7243834733963013
1732873920046763500,6.725763427734375,-0.8605260848999023,0.9137552976608276,1.0205121040344238
1732873920056773000,6.735773193359375,-0.2881650924682617,1.2392585277557373,0.5374926328659058
1732873920066783000,6.745782958984375,-0.049614906311035156,1.3436970710754395,0.9726732969284058
1732873920076762000,6.75576220703125,0.8263044357299805,0.9017938375473022,2.376957893371582
1732873920086771700,6.765771728515625,1.9576234817504883,0.1720069944858551,2.9337494373321533
1732873920096781600,6.775781494140625,3.417344093322754,-1.0102787017822266,1.985729694366455
1732873920106761000,6.785760986328125,4.714756011962891,-1.6938514709472656,0.5918859839439392
1732873920116770600,6.7957705078125,5.479220390319824,-1.2178189754486084,-1.8627285957336426
1732873920126780400,6.805780517578125,5.0898590087890625,-0.37693727016448975,-3.765439987182617
1732873920136759800,6.815759765625,3.504049301147461,0.19263935089111328,-4.599215984344482
1732873920146769400,6.825769287109375,1.1945734024047852,0.9350778460502625,-4.305525779724121
1732873920156779300,6.835779296875,-1.6690187454223633,1.5842217206954956,-2.8469135761260986
1732873920166758400,6.84575830078125,-3.664055824279785,2.3594253063201904,-0.901154637336731
1732873920176768300,6.855768310546875,-3.7249717712402344,3.0037667751312256,-0.18592321872711182
1732873920186777900,6.86577783203125,-2.872410297393799,2.407984495162964,0.37852150201797485
1732873920196757200,6.87575732421875,-0.8599033355712891,1.545229196548462,0.498047411441803
1732873920206767000,6.88576708984375,1.2583465576171875,0.754799485206604,0.27410686016082764
1732873920216776700,6.895776611328125,2.2512168884277344,0.31323346495628357,-0.23620450496673584
1732873920226756000,6.905756103515625,2.326268196105957,0.44803017377853394,-0.8421567678451538
1732873920236766000,6.915765869140625,1.4807586669921875,0.792415976524353,-1.1678133010864258
1732873920246775600,6.925775634765625,0.6321907043457031,1.1347357034683228,-1.2331743240356445
1732873920256754700,6.935754638671875,-0.33122730255126953,1.2859500646591187,-0.875796377658844
1732873920266764500,6.9457646484375,-0.8054370880126953,1.2467656135559082,-0.08949458599090576
1732873920276774100,6.955774169921875,-0.9696798324584961,1.3215543031692505,0.16831982135772705
1732873920286753500,6.96575341796875,-0.6948347091674805,1.1415560245513916,0.06186628341674805
1732873920296763400,6.975763427734375,-0.05022907257080078,0.7814239859580994,-0.44694334268569946
1732873920306773000,6.98577294921875,0.6542434692382812,0.6238810420036316,-1.172079086303711
1732873920316782800,6.995782958984375,1.3790273666381836,0.49449291825294495,-1.6227121353149414
1732873920326762200,7.00576220703125,1.5731897354125977,0.4116489887237549,-1.685638189315796
1732873920336771800,7.015771728515625,1.0325632095336914,0.5142011046409607,-1.5760517120361328
1732873920346781700,7.02578173828125,-0.14584636688232422,0.7189186811447144,-1.2136138677597046
1732873920356760800,7.0357607421875,-1.3249502182006836,0.9628256559371948,-0.6157180070877075
1732873920366770400,7.0457705078125,-2.4246015548706055,1.1985780000686646,0.05859178304672241
1732873920376780300,7.0557802734375,-2.259215831756592,1.3942451477050781,0.3911663591861725
1732873920386759700,7.065759765625,-1.6400785446166992,1.5272561311721802,0.5493451356887817
1732873920396769500,7.07576953125,-1.1779766082763672,1.5181810855865479,0.5595138669013977
1732873920406779100,7.085779052734375,-0.8281641006469727,1.6113836765289307,0.39174124598503113
1732873920416758500,7.095758544921875,-0.4021167755126953,1.4514795541763306,0.47416627407073975
1732873920426768400,7.105768310546875,-0.4676551818847656,1.2948890924453735,0.5171618461608887
1732873920436778000,7.115778076171875,-0.9456205368041992,1.363757610321045,0.34024345874786377
1732873920446757400,7.12575732421875,-1.7725601196289062,1.417098045349121,-0.04554176330566406
1732873920456767000,7.13576708984375,-3.1355772018432617,1.3739864826202393,-0.6802285313606262
1732873920466776800,7.14577685546875,-4.970338344573975,1.3113257884979248,-1.2256813049316406
1732873920476756000,7.155755859375,-5.191990375518799,1.2642061710357666,-1.225896954536438
1732873920486765800,7.165765869140625,-4.4199724197387695,1.2987949848175049,-0.9127988815307617
1732873920496775400,7.175775390625,-3.365475654602051,1.2758831977844238,-0.4551597237586975
1732873920506754800,7.1857548828125,-1.5676383972167969,1.2512893676757812,-0.36169201135635376
1732873920516764700,7.1957646484375,0.09399127960205078,1.1307202577590942,-0.45346343517303467
1732873920526774300,7.205774169921875,1.3115568161010742,1.1205496788024902,-1.036611557006836
1732873920536753700,7.215753662109375,2.4684972763061523,1.1667766571044922,-2.006662368774414
1732873920546763500,7.225763427734375,2.740818977355957,1.092362642288208,-2.481050491333008
1732873920556773000,7.235773193359375,2.6518239974975586,0.9478310942649841,-2.6318206787109375
1732873920566783000,7.245782958984375,2.292107582092285,0.7775166034698486,-2.4223251342773438
1732873920576762000,7.25576220703125,1.9170160293579102,0.8600781559944153,-2.165295124053955
1732873920586772000,7.26577197265625,1.6034879684448242,1.0634539127349854,-1.6425511837005615
1732873920596781600,7.275781494140625,1.4956836700439453,1.209991455078125,-1.202913761138916
1732873920606761000,7.285760986328125,1.2734737396240234,1.3181133270263672,-0.7278078198432922
1732873920616770800,7.295770751953125,1.0857582092285156,1.4581284523010254,-0.6653810739517212
1732873920626780400,7.305780517578125,1.0309648513793945,1.6512820720672607,-0.6801329851150513
1732873920636759800,7.315759765625,0.4080076217651367,1.8894882202148438,-0.3558740019798279
1732873920646769700,7.325769775390625,-0.4632549285888672,1.9877694845199585,-0.2835272550582886
1732873920656779300,7.335779296875,-1.1042251586914062,1.979974389076233,-0.3423212766647339
1732873920666758400,7.34575830078125,-1.5990934371948242,1.939704179763794,-0.4410150647163391
1732873920676768300,7.355768310546875,-1.8861074447631836,1.9996161460876465,-0.605067253112793
1732873920686777900,7.36577783203125,-1.8453130722045898,1.9701646566390991,-0.6038443446159363
1732873920696757200,7.37575732421875,-1.6473007202148438,1.8516854047775269,-0.38959330320358276
1732873920706767000,7.38576708984375,-1.3835573196411133,1.818997859954834,-0.24408751726150513
1732873920716776700,7.395776611328125,-0.9166955947875977,1.7485517263412476,-0.10950052738189697
1732873920726756000,7.405756103515625,-0.18595218658447266,1.658223271369934,-0.2760447859764099
1732873920736766000,7.415765869140625,0.6794290542602539,1.7246017456054688,-0.5952513813972473
1732873920746775600,7.425775634765625,0.8158864974975586,1.6031118631362915,-0.8628495931625366
1732873920756754700,7.435754638671875,0.7651185989379883,1.4751819372177124,-0.9502285122871399
1732873920766764500,7.4457646484375,0.7631807327270508,1.6391303539276123,-0.5666863322257996
1732873920776774100,7.455774169921875,0.7391557693481445,1.8747363090515137,0.1646348237991333
1732873920786753500,7.46575341796875,0.862208366394043,2.1796648502349854,0.575991153717041
1732873920796763400,7.475763427734375,0.7925195693969727,2.47353458404541,0.7369939088821411
1732873920806773200,7.485773193359375,0.8184118270874023,2.502701759338379,0.38224679231643677
1732873920816782800,7.495782958984375,1.0583219528198242,2.467876672744751,0.2482929229736328
1732873920826762200,7.50576220703125,1.2467079162597656,2.720308542251587,0.6039690971374512
1732873920836772000,7.515772216796875,0.87591552734375,2.6672277450561523,0.811630129814148
1732873920846781700,7.52578173828125,0.4178810119628906,2.4375669956207275,0.8660313487052917
1732873920856760800,7.5357607421875,0.08357620239257812,2.2974770069122314,0.7954468131065369
1732873920866770700,7.545770751953125,0.020231246948242188,2.0501248836517334,0.8219789266586304
1732873920876780300,7.5557802734375,0.33234691619873047,1.763035774230957,1.0483845472335815
1732873920886759700,7.565759765625,0.7457752227783203,1.6262974739074707,0.9076972007751465
1732873920896769300,7.575769287109375,1.2163171768188477,1.2558417320251465,0.4678531289100647
1732873920906779100,7.585779052734375,1.6216001510620117,1.11964750289917,-0.12926232814788818
1732873920916758500,7.595758544921875,2.1170616149902344,1.2043267488479614,-0.4354705810546875
1732873920926768400,7.605768310546875,2.6200780868530273,1.2103878259658813,-0.3722623586654663
1732873920936778000,7.615778076171875,2.867600440979004,1.165864109992981,-0.6683378219604492
1732873920946757400,7.62575732421875,2.65012264251709,1.0534272193908691,-0.747525691986084
1732873920956767000,7.63576708984375,2.3513002395629883,0.7657372355461121,-0.6179490089416504
1732873920966776800,7.64577685546875,2.349930763244629,0.6313311457633972,-0.5663850903511047
1732873920976756200,7.655756103515625,2.5314369201660156,0.6853809952735901,-0.7536747455596924
1732873920986765800,7.665765869140625,2.529754638671875,0.6852073669433594,-0.9372292160987854
1732873920996775400,7.675775390625,2.3839921951293945,0.6312472820281982,-0.8200170993804932
1732873921006754800,7.6857548828125,1.9094743728637695,0.5637090802192688,-0.4539351463317871
1732873921016764700,7.6957646484375,1.1392841339111328,0.3676416277885437,-0.17114496231079102
1732873921026774300,7.705774169921875,0.22601699829101562,-0.10916650295257568,0.02021479606628418
1732873921036753700,7.715753662109375,-0.1101827621459961,-0.5871434807777405,0.0653228759765625
1732873921046763500,7.725763427734375,0.22643470764160156,-1.1003514528274536,-0.12093997001647949
1732873921056773400,7.7357734375,0.4795541763305664,-1.4466729164123535,-0.7071672081947327
1732873921066783000,7.745782958984375,0.37924861907958984,-1.709979772567749,-1.4046670198440552
1732873921076762000,7.75576220703125,-0.2649965286254883,-1.7857153415679932,-1.6165223121643066
1732873921086771700,7.765771728515625,-1.0153255462646484,-1.820037841796875,-1.2153215408325195
1732873921096781600,7.775781494140625,-1.3168916702270508,-1.4665186405181885,-0.10370022058486938
1732873921106761000,7.785760986328125,-1.6210641860961914,-0.8795305490493774,1.4766666889190674
1732873921116770600,7.7957705078125,-2.6253228187561035,-0.40092310309410095,2.8432347774505615
1732873921126780400,7.805780517578125,-3.6543049812316895,-0.05334770679473877,3.2513229846954346
1732873921136759800,7.815759765625,-4.681474208831787,0.2103949785232544,3.0632569789886475
1732873921146769400,7.825769287109375,-5.190889835357666,0.19355875253677368,2.8598875999450684
1732873921156779300,7.835779296875,-4.947752952575684,0.09916841983795166,2.62532639503479
1732873921166758400,7.84575830078125,-3.9597597122192383,-0.0023140907287597656,2.255871057510376
1732873921176768300,7.855768310546875,-2.2865753173828125,-0.18939971923828125,1.7495524883270264
1732873921186777900,7.86577783203125,-0.8131132125854492,-0.4272123873233795,1.42100989818573
1732873921196757200,7.87575732421875,0.8857736587524414,-0.5477001070976257,1.0899674892425537
1732873921206767000,7.88576708984375,2.212681770324707,-0.6196324229240417,0.8011435866355896
1732873921216776700,7.895776611328125,2.9503955841064453,-0.5523200035095215,0.46427392959594727
1732873921226756000,7.905756103515625,2.5640125274658203,-0.21406656503677368,-0.018586814403533936
1732873921236766000,7.915765869140625,1.7328824996948242,0.09248682856559753,-0.19897300004959106
1732873921246775600,7.925775634765625,0.43299388885498047,0.37986478209495544,-0.06065070629119873
1732873921256754700,7.935754638671875,-0.7538375854492188,0.7034045457839966,0.011528253555297852
1732873921266764500,7.9457646484375,-1.7223148345947266,0.9479019045829773,0.533423900604248
1732873921276774100,7.955774169921875,-2.2882156372070312,1.1616398096084595,0.7775583863258362
1732873921286753500,7.96575341796875,-2.5860848426818848,1.262845754623413,0.8944054841995239
1732873921296763400,7.975763427734375,-2.652405261993408,1.2674880027770996,1.0567131042480469
1732873921306773000,7.98577294921875,-2.4320883750915527,1.189528465270996,0.9975353479385376
1732873921316782800,7.995782958984375,-1.9204492568969727,1.093803882598877,0.763687014579773
1732873921326762200,8.00576220703125,-1.1938276290893555,0.959410548210144,0.5610683560371399
1732873921336771800,8.015771728515626,-0.3595314025878906,0.9376388192176819,0.6785389184951782
1732873921346781700,8.02578173828125,0.15651321411132812,0.8865143060684204,0.541034460067749
1732873921356760800,8.0357607421875,0.4166116714477539,0.9592850208282471,0.41976574063301086
1732873921366770400,8.0457705078125,0.3543710708618164,1.037750005722046,0.4670741558074951
1732873921376780300,8.0557802734375,0.05084705352783203,1.0998015403747559,0.6125105619430542
1732873921386759700,8.065759765625,-0.17580890655517578,1.1010446548461914,0.6919129490852356
1732873921396769300,8.075769287109376,-0.12219429016113281,1.0287952423095703,0.6185407638549805
1732873921406779100,8.085779052734376,0.18059730529785156,0.8476893901824951,0.5967922210693359
1732873921416758500,8.095758544921875,0.7876863479614258,0.6586927175521851,0.6134909987449646
1732873921426768400,8.105768310546875,1.3374567031860352,0.5694084763526917,0.6288352012634277
1732873921436778000,8.115778076171875,1.6628971099853516,0.6839163303375244,0.8705838918685913
1732873921446757400,8.12575732421875,1.5102386474609375,0.7580234408378601,1.2876107692718506
1732873921456767000,8.13576708984375,1.193131446838379,0.8452618718147278,1.292966604232788
1732873921466776800,8.14577685546875,0.7689609527587891,0.9452184438705444,0.8433343172073364
1732873921476756000,8.155755859375,0.3692026138305664,0.907489538192749,0.32104864716529846
1732873921486765800,8.165765869140625,0.16579246520996094,0.8594197630882263,-0.11145848035812378
1732873921496775400,8.175775390625,0.1393260955810547,0.8047862648963928,-0.14818042516708374
1732873921506754800,8.1857548828125,0.380279541015625,0.7810260653495789,-0.09164947271347046
1732873921516764700,8.1957646484375,0.8053150177001953,0.7841917872428894,-0.02712911367416382
1732873921526774300,8.205774169921876,1.5752429962158203,0.6799546480178833,0.0930168628692627
1732873921536753700,8.215753662109375,2.357480049133301,0.5777546763420105,0.06185901165008545
1732873921546763500,8.225763427734375,3.1623363494873047,0.628972589969635,-0.0697401762008667
1732873921556773000,8.235773193359375,3.6791610717773438,0.8443728685379028,-0.2637903094291687
1732873921566783000,8.245782958984375,3.7268056869506836,0.9556284546852112,-0.11595714092254639
1732873921576762000,8.25576220703125,3.4856977462768555,0.9114452600479126,0.35612669587135315
1732873921586771700,8.265771728515626,3.1960525512695312,0.7733497619628906,0.768947958946228
1732873921596781600,8.275781494140626,2.8375139236450195,0.24554026126861572,0.9629765152931213
1732873921606761000,8.285760986328125,2.6440696716308594,-0.5229966640472412,0.9307166934013367
1732873921616770600,8.2957705078125,3.0367231369018555,-1.4402542114257812,0.4366042912006378
1732873921626780400,8.305780517578125,3.618255615234375,-2.1793856620788574,-0.12971770763397217
1732873921636759800,8.315759765625,4.058880805969238,-2.5994985103607178,-0.703191876411438
1732873921646769400,8.325769287109376,3.3514394760131836,-2.401200771331787,-0.828665554523468
1732873921656779300,8.335779296875,1.8786287307739258,-1.6839978694915771,-0.804499626159668
1732873921666758400,8.34575830078125,-0.2808809280395508,-1.2288472652435303,-0.63916015625
1732873921676768300,8.355768310546875,-2.0304627418518066,-0.6234868168830872,-0.6840176582336426
1732873921686777900,8.36577783203125,-3.8441977500915527,-0.19749534130096436,-0.5766439437866211
1732873921696757200,8.37575732421875,-5.136232852935791,0.13901376724243164,-0.18137797713279724
1732873921706767000,8.38576708984375,-5.874855041503906,0.31544458866119385,0.4352928102016449
1732873921716776700,8.395776611328126,-6.1311540603637695,0.13766086101531982,0.4296570420265198
1732873921726756000,8.405756103515625,-5.782320022583008,-0.19117867946624756,-0.06603986024856567
1732873921736766000,8.415765869140625,-4.716709136962891,-0.5784484148025513,-0.7070808410644531
1732873921746775600,8.425775634765625,-3.06162166595459,-0.7485037446022034,-1.093944787979126
1732873921756754700,8.435754638671876,-1.5295028686523438,-0.9109680652618408,-0.7226020693778992
1732873921766764500,8.4457646484375,-0.2430868148803711,-0.9734902381896973,-0.4212334454059601
1732873921776774100,8.455774169921876,0.2673759460449219,-0.8708637356758118,-0.043330684304237366
1732873921786753500,8.46575341796875,0.03883171081542969,-0.788752555847168,0.08279415965080261
1732873921796763400,8.475763427734375,-0.45177364349365234,-0.6745501160621643,0.11714792251586914
1732873921806773000,8.48577294921875,-0.9649114608764648,-0.4780867099761963,0.15391887724399567
1732873921816782800,8.495782958984375,-1.384263038635254,-0.32097721099853516,0.2782937288284302
1732873921826762200,8.50576220703125,-1.5402603149414062,-0.015552520751953125,0.3778750002384186
1732873921836771800,8.515771728515626,-1.7228899002075195,0.2635533809661865,0.48410654067993164
1732873921846781700,8.52578173828125,-1.9058012962341309,0.4616372585296631,0.4905504584312439
1732873921856760800,8.5357607421875,-1.9644193649291992,0.5931013822555542,0.48824208974838257
1732873921866770400,8.5457705078125,-1.79801607131958,0.7024134397506714,0.3999163508415222
1732873921876780300,8.5557802734375,-1.4905776977539062,0.824600338935852,0.3070563077926636
1732873921886759700,8.565759765625,-1.1709985733032227,0.8455581665039062,0.25816816091537476
1732873921896769300,8.575769287109376,-0.9229307174682617,0.9427456855773926,0.037863731384277344
1732873921906779100,8.585779052734376,-0.779789924621582,0.9419870376586914,-0.1262775957584381
1732873921916758500,8.595758544921875,-0.77740478515625,0.8232142925262451,-0.3387502431869507
1732873921926768400,8.605768310546875,-0.7600870132446289,0.8543550372123718,-0.5551512241363525
1732873921936778000,8.615778076171875,-0.6105928421020508,0.8496805429458618,-0.665128767490387
1732873921946757400,8.62575732421875,-0.28292274475097656,0.7365831732749939,-0.797410249710083
1732873921956767000,8.63576708984375,0.17735671997070312,0.5837231874465942,-0.8692337274551392
1732873921966776800,8.64577685546875,0.5871782302856445,0.5031009912490845,-1.0515313148498535
1732873921976756000,8.655755859375,0.8715000152587891,0.513695240020752,-1.1500916481018066
1732873921986765800,8.665765869140625,0.9534969329833984,0.6041529178619385,-1.198441505432129
1732873921996775400,8.675775390625,0.8115816116333008,0.7626746892929077,-1.051268219947815
1732873922006754800,8.6857548828125,0.512786865234375,0.840563178062439,-0.6568474769592285
1732873922016764700,8.6957646484375,0.15012168884277344,0.7353231906890869,-0.10733020305633545
1732873922026774300,8.705774169921876,0.2158212661743164,0.564481258392334,0.30330103635787964
1732873922036753700,8.715753662109375,0.6489696502685547,0.514797568321228,0.4387863576412201
1732873922046763500,8.725763427734375,1.1544837951660156,0.515479326248169,0.42793911695480347
1732873922056773000,8.735773193359375,1.744532585144043,0.5208148956298828,0.2612098455429077
1732873922066783000,8.745782958984375,2.1970367431640625,0.547348141670227,0.0022706985473632812
1732873922076762000,8.75576220703125,2.3906850814819336,0.39167535305023193,-0.17315024137496948
1732873922086771700,8.765771728515626,2.452944755554199,0.1288008689880371,0.03949207067489624
1732873922096781600,8.775781494140626,2.34393310546875,-0.1620723009109497,0.3508400619029999
1732873922106761000,8.785760986328125,2.3791885375976562,-0.19787698984146118,0.49828940629959106
1732873922116770600,8.7957705078125,2.6084775924682617,-0.031212449073791504,0.5478616952896118
1732873922126780400,8.805780517578125,2.73214054107666,0.10477542877197266,0.7442471981048584
1732873922136759800,8.815759765625,2.6996898651123047,0.13138020038604736,1.1705987453460693
1732873922146769400,8.825769287109376,2.5326128005981445,-0.32275909185409546,1.8159511089324951
1732873922156779300,8.835779296875,2.36948299407959,-1.0593421459197998,2.0290255546569824
1732873922166758400,8.84575830078125,2.9187135696411133,-2.051004648208618,1.5551003217697144
1732873922176768300,8.855768310546875,3.531534194946289,-2.622324228286743,-0.009651988744735718
1732873922186777900,8.86577783203125,3.695199966430664,-2.5832674503326416,-0.8270684480667114
1732873922196757200,8.87575732421875,3.181631088256836,-2.7259488105773926,-1.4093635082244873
1732873922206767000,8.88576708984375,2.4211082458496094,-2.583209753036499,-1.3109157085418701
1732873922216776700,8.895776611328126,1.1198692321777344,-2.194559097290039,-0.5354360938072205
1732873922226756000,8.905756103515625,-0.4305429458618164,-1.5185894966125488,1.0357567071914673
1732873922236766000,8.915765869140625,-2.34183931350708,-1.0826308727264404,2.335353374481201
1732873922246775600,8.925775634765625,-3.7783398628234863,-0.8526523113250732,2.1245968341827393
1732873922256754700,8.935754638671876,-4.780365943908691,-0.23405027389526367,1.6504909992218018
1732873922266764500,8.9457646484375,-5.156642436981201,0.13233184814453125,1.5436265468597412
1732873922276774100,8.955774169921876,-5.119138717651367,0.07550418376922607,1.561955213546753
1732873922286753500,8.96575341796875,-4.64711856842041,-0.2891422510147095,1.2308754920959473
1732873922296763400,8.975763427734375,-3.247335433959961,-0.8703222870826721,-0.1936524510383606
1732873922306773000,8.98577294921875,-1.4166193008422852,-1.1737465858459473,-0.7997651100158691
1732873922316782800,8.995782958984375,-0.012892723083496094,-1.4729602336883545,-0.5455774664878845
1732873922326762200,9.00576220703125,1.0430145263671875,-1.5402865409851074,-0.132933109998703
1732873922336771800,9.015771728515626,1.3623847961425781,-1.4284571409225464,0.33324170112609863
1732873922346781700,9.02578173828125,1.1922292709350586,-1.2932417392730713,0.33200526237487793
1732873922356760800,9.0357607421875,0.7277374267578125,-0.8867357969284058,0.04361444711685181
1732873922366770700,9.045770751953125,-0.10339927673339844,-0.3133336305618286,0.0904194712638855
1732873922376780300,9.0557802734375,-1.0165653228759766,0.07886648178100586,0.08584773540496826
1732873922386759700,9.065759765625,-2.0462613105773926,0.4649604558944702,-0.18110740184783936
1732873922396769300,9.075769287109376,-2.7044529914855957,0.6804587841033936,-0.36668503284454346
1732873922406779100,9.085779052734376,-2.980069637298584,0.7934521436691284,-0.2503676414489746
1732873922416758500,9.095758544921875,-2.9336538314819336,0.8459557294845581,0.012824594974517822
1732873922426768400,9.105768310546875,-2.6181068420410156,0.736892580986023,0.3154371678829193
1732873922436778000,9.115778076171875,-2.0166492462158203,0.5381702184677124,0.5355464220046997
1732873922446757400,9.12575732421875,-1.179316520690918,0.3962228298187256,0.6414283514022827
1732873922456767000,9.13576708984375,-0.2829418182373047,0.22943341732025146,0.754659116268158
1732873922466776800,9.14577685546875,0.25617504119873047,0.19963890314102173,0.7114692330360413
1732873922476756000,9.155755859375,0.6303138732910156,0.19204705953598022,0.6773737072944641
1732873922486765800,9.165765869140625,0.8613443374633789,0.27518409490585327,0.7249169945716858
1732873922496775400,9.175775390625,0.7388057708740234,0.1656728982925415,0.731576681137085
1732873922506754800,9.1857548828125,0.5955753326416016,0.06333059072494507,0.6722305417060852
1732873922516764700,9.1957646484375,0.4508943557739258,0.03413426876068115,0.6082345247268677
1732873922526774300,9.205774169921876,0.3455219268798828,0.16234558820724487,0.6326801776885986
1732873922536753700,9.215753662109375,0.20844459533691406,0.3459257483482361,0.7057903409004211
1732873922546763500,9.225763427734375,-0.05430316925048828,0.631750762462616,0.8080736398696899
1732873922556773000,9.235773193359375,-0.3567342758178711,0.838478147983551,0.9594653844833374
1732873922566783000,9.245782958984375,-0.6515483856201172,0.8980201482772827,1.2628364562988281
1732873922576762000,9.25576220703125,-0.6425161361694336,0.6931205987930298,0.9588366746902466
1732873922586771700,9.265771728515626,-0.41454505920410156,0.6012709140777588,1.192624568939209
1732873922596781600,9.275781494140626,0.1726970672607422,0.2874939441680908,1.3649624586105347
1732873922606761000,9.285760986328125,1.1141586303710938,-0.0660851001739502,1.109684705734253
1732873922616770800,9.295770751953125,2.0642738342285156,-0.20665621757507324,0.5316543579101562
1732873922626780400,9.305780517578125,2.9437313079833984,-0.25937747955322266,-0.03919970989227295
1732873922636759800,9.315759765625,3.5212879180908203,-0.12775695323944092,-0.5727881193161011
1732873922646769400,9.325769287109376,3.9846105575561523,0.07161998748779297,-1.070526123046875
1732873922656779300,9.335779296875,4.217013359069824,0.42758995294570923,-1.19287109375
1732873922666758400,9.34575830078125,4.013087272644043,0.6923338770866394,-0.7971055507659912
1732873922676768300,9.355768310546875,3.406352996826172,0.7957757711410522,-0.17276650667190552
1732873922686777900,9.36577783203125,2.78470516204834,0.30022406578063965,0.5155808925628662
1732873922696757200,9.37575732421875,2.191840171813965,-1.1501377820968628,1.1310418844223022
1732873922706767000,9.38576708984375,2.1867027282714844,-2.688131332397461,0.9533220529556274
1732873922716776700,9.395776611328126,3.232855796813965,-3.7580666542053223,-0.382782518863678
1732873922726756000,9.405756103515625,4.471352577209473,-3.8429839611053467,-1.8164055347442627
1732873922736766000,9.415765869140625,5.21925163269043,-2.958268880844116,-3.276299238204956
1732873922746775600,9.425775634765625,4.406147003173828,-1.7030348777770996,-3.4606680870056152
1732873922756754700,9.435754638671876,2.08450984954834,-1.1113054752349854,-2.488786458969116
1732873922766764500,9.4457646484375,-1.1621885299682617,-0.8064554929733276,-0.5360592603683472
1732873922776774100,9.455774169921876,-3.9807496070861816,-0.49335283041000366,0.5465537309646606
1732873922786753500,9.46575341796875,-6.870619773864746,-0.14608192443847656,1.0877289772033691
1732873922796763400,9.475763427734375,-8.618451118469238,-0.017633795738220215,0.983004629611969
1732873922806773200,9.485773193359375,-9.39665412902832,-0.1776432991027832,0.19683516025543213
1732873922816435200,9.495435302734375,-8.73399829864502,-0.4686412811279297,-0.7696072459220886
1732873922826762200,9.50576220703125,-6.35707950592041,-1.0242149829864502,-1.2872031927108765
1732873922836771800,9.515771728515626,-3.494190216064453,-1.4889602661132812,-1.2918074131011963
1732873922846781700,9.52578173828125,-0.09687519073486328,-1.7630822658538818,-1.71835196018219
1732873922856760800,9.5357607421875,2.6738996505737305,-1.6194161176681519,-1.606857180595398
1732873922866770700,9.545770751953125,3.939058303833008,-1.5695316791534424,-0.9333114624023438
1732873922876780300,9.5557802734375,4.019145965576172,-1.455318570137024,-0.2680635154247284
1732873922886759700,9.565759765625,3.1902589797973633,-1.1876060962677002,-0.06673473119735718
1732873922896769300,9.575769287109376,1.597630500793457,-0.8380548357963562,-0.10353779792785645
1732873922906779100,9.585779052734376,0.15361309051513672,-0.4562743306159973,-0.02662065625190735
1732873922916758500,9.595758544921875,-1.21197509765625,-0.15551799535751343,0.24884653091430664
1732873922926768400,9.605768310546875,-1.9543824195861816,0.102591872215271,0.2872594892978668
1732873922936778000,9.615778076171875,-2.1893582344055176,0.36765336990356445,0.2332514226436615
1732873922946757400,9.62575732421875,-2.1306161880493164,0.5110530257225037,0.15939809381961823
1732873922956767000,9.63576708984375,-1.9148569107055664,0.6246095299720764,0.03867027163505554
1732873922966776800,9.64577685546875,-1.8004522323608398,0.6103647947311401,0.0957212746143341
1732873922976756000,9.655755859375,-1.7175836563110352,0.6224561929702759,0.21285027265548706
1732873922986765800,9.665765869140625,-1.728104591369629,0.595888614654541,0.13923907279968262
1732873922996775400,9.675775390625,-1.6956682205200195,0.5534939169883728,-0.04366445541381836
1732873923006754800,9.6857548828125,-1.419351577758789,0.5575404167175293,-0.2891322374343872
1732873923016764700,9.6957646484375,-1.090764045715332,0.5044634342193604,-0.3815474808216095
1732873923026774300,9.705774169921876,-0.736088752746582,0.3979156017303467,-0.48544737696647644
1732873923036753700,9.715753662109375,-0.35520267486572266,0.34926438331604004,-0.5770297646522522
1732873923046763500,9.725763427734375,0.07287311553955078,0.27191251516342163,-0.6099052429199219
1732873923056773000,9.735773193359375,0.42833518981933594,0.19200962781906128,-0.6046651601791382
1732873923066783000,9.745782958984375,0.7988643646240234,0.10178279876708984,-0.5236713290214539
1732873923076762000,9.75576220703125,1.1688499450683594,0.03626096248626709,-0.43017905950546265
1732873923086771700,9.765771728515626,1.4104671478271484,0.04679250717163086,-0.274475634098053
1732873923096781600,9.775781494140626,1.6056690216064453,0.15181756019592285,-0.20396733283996582
1732873923106761000,9.785760986328125,1.6757192611694336,0.31239235401153564,-0.17660009860992432
1732873923116770600,9.7957705078125,1.7927970886230469,0.3351689577102661,0.005999326705932617
1732873923126780400,9.805780517578125,1.9219169616699219,0.321010947227478,0.2452385127544403
1732873923136759800,9.815759765625,2.295167922973633,0.4039515256881714,0.30110129714012146
1732873923146769400,9.825769287109376,2.5416078567504883,0.33511853218078613,0.49451619386672974
1732873923156779300,9.835779296875,2.5441818237304688,-0.20768648386001587,0.8269749283790588
1732873923166758400,9.84575830078125,2.6164445877075195,-0.8582099080085754,0.9715402126312256
1732873923176768300,9.855768310546875,3.2128639221191406,-1.432790994644165,1.0614724159240723
1732873923186777900,9.86577783203125,4.230197906494141,-1.543860673904419,0.7514272332191467
1732873923196757200,9.87575732421875,4.986183166503906,-1.2798153162002563,0.35969021916389465
1732873923206767000,9.88576708984375,5.089447975158691,-0.9624200463294983,0.31531816720962524
1732873923216776700,9.895776611328126,4.452460289001465,-0.9722633957862854,0.772555410861969
1732873923226756000,9.905756103515625,3.2765655517578125,-1.4205368757247925,1.5015997886657715
1732873923236766000,9.915765869140625,2.2557554244995117,-2.040646553039551,1.6754579544067383
1732873923246775600,9.925775634765625,1.693465232849121,-2.441209554672241,1.223544716835022
1732873923256754700,9.935754638671876,1.534438133239746,-2.699265956878662,0.9389415979385376
1732873923266764500,9.9457646484375,1.2113914489746094,-2.8839313983917236,0.9947644472122192
1732873923276774100,9.955774169921876,0.6346845626831055,-2.870537757873535,1.217942714691162
1732873923286753500,9.96575341796875,-0.4496469497680664,-2.7043066024780273,1.4234998226165771
1732873923296763400,9.975763427734375,-1.7593326568603516,-2.2931113243103027,1.4990143775939941
1732873923306773200,9.985773193359375,-2.898200511932373,-2.0012600421905518,1.4342172145843506
1732873923316782800,9.995782958984375,-3.8561153411865234,-1.7072727680206299,1.3723329305648804
1732873923326762200,10.00576220703125,-4.324172019958496,-1.5419542789459229,1.538787841796875
1732873923336771800,10.015771728515626,-4.263494491577148,-1.4001286029815674,1.6352311372756958
1732873923346781700,10.02578173828125,-3.625650405883789,-1.5350196361541748,1.2762025594711304
1732873923356760800,10.0357607421875,-2.538459300994873,-1.5792288780212402,0.8047657012939453
1732873923366770700,10.045770751953125,-1.3974456787109375,-1.5960034132003784,0.6497691869735718
1732873923376780300,10.0557802734375,-0.4710407257080078,-1.6612014770507812,0.5730721354484558
1732873923386759700,10.065759765625,-0.19267940521240234,-1.6879831552505493,0.4793602526187897
1732873923396769300,10.075769287109376,-0.2664680480957031,-1.6143832206726074,0.3794035017490387
1732873923406779100,10.085779052734376,-0.5338525772094727,-1.3483593463897705,0.3820111155509949
1732873923416758500,10.095758544921875,-0.8552646636962891,-1.0676631927490234,0.39114633202552795
1732873923426768400,10.105768310546875,-1.2850685119628906,-0.755234956741333,0.28811001777648926
1732873923436778000,10.115778076171875,-1.6394295692443848,-0.4325019121170044,0.08736205101013184
1732873923446757400,10.12575732421875,-2.024319648742676,-0.08475983142852783,-0.04251432418823242
1732873923456767000,10.13576708984375,-2.2703542709350586,0.1283200979232788,-0.12078791856765747
1732873923466776800,10.14577685546875,-2.4065260887145996,0.22546744346618652,0.016858220100402832
1732873923476756000,10.155755859375,-2.3660545349121094,0.2516521215438843,0.24452978372573853
1732873923486765800,10.165765869140625,-2.1636252403259277,0.22759127616882324,0.4848780632019043
1732873923496775400,10.175775390625,-1.8669180870056152,0.1404191255569458,0.685111403465271
1732873923506754800,10.1857548828125,-1.3723411560058594,-0.008632302284240723,0.95537269115448
1732873923516764700,10.1957646484375,-0.7754545211791992,-0.14230108261108398,1.1364017724990845
1732873923526774300,10.205774169921876,-0.3512992858886719,-0.26263391971588135,1.1750118732452393
1732873923536753700,10.215753662109375,0.09200000762939453,-0.38867390155792236,1.2172136306762695
1732873923546763500,10.225763427734375,0.40873146057128906,-0.5441323518753052,1.2203538417816162
1732873923556773400,10.2357734375,0.769679069519043,-0.6121907830238342,0.9896918535232544
1732873923566783000,10.245782958984375,1.038726806640625,-0.5308625102043152,0.6097378134727478
1732873923576762000,10.25576220703125,1.1412925720214844,-0.3092460036277771,0.2631921172142029
1732873923586771700,10.265771728515626,1.0954217910766602,-0.013445734977722168,0.17398159205913544
1732873923596781600,10.275781494140626,0.8084335327148438,0.21419215202331543,0.3242172300815582
1732873923606761000,10.285760986328125,0.36488819122314453,0.3747138977050781,0.5695192217826843
1732873923616770600,10.2957705078125,-0.07492542266845703,0.3975332975387573,0.8193701505661011
1732873923626780400,10.305780517578125,-0.25048160552978516,0.45898616313934326,0.8804465532302856
1732873923636759800,10.315759765625,-0.14102649688720703,0.38099217414855957,0.830784261226654
1732873923646769400,10.325769287109376,0.29097747802734375,0.2675975561141968,0.754149854183197
1732873923656779300,10.335779296875,0.7818431854248047,0.08514702320098877,0.6800674200057983
1732873923666758400,10.34575830078125,1.5396785736083984,-0.13158154487609863,0.45179814100265503
1732873923676768300,10.355768310546875,2.2244625091552734,-0.23377442359924316,0.09737414866685867
1732873923686777900,10.36577783203125,2.9080400466918945,-0.1953185796737671,-0.4711344838142395
1732873923696757200,10.37575732421875,3.32745361328125,0.03862333297729492,-1.032933235168457
1732873923706767000,10.38576708984375,3.4976234436035156,0.212782621383667,-1.5624290704727173
1732873923716776700,10.395776611328126,3.4289417266845703,0.31376421451568604,-1.5624382495880127
1732873923726756000,10.405756103515625,3.121565818786621,0.3159792423248291,-1.2886905670166016
1732873923736766000,10.415765869140625,2.783881187438965,0.3431060314178467,-1.0729485750198364
1732873923746775600,10.425775634765625,2.552145004272461,0.2891206741333008,-0.8983186483383179
1732873923756754700,10.435754638671876,2.3924741744995117,0.041972994804382324,-0.5918582677841187
1732873923766764500,10.4457646484375,2.4075307846069336,-0.5493032932281494,-0.4287269413471222
1732873923776774100,10.455774169921876,2.7790679931640625,-1.3946589231491089,-0.6253065466880798
1732873923786753500,10.46575341796875,3.4061059951782227,-2.0581021308898926,-1.1592321395874023
1732873923796763400,10.475763427734375,3.8942108154296875,-2.2570548057556152,-2.09432053565979
1732873923806773200,10.485773193359375,3.842203140258789,-2.1596341133117676,-2.4615683555603027
1732873923816782800,10.495782958984375,3.002530097961426,-1.8002554178237915,-2.2532958984375
1732873923826762200,10.50576220703125,1.5801477432250977,-1.5044200420379639,-1.5719116926193237
1732873923836771800,10.515771728515626,-0.6920576095581055,-1.2498769760131836,-1.0341176986694336
1732873923846781700,10.52578173828125,-3.090939998626709,-1.0512639284133911,-0.6512182354927063
1732873923856760800,10.5357607421875,-5.001744747161865,-0.9788480401039124,-0.346021831035614
1732873923866770700,10.545770751953125,-6.448352813720703,-1.0939841270446777,-0.18021899461746216
1732873923876780300,10.5557802734375,-6.828302383422852,-1.3221659660339355,-0.30252236127853394
1732873923886759700,10.565759765625,-6.07855224609375,-1.5923073291778564,-0.6189274191856384
1732873923896769300,10.575769287109376,-4.3616156578063965,-1.8352619409561157,-0.8833431005477905
1732873923906779100,10.585779052734376,-2.100914478302002,-2.1129443645477295,-1.056131362915039
1732873923916758500,10.595758544921875,-0.421142578125,-2.006664276123047,-1.1105470657348633
1732873923926768400,10.605768310546875,0.7107172012329102,-1.7893414497375488,-1.008870244026184
1732873923936778000,10.615778076171875,0.9513883590698242,-1.5697964429855347,-0.9176312685012817
1732873923946757400,10.62575732421875,0.6209630966186523,-1.309012770652771,-0.8632307052612305
1732873923956767000,10.63576708984375,-0.10345935821533203,-1.018555998802185,-0.7234377861022949
1732873923966776800,10.64577685546875,-0.815546989440918,-0.8181775808334351,-0.5019354224205017
1732873923976756200,10.655756103515625,-1.4588146209716797,-0.5927141904830933,-0.26238468289375305
1732873923986765800,10.665765869140625,-1.8640189170837402,-0.33812129497528076,-0.15730004012584686
1732873923996775400,10.675775390625,-2.1179871559143066,-0.07442653179168701,0.00524882972240448
1732873924006754800,10.6857548828125,-2.1325063705444336,0.18852472305297852,0.11248511075973511
1732873924016764700,10.6957646484375,-2.09694242477417,0.3810237646102905,0.19100461900234222
1732873924026774300,10.705774169921876,-1.9729270935058594,0.4812568426132202,0.2469777762889862
1732873924036753700,10.715753662109375,-1.741175651550293,0.6320043802261353,0.23208947479724884
1732873924046763500,10.725763427734375,-1.5834197998046875,0.7840409278869629,0.19407251477241516
1732873924056773400,10.7357734375,-1.437265396118164,0.9435914754867554,0.02847011387348175
1732873924066783000,10.745782958984375,-1.2859134674072266,0.9906032085418701,-0.17611336708068848
1732873924076762000,10.75576220703125,-1.098367691040039,0.8902363777160645,-0.2718479037284851
1732873924086772000,10.76577197265625,-0.7050943374633789,0.6910881996154785,-0.4112018942832947
1732873924096781600,10.775781494140626,-0.1807117462158203,0.43444693088531494,-0.5731014609336853
1732873924106761000,10.785760986328125,0.5586404800415039,0.09327197074890137,-0.7725492715835571
1732873924116770800,10.795770751953125,1.2496261596679688,-0.15507733821868896,-0.9840621948242188
1732873924126780400,10.805780517578125,1.9263410568237305,-0.3013426661491394,-1.1630585193634033
1732873924136759800,10.815759765625,2.428842544555664,-0.3189312219619751,-1.4212042093276978
1732873924146769700,10.825769775390626,2.6665782928466797,-0.18584132194519043,-1.5327460765838623
1732873924156779300,10.835779296875,2.6024370193481445,-0.059473276138305664,-1.360142707824707
1732873924166758400,10.84575830078125,2.197636604309082,0.14030218124389648,-0.9925692081451416
1732873924176768300,10.855768310546875,1.5646352767944336,0.3103548288345337,-0.6877463459968567
1732873924186777900,10.86577783203125,1.0310134887695312,0.45568978786468506,-0.49358421564102173
1732873924196757200,10.87575732421875,0.70147705078125,0.7209382057189941,-0.4793449640274048
1732873924206767000,10.88576708984375,0.6565380096435547,0.9523483514785767,-0.5371646881103516
1732873924216776700,10.895776611328126,0.7543706893920898,0.8801531791687012,-0.5932636260986328
1732873924226756000,10.905756103515625,0.8457746505737305,0.508087158203125,-0.4924437403678894
1732873924236766000,10.915765869140625,1.094350814819336,-0.0759960412979126,-0.10994483530521393
1732873924246775600,10.925775634765625,1.5455656051635742,-0.48139286041259766,0.21163107454776764
1732873924256754700,10.935754638671876,2.2975072860717773,-0.6307671070098877,0.4441314935684204
1732873924266764500,10.9457646484375,2.9001331329345703,-0.5818904042243958,0.46592292189598083
1732873924276774100,10.955774169921876,3.265270233154297,-0.4884514808654785,0.3685712218284607
1732873924286753500,10.96575341796875,2.957735061645508,-0.8308987617492676,0.5389584302902222
1732873924296763400,10.975763427734375,2.3060388565063477,-1.6463229656219482,0.8803615570068359
1732873924306773000,10.98577294921875,1.8313417434692383,-2.629951000213623,0.4392630159854889
1732873924316782800,10.995782958984375,2.064310073852539,-3.2079925537109375,-0.7173060178756714
1732873924326762200,11.00576220703125,2.7462329864501953,-3.3341431617736816,-1.8166788816452026
1732873924336771800,11.015771728515626,3.2819814682006836,-3.076679229736328,-1.9618785381317139
1732873924346781700,11.02578173828125,3.2471914291381836,-2.8262157440185547,-0.9801512956619263
1732873924356760800,11.0357607421875,2.0642852783203125,-2.718270778656006,0.15318050980567932
1732873924366770700,11.045770751953125,0.04355144500732422,-2.2936553955078125,1.1077128648757935
1732873924376780300,11.0557802734375,-2.161174774169922,-1.702134370803833,2.2324745655059814
1732873924386759700,11.065759765625,-3.9626126289367676,-1.113184928894043,2.992185592651367
1732873924396769500,11.07576953125,-5.37567138671875,-0.8375191688537598,3.2014026641845703
1732873924406779100,11.085779052734376,-5.884734153747559,-0.8566703200340271,2.737168788909912
1732873924416758500,11.095758544921875,-5.282844066619873,-1.0629289150238037,1.7427704334259033
1732873924426768400,11.105768310546875,-3.718367576599121,-1.3966597318649292,0.6630033254623413
1732873924436778000,11.115778076171875,-1.301198959350586,-1.6486296653747559,-0.554060697555542
1732873924446757400,11.12575732421875,0.7412891387939453,-1.6741578578948975,-1.1062465906143188
1732873924456767000,11.13576708984375,2.1949281692504883,-1.6886465549468994,-1.233547329902649
1732873924466776800,11.14577685546875,2.608231544494629,-1.6700193881988525,-1.172690987586975
1732873924476756000,11.155755859375,2.0066757202148438,-1.5793613195419312,-1.0034562349319458
1732873924486765800,11.165765869140625,0.9890174865722656,-1.315312147140503,-0.735313355922699
1732873924496775400,11.175775390625,-0.41449928283691406,-0.9109059572219849,-0.43550682067871094
1732873924506754800,11.1857548828125,-1.6760997772216797,-0.49612683057785034,-0.28367286920547485
1732873924516764700,11.1957646484375,-2.5480613708496094,-0.08746039867401123,-0.2497618943452835
1732873924526774300,11.205774169921876,-3.12599515914917,0.18864750862121582,-0.3320622742176056
1732873924536753700,11.215753662109375,-3.169048309326172,0.3292829990386963,-0.4940873384475708
1732873924546763500,11.225763427734375,-2.7878637313842773,0.45253586769104004,-0.6064792275428772
1732873924556773000,11.235773193359375,-2.228990077972412,0.46690428256988525,-0.6423087120056152
1732873924566783000,11.245782958984375,-1.4632234573364258,0.3645244836807251,-0.4066283404827118
1732873924576762000,11.25576220703125,-0.8920736312866211,0.22695231437683105,-0.12639382481575012
1732873924586772000,11.26577197265625,-0.4836454391479492,0.09914934635162354,0.20594850182533264
1732873924596781600,11.275781494140626,-0.26099109649658203,0.03904461860656738,0.39856526255607605
1732873924606761000,11.285760986328125,-0.15244388580322266,-0.07474613189697266,0.46254903078079224
1732873924616770600,11.2957705078125,-0.07436180114746094,-0.12407362461090088,0.35354697704315186
1732873924626780400,11.305780517578125,-0.03894233703613281,-0.14572441577911377,0.21746453642845154
1732873924636759800,11.315759765625,0.0879364013671875,-0.06164228916168213,0.11160707473754883
1732873924646769400,11.325769287109376,0.1073150634765625,-0.0011326074600219727,0.08022508025169373
1732873924656779300,11.335779296875,-0.007091522216796875,0.017121553421020508,0.17531824111938477
1732873924666758400,11.34575830078125,-0.1828460693359375,0.04525411128997803,0.3893391788005829
1732873924676768300,11.355768310546875,-0.3411674499511719,0.09703469276428223,0.796100378036499
1732873924686777900,11.36577783203125,-0.4055356979370117,0.22587883472442627,1.133379340171814
1732873924696757200,11.37575732421875,-0.4909992218017578,0.3367605209350586,1.3715617656707764
1732873924706767000,11.38576708984375,-0.6001205444335938,0.337502121925354,1.4242191314697266
1732873924716776700,11.395776611328126,-0.601353645324707,0.2531774044036865,1.3300515413284302
1732873924726756000,11.405756103515625,-0.3825416564941406,0.139662504196167,1.1510756015777588
1732873924736766000,11.415765869140625,0.07645797729492188,-0.007542014122009277,0.76397705078125
1732873924746775600,11.425775634765625,0.8162317276000977,-0.15612268447875977,0.2410617172718048
1732873924756754700,11.435754638671876,1.6258525848388672,-0.20893239974975586,-0.1565617024898529
1732873924766764500,11.4457646484375,2.6059226989746094,-0.1519683599472046,-0.7639420628547668
1732873924776774100,11.455774169921876,3.306812286376953,-0.057556748390197754,-1.3295546770095825
1732873924786753500,11.46575341796875,3.9041643142700195,0.10207116603851318,-1.9653311967849731
1732873924796763400,11.475763427734375,4.453671455383301,0.29613208770751953,-2.1374671459198
1732873924806773000,11.48577294921875,4.8910980224609375,0.44942212104797363,-1.8616029024124146
1732873924816782800,11.495782958984375,5.006547927856445,0.4736241102218628,-1.3398820161819458
1732873924826762200,11.50576220703125,4.706691741943359,-0.029256224632263184,-0.9380034804344177
1732873924836772000,11.515772216796876,4.319463729858398,-1.3725496530532837,-0.6456199884414673
1732873924846781700,11.52578173828125,4.426091194152832,-2.6968331336975098,-0.8171826004981995
1732873924856760800,11.5357607421875,5.071321487426758,-3.734649658203125,-1.7459850311279297
1732873924866770700,11.545770751953125,5.756961822509766,-3.9838385581970215,-2.8456389904022217
1732873924876780300,11.5557802734375,6.002498626708984,-3.2619895935058594,-3.6581051349639893
1732873924886759700,11.565759765625,5.21549129486084,-2.438704490661621,-3.550855875015259
1732873924896769300,11.575769287109376,3.091249465942383,-1.7240996360778809,-2.681175470352173
1732873924906779100,11.585779052734376,0.27837276458740234,-1.366692304611206,-1.8063523769378662
1732873924916758500,11.595758544921875,-3.3748321533203125,-1.0261088609695435,-0.8545986413955688
1732873924926768400,11.605768310546875,-6.648105144500732,-0.8349180817604065,-0.30020803213119507
1732873924936778000,11.615778076171875,-8.56745719909668,-0.8410241603851318,-0.7208379507064819
1732873924946757400,11.62575732421875,-9.680597305297852,-0.5460585355758667,-0.7643179297447205
1732873924956693800,11.63569384765625,-9.40058422088623,-0.5174520015716553,-0.452548623085022
1732873924966807300,11.645807373046875,-7.795629501342773,-1.0240137577056885,-0.04214337468147278
1732873924976756000,11.655755859375,-5.3484392166137695,-1.681579351425171,-0.7208998799324036
1732873924986765800,11.665765869140625,-2.075223922729492,-2.0264201164245605,-1.8252860307693481
1732873924996775400,11.675775390625,0.5930795669555664,-2.1422879695892334,-2.0288827419281006
1732873925006754800,11.6857548828125,2.733308792114258,-2.183107852935791,-1.6551218032836914
1732873925016764700,11.6957646484375,3.656381607055664,-2.056105852127075,-1.33718740940094
1732873925026774300,11.705774169921876,3.5687379837036133,-1.7358077764511108,-0.9943701028823853
1732873925036753700,11.715753662109375,2.3809499740600586,-1.4787523746490479,-0.539746880531311
1732873925046763500,11.725763427734375,0.7950935363769531,-1.0766059160232544,-0.1655890941619873
1732873925056773000,11.735773193359375,-0.989527702331543,-0.7255069613456726,0.24716578423976898
1732873925066783000,11.745782958984375,-2.156184673309326,-0.4195263385772705,0.42497456073760986
1732873925076762000,11.75576220703125,-2.735781669616699,-0.003801584243774414,0.4612598121166229
1732873925086771700,11.765771728515626,-2.89992618560791,0.30397629737854004,0.39226245880126953
1732873925096781600,11.775781494140626,-2.7568812370300293,0.5020283460617065,0.2909098267555237
1732873925106761000,11.785760986328125,-2.460765838623047,0.597985029220581,-0.001660376787185669
1732873925116770600,11.7957705078125,-2.1562414169311523,0.6052542924880981,-0.35669851303100586
1732873925126780400,11.805780517578125,-1.950455665588379,0.5299054384231567,-0.47450733184814453
1732873925136759800,11.815759765625,-1.7712793350219727,0.41565966606140137,-0.5274006724357605
1732873925146769400,11.825769287109376,-1.4438676834106445,0.33406615257263184,-0.7505797147750854
1732873925156779300,11.835779296875,-0.9852981567382812,0.16276955604553223,-0.7901190519332886
1732873925166758400,11.84575830078125,-0.3955965042114258,0.038703322410583496,-0.9508249759674072
1732873925176768300,11.855768310546875,0.07640361785888672,-0.0245438814163208,-1.2258646488189697
1732873925186777900,11.86577783203125,0.5008821487426758,-0.12791824340820312,-1.3879785537719727
1732873925196757200,11.87575732421875,0.8421468734741211,-0.1472623348236084,-1.3307760953903198
1732873925206767000,11.88576708984375,1.1489133834838867,-0.03167438507080078,-1.1117992401123047
1732873925216776700,11.895776611328126,1.240692138671875,0.08235108852386475,-0.6724250316619873
1732873925226756000,11.905756103515625,1.0481138229370117,0.20912671089172363,-0.20419013500213623
1732873925236766000,11.915765869140625,0.7100048065185547,0.27261877059936523,0.014264523983001709
1732873925246775600,11.925775634765625,0.3270530700683594,0.24881887435913086,0.2016875445842743
1732873925256754700,11.935754638671876,0.1853628158569336,0.2716599702835083,0.34447893500328064
1732873925266764500,11.9457646484375,0.4181642532348633,0.3574472665786743,0.393765389919281
1732873925276774100,11.955774169921876,0.9388790130615234,0.5212057828903198,0.4065414071083069
1732873925286753500,11.96575341796875,1.4820499420166016,0.6548784971237183,0.4226081669330597
1732873925296763400,11.975763427734375,1.9045753479003906,0.34458494186401367,0.5528726577758789
1732873925306773000,11.98577294921875,2.0607986450195312,-0.1869978904724121,0.782409131526947
1732873925316782800,11.995782958984375,2.530038833618164,-0.7827989459037781,1.300470232963562
1732873925326762200,12.00576220703125,3.2345571517944336,-0.9374769926071167,1.3572583198547363
1732873925336771800,12.015771728515626,4.057607650756836,-0.7759424448013306,0.9054808616638184
1732873925346781700,12.02578173828125,4.64556884765625,-0.594645619392395,0.3330575227737427
1732873925356760800,12.0357607421875,4.657059669494629,-0.9367040991783142,-0.1055675745010376
1732873925366770700,12.045770751953125,4.330131530761719,-1.6334662437438965,-0.12317126989364624
1732873925376780300,12.0557802734375,3.9237728118896484,-2.185713291168213,-0.12018126249313354
1732873925386759700,12.065759765625,3.3832406997680664,-2.565986156463623,-0.2135256826877594
1732873925396769300,12.075769287109376,2.834284782409668,-2.532285690307617,-0.45162585377693176
1732873925406779100,12.085779052734376,1.7350082397460938,-2.5689468383789062,-0.28772932291030884
1732873925416758500,12.095758544921875,0.4067831039428711,-2.673272132873535,0.7656662464141846
1732873925426768400,12.105768310546875,-1.0623359680175781,-2.679504632949829,2.23397159576416
1732873925436778000,12.115778076171875,-2.233088493347168,-2.6436846256256104,3.04506778717041
1732873925446757400,12.12575732421875,-3.059957504272461,-2.576934814453125,3.19193172454834
1732873925456767200,12.135767333984376,-3.226754665374756,-2.465449333190918,2.764023542404175
1732873925466776800,12.14577685546875,-2.9985294342041016,-2.208061695098877,2.1277759075164795
1732873925476756000,12.155755859375,-2.6693835258483887,-2.129277229309082,1.42293381690979
1732873925486765800,12.165765869140625,-2.2490978240966797,-2.0501797199249268,0.916557788848877
1732873925496775400,12.175775390625,-1.6055974960327148,-2.012721538543701,0.5410520434379578
1732873925506754800,12.1857548828125,-0.9701528549194336,-1.9859836101531982,0.37575748562812805
1732873925516764700,12.1957646484375,-0.3035554885864258,-2.077934741973877,0.27643489837646484
1732873925526774300,12.205774169921876,0.10781002044677734,-2.0483059883117676,0.216994971036911
1732873925536753700,12.215753662109375,0.3242816925048828,-1.8921575546264648,0.16070714592933655
1732873925546763500,12.225763427734375,0.1663675308227539,-1.7332077026367188,0.20117244124412537
1732873925556773000,12.235773193359375,-0.3343973159790039,-1.4089510440826416,0.27046331763267517
1732873925566783000,12.245782958984375,-1.0606231689453125,-1.0301579236984253,0.3834473490715027
1732873925576762000,12.25576220703125,-2.0194902420043945,-0.5952146649360657,0.5286136865615845
1732873925586771700,12.265771728515626,-2.8078880310058594,-0.15559923648834229,0.487453818321228
1732873925596781600,12.275781494140626,-3.239704132080078,0.13246846199035645,0.3320840895175934
1732873925606761000,12.285760986328125,-3.3346433639526367,0.31595921516418457,0.1329514980316162
1732873925616770600,12.2957705078125,-3.08176851272583,0.323153018951416,0.11012434959411621
1732873925626780400,12.305780517578125,-2.4301400184631348,0.260461688041687,0.12955701351165771
1732873925636759800,12.315759765625,-1.673933982849121,0.1700969934463501,0.05165988206863403
1732873925646769400,12.325769287109376,-0.7791070938110352,0.026734113693237305,0.10097736120223999
1732873925656779300,12.335779296875,-0.14257526397705078,-0.1258799433708191,0.21237462759017944
1732873925666758400,12.34575830078125,0.41794872283935547,-0.3068259358406067,0.3877056837081909
1732873925676768300,12.355768310546875,0.7157821655273438,-0.4163363575935364,0.5091322660446167
1732873925686777900,12.36577783203125,0.8368730545043945,-0.43242454528808594,0.5219725370407104
1732873925696757200,12.37575732421875,0.7023468017578125,-0.39739423990249634,0.5560855269432068
1732873925706767000,12.38576708984375,0.44136619567871094,-0.30934685468673706,0.6566754579544067
1732873925716776700,12.395776611328126,0.0299530029296875,-0.18864089250564575,0.9303302764892578
1732873925736303600,12.4153037109375,-0.5600490570068359,0.11173349618911743,1.3862545490264893
1732873925746313200,12.425313232421875,-0.7581014633178711,0.189927875995636,1.6071500778198242
1732873925756292600,12.435292724609376,-0.7314548492431641,0.2096441388130188,1.6120193004608154
1732873925766302500,12.445302490234376,-0.49947166442871094,0.19351506233215332,1.5220839977264404
1732873925776312000,12.45531201171875,-0.05507659912109375,0.17352235317230225,1.0091180801391602
1732873925786291200,12.465291259765625,0.44989585876464844,0.15501517057418823,0.5165199637413025
1732873925796301000,12.475301025390625,0.9963226318359375,0.1567600965499878,0.20098087191581726
1732873925806310700,12.485310546875,1.4022903442382812,0.11225587129592896,0.2572612166404724
1732873925816320500,12.495320556640625,1.6086416244506836,0.012737452983856201,0.3787150979042053
1732873925826300000,12.5052998046875,1.8097658157348633,-0.11578959226608276,0.40750131011009216
1732873925836309500,12.5153095703125,1.984269142150879,-0.26448744535446167,0.2933562397956848
1732873925846319400,12.5253193359375,2.247282028198242,-0.29801058769226074,0.00959855318069458
1732873925856298800,12.535298828125,2.5049171447753906,-0.17117345333099365,-0.5282522439956665
1732873925866308400,12.545308349609375,2.7930965423583984,0.11523604393005371,-1.356327772140503
1732873925876318200,12.555318115234375,3.0425405502319336,0.3595806956291199,-1.8074759244918823
1732873925886297300,12.56529736328125,3.258315086364746,0.5578383207321167,-1.7768150568008423
1732873925896307200,12.57530712890625,3.2851572036743164,0.7633925080299377,-1.4476377964019775
1732873925906316800,12.58531689453125,3.1426334381103516,1.0705379247665405,-0.8958617448806763
1732873925916296200,12.595296142578125,2.6757564544677734,0.8728616237640381,-0.33471181988716125
1732873925926306000,12.60530615234375,2.0491695404052734,-0.10643196105957031,0.17896604537963867
1732873925936315600,12.615315673828125,1.7171411514282227,-1.8001025915145874,0.11989350616931915
1732873925946295000,12.625294921875,2.442389488220215,-3.198673963546753,-0.8804842233657837
1732873925956305000,12.635304931640626,4.04219913482666,-3.932103395462036,-2.52898907661438
1732873925966314500,12.645314453125,5.621454238891602,-3.7007601261138916,-3.7193198204040527
1732873925976294000,12.6552939453125,6.297945022583008,-3.153613567352295,-3.9335920810699463
