time,seconds_elapsed,z,y,x
1732873913496919000,0.1759189453125,-0.0708603709936142,-0.10934487730264664,-0.016493361443281174
1732873913506920200,0.185920166015625,-0.08307767659425735,-0.1014036312699318,-0.025045474991202354
1732873913516908300,0.195908203125,-0.06902777403593063,-0.042760565876960754,-0.018936822190880775
1732873913526940000,0.20593994140625,-0.051312681287527084,-0.010995574295520782,-0.00427605677396059
1732873913536897300,0.215897216796875,-0.03420845419168472,0.00427605677396059,0.01160643994808197
1732873913546929200,0.22592919921875,-0.02015855349600315,0.006108652334660292,0.03237585723400116
1732873913556917000,0.2359169921875,-0.010995574295520782,0,0.04398229718208313
1732873913566948400,0.2459482421875,-0.007941247895359993,-0.0012217304902151227,0.04398229718208313
1732873913576906200,0.25590625,-0.009773843921720982,0.0012217304902151227,0.04337143152952194
1732873913586937300,0.265937255859375,-0.009162978269159794,0.00427605677396059,0.03176499158143997
1732873913596923600,0.275923583984375,-0.006719517521560192,0.001832595793530345,0.021991148591041565
1732873913606925600,0.285925537109375,-0.01160643994808197,-0.02076941914856434,0.014049900695681572
1732873913616913400,0.295913330078125,-0.029932396486401558,-0.05192354694008827,0.00855211354792118
1732873913626945000,0.305945068359375,-0.04398229718208313,-0.07391469180583954,0.0012217304902151227
1732873913636902700,0.315902587890625,-0.04703662544488907,-0.07147123664617538,-0.00733038317412138
1732873913646934000,0.32593408203125,-0.04214970022439957,-0.05925392732024193,-0.016493361443281174
1732873913656921900,0.335921875,-0.04092797264456749,-0.056810468435287476,-0.024434609338641167
1732873913666923300,0.34592333984375,-0.04764748737215996,-0.05192354694008827,-0.0403171069920063
1732873913676911000,0.3559111328125,-0.05803219974040985,-0.051312681287527084,-0.04886921867728233
1732873913686942700,0.365942626953125,-0.06169738993048668,-0.04886921867728233,-0.051312681287527084
1732873913696900600,0.375900634765625,-0.05925392732024193,-0.04459316283464432,-0.04092797264456749
1732873913706932700,0.3859326171875,-0.05497787147760391,-0.0507018156349659,-0.01710422709584236
1732873913716920300,0.39592041015625,-0.05925392732024193,-0.08368854224681854,0.010995574295520782
1732873913726921000,0.4059208984375,-0.06291911751031876,-0.11362093687057495,0.045204028487205505
1732873913736909300,0.415909423828125,-0.05314527451992035,-0.10751228034496307,0.07880161702632904
1732873913746941000,0.42594091796875,-0.0403171069920063,-0.07941248267889023,0.08857546001672745
1732873913756898600,0.435898681640625,-0.031154127791523933,-0.048258353024721146,0.07819075137376785
1732873913766929700,0.4459296875,-0.025656340643763542,-0.03420845419168472,0.05192354694008827
1732873913776918300,0.455918212890625,-0.025045474991202354,-0.03420845419168472,0.015882495790719986
1732873913786919000,0.4659189453125,-0.03298672288656235,-0.0403171069920063,-0.01710422709584236
1732873913796907000,0.475906982421875,-0.039095375686883926,-0.048258353024721146,-0.04337143152952194
1732873913806938400,0.4859384765625,-0.05314527451992035,-0.051312681287527084,-0.05864306539297104
1732873913816926500,0.495926513671875,-0.06352998316287994,-0.056810468435287476,-0.05192354694008827
1732873913826927600,0.505927734375,-0.06963863968849182,-0.06719517707824707,-0.03787364438176155
1732873913836915700,0.515915771484375,-0.06719517707824707,-0.0757472887635231,-0.019547687843441963
1732873913846973700,0.5259736328125,-0.060475658625364304,-0.07452555745840073,0.003054326167330146
1732873913856904700,0.53590478515625,-0.04886921867728233,-0.06169738993048668,0.02382374368607998
1732873913866936000,0.54593603515625,-0.036651913076639175,-0.04337143152952194,0.03787364438176155
1732873913876924000,0.555923828125,-0.03176499158143997,-0.031154127791523933,0.04581489413976669
1732873913886925000,0.565925048828125,-0.03726277872920036,-0.04948008432984352,0.03787364438176155
1732873913896913000,0.575912841796875,-0.05314527451992035,-0.06475171446800232,0.029932396486401558
1732873913906944500,0.585944580078125,-0.07147123664617538,-0.08185594528913498,0.015882495790719986
1732873913916902100,0.595902099609375,-0.08185594528913498,-0.09651670604944229,0.003054326167330146
1732873913926933500,0.60593359375,-0.08124507963657379,-0.09224065393209457,-0.006108652334660292
1732873913936921600,0.615921630859375,-0.07269296050071716,-0.059864792972803116,-0.006719517521560192
1732873913946922800,0.6259228515625,-0.06169738993048668,-0.015271631069481373,-0.00366519158706069
1732873913956910800,0.635910888671875,-0.03787364438176155,0.04703662544488907,0.001832595793530345
1732873913966942200,0.645942138671875,-0.019547687843441963,0.059864792972803116,0.0024434609804302454
1732873913976899600,0.655899658203125,-0.007941247895359993,0.04948008432984352,0.003054326167330146
1732873913986931200,0.66593115234375,-0.007941247895359993,0.025045474991202354,-0.0024434609804302454
1732873913996919000,0.6759189453125,-0.021991148591041565,-0.013439035043120384,-0.018325956538319588
1732873914006920400,0.68592041015625,-0.05192354694008827,-0.0806342139840126,-0.048258353024721146
1732873914016908300,0.695908203125,-0.09224065393209457,-0.16737708449363708,-0.0910189226269722
1732873914026939600,0.705939697265625,-0.13866640627384186,-0.2681698501110077,-0.15271630883216858
1732873914036897300,0.715897216796875,-0.15332718193531036,-0.29504790902137756,-0.17776179313659668
1732873914046928600,0.7259287109375,-0.15577064454555511,-0.27611109614372253,-0.1722639948129654
1732873914056916700,0.735916748046875,-0.14355333149433136,-0.2278527319431305,-0.13805554807186127
1732873914066948000,0.745947998046875,-0.12278391420841217,-0.1667662113904953,-0.0861319974064827
1732873914076905700,0.75590576171875,-0.1007927656173706,-0.10567969083786011,-0.029932396486401558
1732873914086937300,0.765937255859375,-0.0861319974064827,-0.04337143152952194,0.018936822190880775
1732873914096925200,0.77592529296875,-0.08429940044879913,0.018936822190880775,0.06291911751031876
1732873914106925000,0.785925048828125,-0.11301007121801376,0.0757472887635231,0.10445795953273773
1732873914116914200,0.7959140625,-0.14233160018920898,0.07513642311096191,0.11239920556545258
1732873914126946000,0.805946044921875,-0.1618792861700058,0.05864306539297104,0.1007927656173706
1732873914136903400,0.8159033203125,-0.16798794269561768,0.03726277872920036,0.07513642311096191
1732873914146934800,0.825934814453125,-0.1667662113904953,0.025656340643763542,0.04153883829712868
1732873914156923000,0.8359228515625,-0.1667662113904953,0.024434609338641167,0.0024434609804302454
1732873914166923800,0.845923828125,-0.17837265133857727,0.033597588539123535,-0.03237585723400116
1732873914176912000,0.855911865234375,-0.2076941877603531,0.06902777403593063,-0.0708603709936142
1732873914186943700,0.86594384765625,-0.23273965716362,0.10812314599752426,-0.07880161702632904
1732873914196900600,0.875900634765625,-0.2590068578720093,0.14844025671482086,-0.07269296050071716
1732873914206932700,0.8859326171875,-0.2822197377681732,0.18509216606616974,-0.059864792972803116
1732873914216920300,0.89592041015625,-0.28955012559890747,0.20830504596233368,-0.04337143152952194
1732873914226921700,0.905921630859375,-0.2779437005519867,0.21868975460529327,-0.0354301854968071
1732873914236909300,0.915909423828125,-0.25595253705978394,0.2321287989616394,-0.029932396486401558
1732873914246941000,0.92594091796875,-0.2223549485206604,0.24190263450145721,-0.00855211354792118
1732873914256898600,0.935898681640625,-0.2015855312347412,0.2278527319431305,0.013439035043120384
1732873914266930000,0.945929931640625,-0.18997909128665924,0.20586158335208893,0.0403171069920063
1732873914276918300,0.955918212890625,-0.18448130786418915,0.1875356286764145,0.07696902006864548
1732873914286919000,0.9659189453125,-0.18570303916931152,0.17043140530586243,0.12217304855585098
1732873914296906800,0.97590673828125,-0.19120082259178162,0.14782938361167908,0.16737708449363708
1732873914306938600,0.985938720703125,-0.19425514340400696,0.11056660860776901,0.20463985204696655
1732873914316926500,0.995926513671875,-0.18997909128665924,0.0555887371301651,0.2174680233001709
1732873914326927400,1.00592724609375,-0.15454891324043274,-0.018325956538319588,0.18875735998153687
1732873914336915500,1.01591552734375,-0.1362229436635971,-0.06414084881544113,0.14966198801994324
1732873914346947000,1.025947021484375,-0.12889257073402405,-0.10445795953273773,0.10506882518529892
1732873914356904700,1.03590478515625,-0.0959058403968811,-0.05925392732024193,0.05497787147760391
1732873914366936300,1.045936279296875,-0.06352998316287994,-0.05314527451992035,0.004886921960860491
1732873914376924000,1.055923828125,-0.03481931984424591,-0.030543262138962746,-0.01466076634824276
1732873914386925300,1.06592529296875,-0.015882495790719986,-0.009162978269159794,-0.012828170321881771
1732873914396913000,1.075912841796875,-0.01160643994808197,0.009162978269159794,0.033597588539123535
1732873914406944500,1.085944580078125,-0.022602014243602753,0.021380282938480377,0.09285151958465576
1732873914416902100,1.095902099609375,-0.03726277872920036,0.02076941914856434,0.15577064454555511
1732873914426933500,1.10593359375,-0.05314527451992035,0.006719517521560192,0.21563543379306793
1732873914436921600,1.115921630859375,-0.06414084881544113,-0.0012217304902151227,0.2620611786842346
1732873914446922500,1.125922607421875,-0.06658431142568588,-0.01160643994808197,0.2938261926174164
1732873914456910800,1.135910888671875,-0.06536258012056351,-0.02321287989616394,0.30482175946235657
1732873914466942200,1.145942138671875,-0.06780604273080826,-0.04948008432984352,0.2871066629886627
1732873914476899600,1.155899658203125,-0.07941248267889023,-0.06780604273080826,0.25961771607398987
1732873914486931200,1.16593115234375,-0.09712757170200348,-0.08368854224681854,0.22418753802776337
1732873914496919000,1.1759189453125,-0.10934487730264664,-0.0708603709936142,0.1973094791173935
1732873914506920200,1.185920166015625,-0.10873401165008545,-0.04092797264456749,0.18875735998153687
1732873914516908300,1.195908203125,-0.1007927656173706,-0.02626720629632473,0.1875356286764145
1732873914526939600,1.205939697265625,-0.0861319974064827,-0.045204028487205505,0.19608774781227112
1732873914536897500,1.2158974609375,-0.06780604273080826,-0.10384709388017654,0.1966986060142517
1732873914546929000,1.225928955078125,-0.03481931984424591,-0.25473082065582275,0.17043140530586243
1732873914556917000,1.2359169921875,-0.01160643994808197,-0.3390302062034607,0.1459967941045761
1732873914566948400,1.2459482421875,-0.025045474991202354,-0.3799581825733185,0.12522737681865692
1732873914576906000,1.255906005859375,-0.04459316283464432,-0.40194934606552124,0.11301007121801376
1732873914586937300,1.265937255859375,-0.060475658625364304,-0.4001167416572571,0.08735372871160507
1732873914596923600,1.275923583984375,-0.06169738993048668,-0.3445279896259308,0.05803219974040985
1732873914606925300,1.28592529296875,-0.03726277872920036,-0.27122417092323303,0.02932153269648552
1732873914616913700,1.29591357421875,0.001832595793530345,-0.20036379992961884,-0.02382374368607998
1732873914626945000,1.305945068359375,0.01160643994808197,-0.1716531366109848,-0.06108652427792549
1732873914636902400,1.31590234375,-0.0012217304902151227,-0.13377949595451355,-0.09407325088977814
1732873914646933800,1.325933837890625,-0.02626720629632473,-0.11484266817569733,-0.12095131725072861
1732873914656921900,1.335921875,-0.04398229718208313,-0.10873401165008545,-0.1258382350206375
1732873914666922800,1.3459228515625,-0.05314527451992035,-0.10567969083786011,-0.10384709388017654
1732873914676911000,1.3559111328125,-0.04886921867728233,-0.11850785464048386,-0.05803219974040985
1732873914686942500,1.3659423828125,0.0024434609804302454,-0.1368338167667389,0.04764748737215996
1732873914696900600,1.375900634765625,0.05253441259264946,-0.13255776464939117,0.1264491081237793
1732873914706932000,1.385931884765625,0.09285151958465576,-0.12095131725072861,0.18448130786418915
1732873914716920300,1.39592041015625,0.11301007121801376,-0.10445795953273773,0.21013765037059784
1732873914726921000,1.4059208984375,0.10690141469240189,-0.08185594528913498,0.21013765037059784
1732873914736909300,1.415909423828125,0.07269296050071716,-0.05253441259264946,0.15943582355976105
1732873914746940400,1.4259404296875,0.01466076634824276,-0.02076941914856434,0.05192354694008827
1732873914756898600,1.435898681640625,-0.0757472887635231,0.02015855349600315,-0.08307767659425735
1732873914766929400,1.445929443359375,-0.21868975460529327,0.10384709388017654,-0.2742784917354584
1732873914776918000,1.45591796875,-0.2926044464111328,0.18509216606616974,-0.35613444447517395
1732873914786918400,1.46591845703125,-0.31642818450927734,0.27611109614372253,-0.3836233615875244
1732873914796907000,1.475906982421875,-0.3072652220726013,0.3439171314239502,-0.34513887763023376
1732873914806938600,1.485938720703125,-0.2938261926174164,0.3640756905078888,-0.25473082065582275
1732873914816926500,1.495926513671875,-0.2889392673969269,0.3323107063770294,-0.14966198801994324
1732873914826927400,1.50592724609375,-0.2926044464111328,0.27550023794174194,-0.045204028487205505
1732873914836915500,1.51591552734375,-0.29504790902137756,0.23945917189121246,0.07208210229873657
1732873914846946600,1.525946533203125,-0.2730567753314972,0.2626720666885376,0.10812314599752426
1732873914856904400,1.535904541015625,-0.23579397797584534,0.3182607889175415,0.10567969083786011
1732873914866935600,1.545935546875,-0.18020524084568024,0.3995058834552765,0.07452555745840073
1732873914876924200,1.555924072265625,-0.13866640627384186,0.4495968222618103,0.016493361443281174
1732873914886924300,1.56592431640625,-0.11789698898792267,0.48808133602142334,-0.04398229718208313
1732873914896913000,1.575912841796875,-0.12095131725072861,0.5180137157440186,-0.09957103431224823
1732873914906944500,1.585944580078125,-0.16859880089759827,0.5345070958137512,-0.1472185254096985
1732873914916902100,1.595902099609375,-0.21441370248794556,0.5198463201522827,-0.14782938361167908
1732873914926933500,1.60593359375,-0.2583959996700287,0.4642575979232788,-0.12339477986097336
1732873914936921600,1.615921630859375,-0.28649580478668213,0.37201693654060364,-0.08429940044879913
1732873914946922500,1.625922607421875,-0.29016098380088806,0.2571742534637451,-0.03787364438176155
1732873914956910600,1.63591064453125,-0.2828305959701538,0.1270599663257599,0.0012217304902151227
1732873914966941400,1.64594140625,-0.2724458873271942,-0.006108652334660292,0.01710422709584236
1732873914976899600,1.655899658203125,-0.2632829248905182,-0.12522737681865692,0.00855211354792118
1732873914986930400,1.665930419921875,-0.26633724570274353,-0.23457226157188416,-0.033597588539123535
1732873914996919000,1.6759189453125,-0.2736676335334778,-0.23884831368923187,-0.06475171446800232
1732873915006920400,1.68592041015625,-0.2718350291252136,-0.21502456068992615,-0.0910189226269722
1732873915016908300,1.695908203125,-0.2474004179239273,-0.15821409225463867,-0.10567969083786011
1732873915026940000,1.70593994140625,-0.21013765037059784,-0.09957103431224823,-0.1014036312699318
1732873915036897000,1.71589697265625,-0.17592918872833252,-0.059864792972803116,-0.06169738993048668
1732873915046929000,1.725928955078125,-0.15760323405265808,-0.02871066704392433,0.029932396486401558
1732873915056916700,1.735916748046875,-0.13744467496871948,-0.051312681287527084,0.20830504596233368
1732873915066948400,1.7459482421875,-0.12217304855585098,-0.10323622822761536,0.3274237811565399
1732873915076905700,1.75590576171875,-0.0708603709936142,-0.11545353382825851,0.4294382631778717
1732873915086937300,1.765937255859375,0.01710422709584236,-0.08918632566928864,0.5076290369033813
1732873915096925400,1.775925537109375,0.10323622822761536,-0.07696902006864548,0.5760459303855896
1732873915106926000,1.785926025390625,0.16371189057826996,-0.09957103431224823,0.6579018831253052
1732873915116914200,1.7959140625,0.1875356286764145,-0.13561208546161652,0.7513642311096191
1732873915126945500,1.805945556640625,0.2076941877603531,-0.1313360333442688,0.8637634515762329
1732873915136903400,1.8159033203125,0.23335053026676178,-0.16737708449363708,0.8723155856132507
1732873915146934800,1.825934814453125,0.21013765037059784,-0.2119702398777008,0.7855727076530457
1732873915156923000,1.8359228515625,0.12950342893600464,-0.28099802136421204,0.6200281977653503
1732873915166923000,1.845923095703125,0.018936822190880775,-0.40072759985923767,0.3744603991508484
1732873915176912000,1.855911865234375,-0.08735372871160507,-0.5338962078094482,0.08307767659425735
1732873915186943500,1.865943603515625,-0.18509216606616974,-0.6841690540313721,-0.2217440903186798
1732873915196900900,1.87590087890625,-0.2883284091949463,-0.836885392665863,-0.48319441080093384
1732873915206932500,1.885932373046875,-0.3988949954509735,-0.978606104850769,-0.7348709106445312
1732873915216920300,1.89592041015625,-0.4306600093841553,-0.9535606503486633,-0.8038986921310425
1732873915226921500,1.90592138671875,-0.4153883755207062,-0.740368664264679,-0.7727445363998413
1732873915236909300,1.915909423828125,-0.35552358627319336,-0.35063666105270386,-0.6126978397369385
1732873915246941000,1.92594091796875,-0.27550023794174194,0.13316862285137177,-0.3341432809829712
1732873915256898600,1.935898681640625,-0.18570303916931152,0.5607742667198181,0.021380282938480377
1732873915266928600,1.9459287109375,-0.07819075137376785,0.846659243106842,0.3903428912162781
1732873915276918000,1.95591796875,0.07513642311096191,0.8411614298820496,0.8203920125961304
1732873915286917600,1.965917724609375,0.12522737681865692,0.6102544069290161,0.9492846131324768
1732873915296906800,1.97590673828125,0.08979719132184982,0.22052235901355743,0.9089674949645996
1732873915306937300,1.985937255859375,-0.015271631069481373,-0.24984388053417206,0.7116580009460449
1732873915316926500,1.995926513671875,-0.1563815027475357,-0.7385360598564148,0.34697145223617554
1732873915326927400,2.00592724609375,-0.3017674386501312,-1.1087204217910767,-0.16004669666290283
1732873915336915500,2.01591552734375,-0.4031710624694824,-1.189354658126831,-0.7104362845420837
1732873915346946800,2.02594677734375,-0.4703662395477295,-0.7544185519218445,-1.389107584953308
1732873915356904400,2.035904541015625,-0.4599815309047699,-0.3219259977340698,-1.6022995710372925
1732873915366936000,2.04593603515625,-0.4001167416572571,0.12522737681865692,-1.540602207183838
1732873915376924000,2.055923828125,-0.3078760802745819,0.4703662395477295,-1.2345587015151978
1732873915386925000,2.065925048828125,-0.20097467303276062,0.656069278717041,-0.7751879692077637
1732873915396913400,2.075913330078125,-0.07819075137376785,0.7373143434524536,-0.2938261926174164
1732873915406943000,2.08594287109375,0.05192354694008827,0.7086036801338196,0.11178833991289139
1732873915416902100,2.095902099609375,0.192422553896904,0.5943718552589417,0.403781920671463
1732873915426932700,2.1059326171875,0.4153883755207062,0.3988949954509735,0.5943718552589417
1732873915436921900,2.115921875,0.5375614166259766,0.2987131178379059,0.6096435189247131
1732873915446922500,2.125922607421875,0.6194173693656921,0.2125810980796814,0.5748242139816284
1732873915456910600,2.13591064453125,0.6481280326843262,0.12461651116609573,0.5229006409645081
1732873915466942200,2.145942138671875,0.6426302194595337,0.05742133408784866,0.4691445231437683
1732873915476899600,2.155899658203125,0.5845980644226074,0.00733038317412138,0.4178318381309509
1732873915486930200,2.16593017578125,0.4789183437824249,-0.033597588539123535,0.37140607833862305
1732873915496919000,2.1759189453125,0.26633724570274353,-0.11239920556545258,0.2968805134296417
1732873915506919200,2.185919189453125,0.11545353382825851,-0.17592918872833252,0.23151792585849762
1732873915516908300,2.195908203125,-0.018936822190880775,-0.22540926933288574,0.1472185254096985
1732873915526938400,2.2059384765625,-0.1270599663257599,-0.2938261926174164,0.07819075137376785
1732873915536897300,2.215897216796875,-0.15454891324043274,-0.31459560990333557,0.02382374368607998
1732873915546929000,2.225928955078125,-0.05803219974040985,-0.3689626157283783,-0.05192354694008827
1732873915556916700,2.235916748046875,0.1258382350206375,-0.413555771112442,-0.1722639948129654
1732873915566948400,2.2459482421875,0.35063666105270386,-0.2974913716316223,-0.303600013256073
1732873915576906000,2.255906005859375,0.4349360466003418,-0.24373523890972137,-0.3390302062034607
1732873915586936000,2.26593603515625,0.45265114307403564,-0.24434609711170197,-0.3072652220726013
1732873915596923400,2.27592333984375,0.394618958234787,-0.251676470041275,-0.21563543379306793
1732873915606924300,2.28592431640625,0.2217440903186798,-0.20952677726745605,-0.08002334833145142
1732873915616913400,2.295913330078125,-0.010995574295520782,-0.1661553531885147,0.06841690838336945
1732873915626945000,2.305945068359375,-0.16982053220272064,-0.1514945775270462,0.1918116807937622
1732873915636902400,2.31590234375,-0.09468411654233932,-0.14477506279945374,0.2541199326515198
1732873915646933800,2.325933837890625,0.10262536257505417,-0.10018189996480942,0.21013765037059784
1732873915656922000,2.335922119140625,0.1966986060142517,-0.006719517521560192,0.152105450630188
1732873915666923000,2.345923095703125,0.27550023794174194,0.08979719132184982,0.10201449692249298
1732873915676911000,2.3559111328125,0.33292156457901,0.12522737681865692,0.04886921867728233
1732873915686942700,2.365942626953125,0.37262779474258423,0.1411098688840866,-0.01160643994808197
1732873915696900600,2.375900634765625,0.40683624148368835,0.13377949595451355,-0.07819075137376785
1732873915706932500,2.385932373046875,0.3781255781650543,0.04153883829712868,-0.1765400618314743
1732873915716920300,2.39592041015625,0.242513507604599,-0.14782938361167908,-0.38728857040405273
1732873915726921200,2.405921142578125,0.1270599663257599,-0.2480112910270691,-0.5503895878791809
1732873915736909300,2.415909423828125,0.0012217304902151227,-0.26633724570274353,-0.6896668672561646
1732873915746941000,2.42594091796875,-0.0806342139840126,-0.152105450630188,-0.7550294399261475
1732873915756898600,2.435898681640625,-0.09040805697441101,0.04092797264456749,-0.7086036801338196
1732873915766930000,2.445929931640625,-0.03787364438176155,0.3176499307155609,-0.5082398653030396
1732873915776918000,2.45591796875,0.09773843735456467,0.5968153476715088,-0.17531833052635193
1732873915786918000,2.46591796875,0.3897320330142975,0.7580837607383728,0.36590829491615295
1732873915796906800,2.47590673828125,0.5668829679489136,0.665232241153717,0.6340781450271606
1732873915806937300,2.485937255859375,0.6591235995292664,0.5106833577156067,0.8051204085350037
1732873915816926500,2.495926513671875,0.675006091594696,0.3384193480014801,0.8649851679801941
1732873915826926300,2.50592626953125,0.6188064813613892,0.1514945775270462,0.8185594081878662
1732873915836915700,2.515915771484375,0.503963828086853,-0.05864306539297104,0.6805039048194885
1732873915846976800,2.525976806640625,0.3494149148464203,-0.25595253705978394,0.4691445231437683
1732873915856904700,2.53590478515625,0.20830504596233368,-0.3982841372489929,0.22479841113090515
1732873915866935600,2.545935546875,0.05253441259264946,-0.4550946056842804,-0.13011430203914642
1732873915876924200,2.555924072265625,-0.04886921867728233,-0.4080579876899719,-0.33292156457901
1732873915886924300,2.56592431640625,-0.1569923609495163,-0.32131510972976685,-0.4996877610683441
1732873915896913000,2.575912841796875,-0.26633724570274353,-0.22846360504627228,-0.6243042945861816
1732873915906943500,2.585943603515625,-0.3842342495918274,-0.12339477986097336,-0.6927211880683899
1732873915916902100,2.595902099609375,-0.5436700582504272,-0.08429940044879913,-0.7293730974197388
1732873915926933500,2.60593359375,-0.6407976150512695,-0.08429940044879913,-0.7183775305747986
1732873915936921600,2.615921630859375,-0.6414085030555725,0.04703662544488907,-0.53328537940979
1732873915946922800,2.6259228515625,-0.6291912198066711,0.15454891324043274,-0.36102136969566345
1732873915956910600,2.63591064453125,-0.5375614166259766,0.28099802136421204,-0.17898350954055786
1732873915966942200,2.645942138671875,-0.4086688458919525,0.16920967400074005,-0.08124507963657379
1732873915976899600,2.655899658203125,-0.35124751925468445,0.06780604273080826,-0.012828170321881771
1732873915986931500,2.665931396484375,-0.2932153046131134,0.17592918872833252,0.1508837193250656
1732873915996919000,2.6759189453125,-0.22418753802776337,0.15271630883216858,0.2877175211906433
1732873916006919200,2.685919189453125,-0.12889257073402405,0.03787364438176155,0.2871066629886627
1732873916016908000,2.695907958984375,-0.09346238523721695,-0.009162978269159794,0.2376265823841095
1732873916026939100,2.705939208984375,-0.08918632566928864,-0.05925392732024193,0.16859880089759827
1732873916036897300,2.715897216796875,-0.10995574295520782,-0.0806342139840126,0.08368854224681854
1732873916046928400,2.725928466796875,-0.15393804013729095,-0.07147123664617538,-0.001832595793530345
1732873916056916700,2.735916748046875,-0.19425514340400696,-0.05864306539297104,-0.08185594528913498
1732873916066947800,2.74594775390625,-0.21135938167572021,-0.05009094998240471,-0.1411098688840866
1732873916076905700,2.75590576171875,-0.2223549485206604,-0.00733038317412138,-0.15027284622192383
1732873916086937600,2.7659375,-0.22357667982578278,0.0959058403968811,-0.10812314599752426
1732873916096925400,2.775925537109375,-0.19120082259178162,0.16737708449363708,-0.08735372871160507
1732873916106925300,2.78592529296875,-0.13011430203914642,0.21991148591041565,-0.08552113175392151
1732873916116914200,2.7959140625,-0.036651913076639175,0.2321287989616394,-0.09468411654233932
1732873916126944500,2.805944580078125,0.056810468435287476,0.20891591906547546,-0.10995574295520782
1732873916136903200,2.815903076171875,0.12278391420841217,0.14416420459747314,-0.1313360333442688
1732873916146934800,2.825934814453125,0.16493362188339233,0.039706241339445114,-0.1563815027475357
1732873916156923000,2.8359228515625,0.16432274878025055,-0.0659734457731247,-0.1215621829032898
1732873916166924000,2.845924072265625,0.07330382615327835,-0.08918632566928864,-0.0555887371301651
1732873916176912100,2.855912109375,0.012828170321881771,-0.10873401165008545,-0.022602014243602753
1732873916186943500,2.865943603515625,0.009773843921720982,-0.11850785464048386,-0.03420845419168472
1732873916196900900,2.87590087890625,0.029932396486401558,-0.1514945775270462,-0.07757988572120667
1732873916206932500,2.885932373046875,0.04092797264456749,-0.17409659922122955,-0.12400564551353455
1732873916216920300,2.89592041015625,0.010995574295520782,-0.19608774781227112,-0.1563815027475357
1732873916226921200,2.905921142578125,-0.0708603709936142,-0.27611109614372253,-0.242513507604599
1732873916236909300,2.915909423828125,-0.16432274878025055,-0.35735616087913513,-0.3286454975605011
1732873916246939600,2.925939697265625,-0.2816088795661926,-0.48319441080093384,-0.4447098970413208
1732873916256898600,2.935898681640625,-0.41599923372268677,-0.6438519954681396,-0.588263213634491
1732873916266928600,2.9459287109375,-0.5632177591323853,-0.778853178024292,-0.7202101349830627
1732873916276918000,2.95591796875,-0.7110471725463867,-0.9059131741523743,-0.8295549750328064
1732873916286919200,2.965919189453125,-0.8234463334083557,-1.0201449394226074,-0.8924741148948669
1732873916296906800,2.97590673828125,-0.8692612648010254,-1.0995573997497559,-0.8313875794410706
1732873916306938600,2.985938720703125,-0.8100073337554932,-1.016479730606079,-0.6676757335662842
1732873916316926500,2.995926513671875,-0.6860016584396362,-0.8442157506942749,-0.4098905920982361
1732873916326927400,3.00592724609375,-0.5778785347938538,-0.6114761233329773,-0.06536258012056351
1732873916336915500,3.01591552734375,-0.5821545720100403,-0.342695415019989,0.2785545587539673
1732873916346947000,3.025947021484375,-0.5913175344467163,-0.10018189996480942,0.5357288122177124
1732873916356904700,3.03590478515625,-0.5845980644226074,0.10934487730264664,0.6835582256317139
1732873916366936000,3.04593603515625,-0.5681046843528748,0.24617868661880493,0.7434229850769043
1732873916376924200,3.055924072265625,-0.5094616413116455,0.29504790902137756,0.6780604124069214
1732873916386923800,3.065923828125,-0.47830748558044434,0.2382374405860901,0.5283984541893005
1732873916396913200,3.0759130859375,-0.4440990388393402,0.15027284622192383,0.313373863697052
1732873916406943700,3.08594384765625,-0.39706242084503174,0.036651913076639175,0.07024950534105301
1732873916416902100,3.095902099609375,-0.35552358627319336,-0.08307767659425735,-0.15332718193531036
1732873916426933500,3.10593359375,-0.3384193480014801,-0.14355333149433136,-0.33292156457901
1732873916436921900,3.115921875,-0.35063666105270386,-0.1618792861700058,-0.4495968222618103
1732873916446922500,3.125922607421875,-0.3891211748123169,-0.1368338167667389,-0.48380526900291443
1732873916456910800,3.135910888671875,-0.40256020426750183,-0.08124507963657379,-0.4447098970413208
1732873916466942200,3.145942138671875,-0.4196644127368927,0.00366519158706069,-0.3701843321323395
1732873916476899600,3.155899658203125,-0.42210787534713745,0.1264491081237793,-0.2681698501110077
1732873916486931500,3.165931396484375,-0.3927863538265228,0.24068090319633484,-0.1508837193250656
1732873916496919000,3.1759189453125,-0.3243694305419922,0.3243694305419922,-0.02687807008624077
1732873916506920200,3.185920166015625,-0.26511552929878235,0.3481931984424591,0.08735372871160507
1732873916516908300,3.195908203125,-0.2724458873271942,0.26450464129447937,0.21868975460529327
1732873916526940200,3.205940185546875,-0.2687807083129883,0.2376265823841095,0.2681698501110077
1732873916536897300,3.215897216796875,-0.2583959996700287,0.21807889640331268,0.29077184200286865
1732873916546928600,3.2259287109375,-0.2480112910270691,0.18814650177955627,0.28466320037841797
1732873916556917000,3.2359169921875,-0.21807889640331268,0.1814269721508026,0.26083946228027344
1732873916566948400,3.2459482421875,-0.1716531366109848,0.1966986060142517,0.21441370248794556
1732873916576905700,3.25590576171875,-0.1160643994808197,0.20891591906547546,0.13561208546161652
1732873916586937600,3.2659375,-0.05253441259264946,0.2070833146572113,0.03176499158143997
1732873916596923600,3.275923583984375,0.04642575979232788,0.16554448008537292,-0.13744467496871948
1732873916606925300,3.28592529296875,0.11362093687057495,0.10384709388017654,-0.21380282938480377
1732873916616913700,3.29591357421875,0.15271630883216858,0.021991148591041565,-0.252287358045578
1732873916626945000,3.305945068359375,0.1667662113904953,-0.05497787147760391,-0.252287358045578
1732873916636902100,3.315902099609375,0.17104226350784302,-0.1411098688840866,-0.2168571650981903
1732873916646933800,3.325933837890625,0.18875735998153687,-0.21135938167572021,-0.14844025671482086
1732873916656922000,3.335922119140625,0.21868975460529327,-0.24129177629947662,-0.05742133408784866
1732873916666922800,3.3459228515625,0.2590068578720093,-0.25106561183929443,0.06352998316287994
1732873916676911000,3.3559111328125,0.2590068578720093,-0.20097467303276062,0.13255776464939117
1732873916686942700,3.365942626953125,0.24617868661880493,-0.13866640627384186,0.17592918872833252
1732873916696900600,3.375900634765625,0.2278527319431305,-0.08124507963657379,0.1820378452539444
1732873916706932700,3.3859326171875,0.20341812074184418,-0.03420845419168472,0.15332718193531036
1732873916716920300,3.39592041015625,0.1765400618314743,0.006719517521560192,0.08368854224681854
1732873916726921500,3.40592138671875,0.15882496535778046,0.0024434609804302454,0.01466076634824276
1732873916736909300,3.415909423828125,0.16798794269561768,-0.03481931984424591,-0.02687807008624077
1732873916746941000,3.42594091796875,0.17348572611808777,-0.07696902006864548,-0.03787364438176155
1732873916756898600,3.435898681640625,0.16493362188339233,-0.12889257073402405,-0.04337143152952194
1732873916766930000,3.445929931640625,0.15027284622192383,-0.17470745742321014,-0.042760565876960754
1732873916776918000,3.45591796875,0.13866640627384186,-0.21930062770843506,-0.04337143152952194
1732873916786919200,3.465919189453125,0.13255776464939117,-0.2480112910270691,-0.05803219974040985
1732873916796906800,3.47590673828125,0.11362093687057495,-0.2480112910270691,-0.08857546001672745
1732873916806938400,3.4859384765625,0.08368854224681854,-0.23151792585849762,-0.13988813757896423
1732873916816926500,3.495926513671875,0.019547687843441963,-0.20830504596233368,-0.23029619455337524
1732873916826927400,3.50592724609375,-0.03176499158143997,-0.20830504596233368,-0.313373863697052
1732873916836915500,3.51591552734375,-0.08307767659425735,-0.2174680233001709,-0.4453207552433014
1732873916846947000,3.525947021484375,-0.13011430203914642,-0.23090706765651703,-0.6053674817085266
1732873916856904700,3.53590478515625,-0.15882496535778046,-0.2370157092809677,-0.6914994716644287
1732873916866936000,3.54593603515625,-0.16065755486488342,-0.16982053220272064,-0.6090326309204102
1732873916876924200,3.555924072265625,-0.07452555745840073,-0.0507018156349659,-0.4031710624694824
1732873916886923800,3.565923828125,0.16004669666290283,0.05619960278272629,0.0861319974064827
1732873916896913000,3.575912841796875,0.2724458873271942,0.09651670604944229,0.45204028487205505
1732873916906943500,3.585943603515625,0.3481931984424591,0.09773843735456467,0.7507534027099609
1732873916916902100,3.595902099609375,0.39156460762023926,0.04948008432984352,0.9169087409973145
1732873916926932500,3.605932373046875,0.3701843321323395,-0.03298672288656235,0.9224064946174622
1732873916936921600,3.615921630859375,0.2889392673969269,-0.11667526513338089,0.7819074988365173
1732873916946922000,3.625921875,0.17104226350784302,-0.1618792861700058,0.53328537940979
1732873916956910800,3.635910888671875,-0.036041051149368286,-0.17104226350784302,0.07269296050071716
1732873916966941700,3.645941650390625,-0.1612684279680252,-0.18020524084568024,-0.2119702398777008
1732873916976899600,3.655899658203125,-0.2590068578720093,-0.19303341209888458,-0.4196644127368927
1732873916986931200,3.66593115234375,-0.3188716471195221,-0.16859880089759827,-0.5161811113357544
1732873916996919000,3.6759189453125,-0.32620203495025635,-0.13377949595451355,-0.5070181488990784
1732873917006920200,3.685920166015625,-0.28588494658470154,-0.11239920556545258,-0.4147774875164032
1732873917016908000,3.695907958984375,-0.21319197118282318,-0.08552113175392151,-0.24434609711170197
1732873917026940000,3.70593994140625,-0.15271630883216858,-0.05497787147760391,-0.02871066704392433
1732873917036897300,3.715897216796875,-0.1160643994808197,0.060475658625364304,0.2620611786842346
1732873917046928600,3.7259287109375,-0.11239920556545258,0.1612684279680252,0.37568211555480957
1732873917056916700,3.735916748046875,-0.12217304855585098,0.23945917189121246,0.4178318381309509
1732873917066948400,3.7459482421875,-0.14049901068210602,0.29016098380088806,0.4147774875164032
1732873917076905700,3.75590576171875,-0.16432274878025055,0.3078760802745819,0.3927863538265228
1732873917086937300,3.765937255859375,-0.1820378452539444,0.2993239760398865,0.3683517575263977
1732873917096925200,3.77592529296875,-0.18997909128665924,0.2626720666885376,0.34636059403419495
1732873917106926300,3.78592626953125,-0.17531833052635193,0.18997909128665924,0.32009339332580566
1732873917116914200,3.7959140625,-0.15577064454555511,0.1612684279680252,0.2974913716316223
1732873917126945800,3.80594580078125,-0.13561208546161652,0.14355333149433136,0.24678955972194672
1732873917136903400,3.8159033203125,-0.12034045159816742,0.11972958594560623,0.1722639948129654
1732873917146934800,3.825934814453125,-0.12339477986097336,0.08307767659425735,0.0861319974064827
1732873917156923000,3.8359228515625,-0.14538592100143433,0.05497787147760391,-0.0024434609804302454
1732873917166923800,3.845923828125,-0.1771509200334549,0.04642575979232788,-0.0861319974064827
1732873917176912000,3.855911865234375,-0.22296582162380219,0.03848451003432274,-0.17592918872833252
1732873917186943500,3.865943603515625,-0.24068090319633484,0.025045474991202354,-0.1765400618314743
1732873917196900900,3.87590087890625,-0.24556782841682434,0.00855211354792118,-0.10201449692249298
1732873917206932700,3.8859326171875,-0.2174680233001709,0.018936822190880775,-0.019547687843441963
1732873917216920300,3.89592041015625,-0.18997909128665924,0.01038470957428217,0.06108652427792549
1732873917226922000,3.905921875,-0.18325957655906677,-0.01466076634824276,0.1264491081237793
1732873917236909300,3.915909423828125,-0.19914206862449646,-0.04153883829712868,0.16493362188339233
1732873917246941000,3.92594091796875,-0.22418753802776337,-0.07330382615327835,0.16065755486488342
1732873917256898600,3.935898681640625,-0.2779437005519867,-0.12339477986097336,0.0757472887635231
1732873917266930000,3.945929931640625,-0.3292563557624817,-0.1722639948129654,-0.021991148591041565
1732873917276918000,3.95591796875,-0.37690386176109314,-0.2174680233001709,-0.12828169763088226
1732873917286919200,3.965919189453125,-0.41172316670417786,-0.2376265823841095,-0.21991148591041565
1732873917296906800,3.97590673828125,-0.4434881806373596,-0.22846360504627228,-0.28038713335990906
1732873917306939000,3.98593896484375,-0.4605923891067505,-0.23090706765651703,-0.28527405858039856
1732873917316926500,3.995926513671875,-0.46547931432724,-0.23884831368923187,-0.2565633952617645
1732873917326928000,4.005927978515625,-0.4746423065662384,-0.2791654169559479,-0.2577851414680481
1732873917336915500,4.01591552734375,-0.4813618063926697,-0.3677408695220947,-0.2681698501110077
1732873917346947000,4.025947021484375,-0.49296826124191284,-0.4593706727027893,-0.2742784917354584
1732873917356904400,4.035904541015625,-0.5106833577156067,-0.5296201705932617,-0.294437050819397
1732873917366936000,4.04593603515625,-0.5338962078094482,-0.5791002511978149,-0.3292563557624817
1732873917376924200,4.055924072265625,-0.5589417219161987,-0.6304129362106323,-0.37201693654060364
1732873917386925000,4.065925048828125,-0.608421802520752,-0.675006091594696,-0.4092797040939331
1732873917396913400,4.075913330078125,-0.6957755088806152,-0.7067710757255554,-0.3646865487098694
1732873917406944800,4.08594482421875,-0.6383541822433472,-0.5974262356758118,-0.20952677726745605
1732873917416902100,4.095902099609375,-0.4862487316131592,-0.37201693654060364,0.03298672288656235
1732873917426932700,4.1059326171875,-0.2767219543457031,-0.09834930300712585,0.342695415019989
1732873917436921600,4.115921630859375,-0.051312681287527084,0.15577064454555511,0.6719517707824707
1732873917446921200,4.125921142578125,0.16432274878025055,0.34147366881370544,0.9523389339447021
1732873917456910800,4.135910888671875,0.3341432809829712,0.44287729263305664,1.1282681226730347
1732873917466941000,4.14594091796875,0.4331034719944,0.40194934606552124,1.1582005023956299
1732873917476899600,4.155899658203125,0.4153883755207062,0.21624629199504852,0.9443976879119873
1732873917486930000,4.165929931640625,0.24495697021484375,0.2638937830924988,0.6823364496231079
1732873917496919000,4.1759189453125,-0.08368854224681854,0.4648684561252594,0.3799581825733185
1732873917506920200,4.185920166015625,-0.4105014503002167,0.36102136969566345,-0.021380282938480377
1732873917516908300,4.195908203125,-0.5571091175079346,0.08429940044879913,-0.39156460762023926
1732873917526940400,4.2059404296875,-0.5778785347938538,-0.016493361443281174,-0.6811147332191467
1732873917536897300,4.215897216796875,-0.5406157374382019,0.001832595793530345,-0.8332201838493347
1732873917546929000,4.225928955078125,-0.4129449129104614,0.1411098688840866,-0.7257078886032104
1732873917556917000,4.2359169921875,-0.2791654169559479,0.27122417092323303,-0.4691445231437683
1732873917566947000,4.245947021484375,-0.09468411654233932,0.4447098970413208,-0.13072516024112701
1732873917576906000,4.255906005859375,0.09407325088977814,0.5821545720100403,0.21319197118282318
1732873917586937600,4.2659375,0.2321287989616394,0.6279694437980652,0.4905247986316681
1732873917596923600,4.275923583984375,0.303600013256073,0.626747727394104,0.6774495840072632
1732873917606925300,4.28592529296875,0.294437050819397,0.5723807215690613,0.7654141783714294
1732873917616913400,4.295913330078125,0.17592918872833252,0.36713001132011414,0.7263187766075134
1732873917626944500,4.305944580078125,0.11178833991289139,0.22357667982578278,0.6108652353286743
1732873917636902400,4.31590234375,0.04642575979232788,0.07696902006864548,0.43676865100860596
1732873917646933200,4.325933349609375,0.00733038317412138,-0.00427605677396059,0.24678955972194672
1732873917656922000,4.335922119140625,-0.018325956538319588,-0.03787364438176155,0.06902777403593063
1732873917666923000,4.345923095703125,-0.0659734457731247,-0.02626720629632473,-0.08857546001672745
1732873917676911000,4.3559111328125,-0.1612684279680252,0.13255776464939117,-0.18631389737129211
1732873917686942500,4.3659423828125,-0.2974913716316223,0.3084869384765625,-0.22540926933288574
1732873917696900900,4.37590087890625,-0.28466320037841797,0.08796459436416626,-0.30604347586631775
1732873917706932200,4.38593212890625,-0.21563543379306793,0.006719517521560192,-0.3127630054950714
1732873917716920300,4.39592041015625,-0.1661553531885147,-0.00427605677396059,-0.2528982162475586
1732873917726921200,4.405921142578125,-0.1264491081237793,-0.00733038317412138,-0.12522737681865692
1732873917736909600,4.41590966796875,-0.08674286305904388,-0.06108652427792549,0.025656340643763542
1732873917746941200,4.425941162109375,-0.05742133408784866,-0.13377949595451355,0.15454891324043274
1732873917756898600,4.435898681640625,-0.05009094998240471,-0.1417207419872284,0.23457226157188416
1732873917766930000,4.445929931640625,-0.04398229718208313,-0.10384709388017654,0.23457226157188416
1732873917776918000,4.45591796875,-0.04764748737215996,-0.04581489413976669,0.16737708449363708
1732873917786919200,4.465919189453125,-0.06841690838336945,-0.02015855349600315,0.06414084881544113
1732873917796907000,4.475906982421875,-0.0861319974064827,-0.01466076634824276,-0.039706241339445114
1732873917806938600,4.485938720703125,-0.09285151958465576,-0.0555887371301651,-0.12095131725072861
1732873917816926500,4.495926513671875,-0.09834930300712585,-0.1258382350206375,-0.1563815027475357
1732873917826927400,4.50592724609375,-0.08735372871160507,-0.24495697021484375,-0.15515977144241333
1732873917836915500,4.51591552734375,-0.05742133408784866,-0.43127086758613586,-0.13316862285137177
1732873917846975700,4.525975830078125,-0.06963863968849182,-0.49846604466438293,-0.09285151958465576
1732873917856904400,4.535904541015625,-0.06780604273080826,-0.5687155723571777,-0.06536258012056351
1732873917866936000,4.54593603515625,-0.04153883829712868,-0.6047565937042236,-0.054367005825042725
1732873917876924000,4.555923828125,-0.025656340643763542,-0.5729916095733643,-0.06108652427792549
1732873917886925000,4.565925048828125,-0.019547687843441963,-0.5149593949317932,-0.08552113175392151
1732873917896913000,4.575912841796875,-0.0012217304902151227,-0.4862487316131592,-0.1215621829032898
1732873917906944500,4.585944580078125,0.04581489413976669,-0.4996877610683441,-0.1820378452539444
1732873917916902100,4.595902099609375,0.12950342893600464,-0.4954117238521576,-0.32986724376678467
1732873917926933500,4.60593359375,0.12095131725072861,-0.49785518646240234,-0.4495968222618103
1732873917936921600,4.615921630859375,0.02321287989616394,-0.5296201705932617,-0.5601634383201599
1732873917946922500,4.625922607421875,-0.11850785464048386,-0.6414085030555725,-0.645684540271759
1732873917956910800,4.635910888671875,-0.23640485107898712,-0.7385360598564148,-0.6572909951210022
1732873917966942200,4.645942138671875,-0.3023782968521118,-0.7904596328735352,-0.5351179838180542
1732873917976899600,4.655899658203125,-0.28038713335990906,-0.7434229850769043,-0.24129177629947662
1732873917986931200,4.66593115234375,-0.13072516024112701,-0.4905247986316681,0.42088615894317627
1732873917996919000,4.6759189453125,0.036651913076639175,-0.2168571650981903,0.7757988572120667
1732873918006919200,4.685919189453125,0.28099802136421204,0.05314527451992035,0.9480628371238708
1732873918016908300,4.695908203125,0.5161811113357544,0.294437050819397,0.9938777685165405
1732873918026938400,4.7059384765625,0.6585127115249634,0.46853363513946533,0.9437867999076843
1732873918036897300,4.715897216796875,0.6682865619659424,0.5418374538421631,0.8136724829673767
1732873918046930400,4.725930419921875,0.5558874011039734,0.5308418869972229,0.6224716901779175
1732873918056916700,4.735916748046875,0.21991148591041565,0.4086688458919525,0.1966986060142517
1732873918066947600,4.745947509765625,-0.07024950534105301,0.22113321721553802,-0.13988813757896423
1732873918076905700,4.75590576171875,-0.3292563557624817,0.02321287989616394,-0.44715335965156555
1732873918086937300,4.765937255859375,-0.5051855444908142,-0.10690141469240189,-0.6817256212234497
1732873918096925200,4.77592529296875,-0.5919284224510193,-0.08002334833145142,-0.8002334833145142
1732873918106926300,4.78592626953125,-0.6407976150512695,0.2590068578720093,-0.7293730974197388
1732873918116914200,4.7959140625,-0.616973876953125,0.4001167416572571,-0.5809328556060791
1732873918126944500,4.805944580078125,-0.4398229718208313,0.31093040108680725,-0.44165557622909546
1732873918136903400,4.8159033203125,-0.11789698898792267,0.27122417092323303,-0.11850785464048386
1732873918146934800,4.825934814453125,0,0.3445279896259308,0.14477506279945374
1732873918156923000,4.8359228515625,0.027488935738801956,0.34574973583221436,0.38117989897727966
1732873918166923800,4.845923828125,0.029932396486401558,0.323147714138031,0.5681046843528748
1732873918176912100,4.855912109375,0.021991148591041565,0.28099802136421204,0.6664539575576782
1732873918186942700,4.865942626953125,-0.01710422709584236,0.22968533635139465,0.6786713004112244
1732873918196900900,4.87590087890625,-0.08246681094169617,0.17287486791610718,0.618195652961731
1732873918206931700,4.885931640625,-0.1765400618314743,0.05375614017248154,0.4300491213798523
1732873918216920300,4.89592041015625,-0.19975294172763824,0.010995574295520782,0.26022860407829285
1732873918226920700,4.905920654296875,-0.18387043476104736,0.051312681287527084,0.06841690838336945
1732873918236909300,4.915909423828125,-0.13988813757896423,0.11484266817569733,-0.1062905490398407
1732873918246940400,4.9259404296875,-0.11239920556545258,0.15271630883216858,-0.22968533635139465
1732873918256898600,4.935898681640625,-0.11667526513338089,0.16737708449363708,-0.294437050819397
1732873918266930000,4.945929931640625,-0.13316862285137177,0.15943582355976105,-0.3274237811565399
1732873918276918000,4.95591796875,-0.1508837193250656,0.10995574295520782,-0.32131510972976685
1732873918286919000,4.9659189453125,-0.14782938361167908,0.051312681287527084,-0.2718350291252136
1732873918296906800,4.97590673828125,-0.13255776464939117,-0.018325956538319588,-0.1918116807937622
1732873918306938400,4.9859384765625,-0.1007927656173706,-0.07757988572120667,-0.09346238523721695
1732873918316926500,4.995926513671875,-0.05619960278272629,-0.10934487730264664,0.012217304669320583
1732873918326927400,5.00592724609375,-0.0354301854968071,-0.10812314599752426,0.09957103431224823
1732873918336915500,5.01591552734375,-0.05864306539297104,-0.05009094998240471,0.12828169763088226
1732873918346947000,5.025947021484375,-0.07757988572120667,0.019547687843441963,0.08124507963657379
1732873918356904400,5.035904541015625,-0.04459316283464432,-0.013439035043120384,-0.08429940044879913
1732873918366936000,5.04593603515625,-0.0012217304902151227,-0.08429940044879913,-0.13866640627384186
1732873918376924200,5.055924072265625,-0.024434609338641167,-0.10873401165008545,-0.07147123664617538
1732873918386925000,5.065925048828125,-0.09040805697441101,-0.0910189226269722,-0.014049900695681572
1732873918396913000,5.075912841796875,-0.1722639948129654,-0.16920967400074005,-0.045204028487205505
1732873918406945000,5.085945068359375,-0.2119702398777008,-0.23151792585849762,-0.11423180252313614
1732873918416902100,5.095902099609375,-0.22663100063800812,-0.2968805134296417,-0.17409659922122955
1732873918426933500,5.10593359375,-0.2632829248905182,-0.455705463886261,-0.2278527319431305
1732873918436921900,5.115921875,-0.294437050819397,-0.5766568183898926,-0.2577851414680481
1732873918446922500,5.125922607421875,-0.30604347586631775,-0.6927211880683899,-0.2919935882091522
1732873918456910800,5.135910888671875,-0.3127630054950714,-0.7819074988365173,-0.27977627515792847
1732873918466942200,5.145942138671875,-0.3084869384765625,-0.8161159753799438,-0.18814650177955627
1732873918476899600,5.155899658203125,-0.32986724376678467,-0.8429940342903137,0.001832595793530345
1732873918486931200,5.16593115234375,-0.36102136969566345,-0.846659243106842,0.2528982162475586
1732873918496919000,5.1759189453125,-0.36529740691185,-0.6670648455619812,0.6010913848876953
1732873918506918700,5.185918701171875,-0.294437050819397,-0.4715879559516907,0.7281513810157776
1732873918516908300,5.195908203125,-0.21319197118282318,-0.2993239760398865,0.799011766910553
1732873918526938600,5.205938720703125,-0.1716531366109848,-0.16920967400074005,0.8356636762619019
1732873918536897300,5.215897216796875,-0.1875356286764145,-0.07819075137376785,0.8472700715065002
1732873918546929000,5.225928955078125,-0.24556782841682434,-0.014049900695681572,0.7929030656814575
1732873918556917000,5.2359169921875,-0.2968805134296417,0.00733038317412138,0.6401867866516113
1732873918566946800,5.24594677734375,-0.31520646810531616,0.006719517521560192,0.43188172578811646
1732873918576906000,5.255906005859375,-0.29504790902137756,-0.010995574295520782,0.06475171446800232
1732873918586936000,5.26593603515625,-0.2816088795661926,0.039095375686883926,-0.16004669666290283
1732873918596923600,5.275923583984375,-0.23579397797584534,0.07635815441608429,-0.29077184200286865
1732873918606924300,5.28592431640625,-0.16249015927314758,0.0555887371301651,-0.2767219543457031
1732873918616913700,5.29591357421875,-0.06414084881544113,0.10506882518529892,-0.23273965716362
1732873918626945000,5.305945068359375,0.021380282938480377,0.1716531366109848,-0.18387043476104736
1732873918636902400,5.31590234375,0.04398229718208313,0.2571742534637451,-0.11423180252313614
1732873918646934000,5.32593408203125,0.01466076634824276,0.38606682419776917,0.036041051149368286
1732873918656921900,5.335921875,-0.021991148591041565,0.43737950921058655,0.1313360333442688
1732873918666923000,5.345923095703125,-0.054367005825042725,0.4660901725292206,0.1973094791173935
1732873918676911000,5.3559111328125,-0.059864792972803116,0.48319441080093384,0.21624629199504852
1732873918686942000,5.36594189453125,-0.05375614017248154,0.4538728892803192,0.19364428520202637
1732873918696900900,5.37590087890625,-0.021991148591041565,0.42638394236564636,0.15821409225463867
1732873918706931700,5.385931640625,0.029932396486401558,0.4056145250797272,0.10323622822761536
1732873918716920300,5.39592041015625,0.10506882518529892,0.3488040566444397,-0.00427605677396059
1732873918726921200,5.405921142578125,0.13805554807186127,0.3127630054950714,-0.0708603709936142
1732873918736909300,5.415909423828125,0.16004669666290283,0.2767219543457031,-0.12461651116609573
1732873918746941000,5.42594091796875,0.1722639948129654,0.22113321721553802,-0.17287486791610718
1732873918756898600,5.435898681640625,0.1966986060142517,0.1569923609495163,-0.21441370248794556
1732873918766930000,5.445929931640625,0.23457226157188416,0.10323622822761536,-0.23945917189121246
1732873918776918000,5.45591796875,0.2767219543457031,0.0507018156349659,-0.242513507604599
1732873918786919200,5.465919189453125,0.3090978264808655,-0.0006108652451075613,-0.22052235901355743
1732873918796906800,5.47590673828125,0.3433062732219696,-0.06414084881544113,-0.1368338167667389
1732873918806938600,5.485938720703125,0.3744603991508484,-0.08552113175392151,-0.02871066704392433
1732873918816926500,5.495926513671875,0.4092797040939331,-0.08307767659425735,0.11056660860776901
1732873918826927600,5.505927734375,0.44287729263305664,-0.07757988572120667,0.24678955972194672
1732873918836915500,5.51591552734375,0.47280970215797424,-0.07819075137376785,0.34697145223617554
1732873918846947000,5.525947021484375,0.5009095072746277,-0.07880161702632904,0.3836233615875244
1732873918856904700,5.53590478515625,0.5167919993400574,-0.07635815441608429,0.36651915311813354
1732873918866936300,5.545936279296875,0.5149593949317932,-0.08918632566928864,0.2730567753314972
1732873918876924000,5.555923828125,0.49235737323760986,-0.08368854224681854,0.15027284622192383
1732873918886925300,5.56592529296875,0.47830748558044434,-0.08918632566928864,-0.00366519158706069
1732873918896913000,5.575912841796875,0.44593164324760437,-0.11362093687057495,-0.14782938361167908
1732873918906944800,5.58594482421875,0.4196644127368927,-0.10690141469240189,-0.22540926933288574
1732873918916902000,5.59590185546875,0.4086688458919525,-0.11362093687057495,-0.2223549485206604
1732873918926933500,5.60593359375,0.4086688458919525,-0.1258382350206375,-0.18020524084568024
1732873918936921600,5.615921630859375,0.3585779070854187,-0.1362229436635971,-0.11667526513338089
1732873918946922800,5.6259228515625,0.30482175946235657,-0.10873401165008545,-0.09896016865968704
1732873918956910800,5.635910888671875,0.2669481039047241,-0.06658431142568588,-0.10323622822761536
1732873918966942200,5.645942138671875,0.25595253705978394,0.01771509274840355,-0.1319468915462494
1732873918976899600,5.655899658203125,0.24373523890972137,0.10384709388017654,-0.2015855312347412
1732873918986931500,5.665931396484375,0.18387043476104736,0.1466076523065567,-0.3188716471195221
1732873918996919000,5.6759189453125,0.07269296050071716,0.09468411654233932,-0.46670106053352356
1732873919006920200,5.685920166015625,-0.08368854224681854,-0.056810468435287476,-0.6029239892959595
1732873919016908000,5.695907958984375,-0.2840523421764374,-0.3536909818649292,-0.6841690540313721
1732873919026938400,5.7059384765625,-0.33597588539123535,-0.45814892649650574,-0.5864306092262268
1732873919036897300,5.715897216796875,-0.28955012559890747,-0.40133845806121826,-0.32498031854629517
1732873919046927600,5.725927734375,-0.12889257073402405,-0.25045475363731384,0.03481931984424591
1732873919056916700,5.735916748046875,0.09285151958465576,-0.11301007121801376,0.3952298164367676
1732873919066946800,5.74594677734375,0.30054569244384766,-0.03420845419168472,0.6774495840072632
1732873919076906000,5.755906005859375,0.44287729263305664,0.012828170321881771,0.8497135639190674
1732873919086936000,5.76593603515625,0.5051855444908142,0.05314527451992035,0.9132435321807861
1732873919096925200,5.77592529296875,0.4489859640598297,0.04703662544488907,0.826500654220581
1732873919106927900,5.785927978515625,0.32986724376678467,-0.005497787147760391,0.6395758986473083
1732873919116914200,5.7959140625,0.1765400618314743,-0.07269296050071716,0.35124751925468445
1732873919126946600,5.805946533203125,0.0861319974064827,-0.0659734457731247,-0.021991148591041565
1732873919136903400,5.8159033203125,0.06230825558304787,-0.11728613078594208,-0.32498031854629517
1732873919146934300,5.825934326171875,-0.03176499158143997,-0.14844025671482086,-0.5015203952789307
1732873919156923000,5.8359228515625,-0.20952677726745605,-0.16493362188339233,-0.665232241153717
1732873919166923800,5.845923828125,-0.2669481039047241,-0.17287486791610718,-0.7776314616203308
1732873919176912000,5.855911865234375,-0.2724458873271942,-0.15821409225463867,-0.8735373020172119
1732873919186942000,5.86594189453125,-0.23457226157188416,-0.09651670604944229,-0.9010262489318848
1732873919196900900,5.87590087890625,-0.1765400618314743,-0.01466076634824276,-0.8344419002532959
1732873919206932200,5.88593212890625,-0.10445795953273773,0.06414084881544113,-0.6517932415008545
1732873919216920600,5.895920654296875,-0.03481931984424591,0.15577064454555511,-0.3628539443016052
1732873919226920000,5.905919921875,0.06414084881544113,0.2583959996700287,-0.012828170321881771
1732873919236909300,5.915909423828125,0.23396138846874237,0.36163222789764404,0.45631635189056396
1732873919246939400,5.925939453125,0.34208452701568604,0.3439171314239502,0.6517932415008545
1732873919256898600,5.935898681640625,0.4251621961593628,0.2565633952617645,0.7446447610855103
1732873919266930000,5.945929931640625,0.4550946056842804,0.16798794269561768,0.7489207983016968
1732873919276918000,5.95591796875,0.43615779280662537,0.10995574295520782,0.66584312915802
1732873919286918400,5.96591845703125,0.3927863538265228,0.09773843735456467,0.49785518646240234
1732873919296906800,5.97590673828125,0.3543018400669098,0.11178833991289139,0.2535090744495392
1732873919306938000,5.985938232421875,0.32559117674827576,0.12461651116609573,-0.15577064454555511
1732873919316926500,5.995926513671875,0.31093040108680725,0.13439035415649414,-0.3842342495918274
1732873919326926800,6.0059267578125,0.3127630054950714,0.13866640627384186,-0.5528330206871033
1732873919336915500,6.01591552734375,0.31520646810531616,0.13439035415649414,-0.6591235995292664
1732873919346946800,6.02594677734375,0.30970868468284607,0.11423180252313614,-0.7006624341011047
1732873919356904700,6.03590478515625,0.3072652220726013,0.08491026610136032,-0.6805039048194885
1732873919366936000,6.04593603515625,0.3176499307155609,0.05375614017248154,-0.6029239892959595
1732873919376924000,6.055923828125,0.34025195240974426,-0.015882495790719986,-0.4098905920982361
1732873919386925000,6.065925048828125,0.36163222789764404,-0.0555887371301651,-0.24495697021484375
1732873919396913200,6.0759130859375,0.3982841372489929,-0.08429940044879913,-0.06963863968849182
1732873919406944800,6.08594482421875,0.42760565876960754,-0.09285151958465576,0.08246681094169617
1732873919416902100,6.095902099609375,0.4349360466003418,-0.09346238523721695,0.19120082259178162
1732873919426933800,6.105933837890625,0.4129449129104614,-0.10445795953273773,0.24678955972194672
1732873919436921600,6.115921630859375,0.3604104816913605,-0.12217304855585098,0.2590068578720093
1732873919446922800,6.1259228515625,0.2883284091949463,-0.14233160018920898,0.2376265823841095
1732873919456910800,6.135910888671875,0.1661553531885147,-0.17837265133857727,0.1765400618314743
1732873919466942200,6.145942138671875,0.10506882518529892,-0.18509216606616974,0.13011430203914642
1732873919476899600,6.155899658203125,0.05742133408784866,-0.17959438264369965,0.08307767659425735
1732873919486931200,6.16593115234375,0.018325956538319588,-0.1814269721508026,0.01771509274840355
1732873919496919300,6.175919189453125,-0.012828170321881771,-0.1918116807937622,-0.08857546001672745
1732873919506920400,6.18592041015625,-0.060475658625364304,-0.27611109614372253,-0.18020524084568024
1732873919516908300,6.195908203125,-0.1667662113904953,-0.34025195240974426,-0.2681698501110077
1732873919526938400,6.2059384765625,-0.4147774875164032,-0.4795292317867279,-0.49785518646240234
1732873919536897300,6.215897216796875,-0.6163630485534668,-0.6310238242149353,-0.7031059265136719
1732873919546928400,6.225928466796875,-0.8594874143600464,-0.8313875794410706,-0.8802568316459656
1732873919556917000,6.2359169921875,-1.081842303276062,-0.9834930300712585,-0.9425650835037231
1732873919566948000,6.245947998046875,-1.1716395616531372,-1.0122036933898926,-0.8057312369346619
1732873919576906000,6.255906005859375,-1.0561859607696533,-0.8399397134780884,-0.4434881806373596
1732873919586936300,6.265936279296875,-0.759916365146637,-0.5283984541893005,0.08307767659425735
1732873919596923600,6.275923583984375,-0.18509216606616974,-0.0806342139840126,0.8888089060783386
1732873919606924000,6.285924072265625,0.07819075137376785,0.14905111491680145,1.2834278345108032
1732873919616913400,6.295913330078125,0.16982053220272064,0.26145032048225403,1.4880677461624146
1732873919626944500,6.305944580078125,0.11484266817569733,0.24923302233219147,1.4660766124725342
1732873919636902100,6.315902099609375,-0.05619960278272629,0.12522737681865692,1.2247848510742188
1732873919646932700,6.3259326171875,-0.3029891550540924,-0.010995574295520782,0.7929030656814575
1732873919656922000,6.335922119140625,-0.5326744914054871,-0.02626720629632473,0.22663100063800812
1732873919666922000,6.345921875,-0.6585127115249634,0.02871066704392433,-0.40194934606552124
1732873919676911000,6.3559111328125,-0.5992587804794312,-0.01771509274840355,-1.1557570695877075
1732873919686941200,6.365941162109375,-0.4715879559516907,-0.054367005825042725,-1.3017538785934448
1732873919696900900,6.37590087890625,-0.2926044464111328,-0.10384709388017654,-1.1624765396118164
1732873919706931200,6.38593115234375,-0.0708603709936142,-0.10934487730264664,-0.8112290501594543
1732873919716920300,6.39592041015625,0.14477506279945374,-0.04703662544488907,-0.35613444447517395
1732873919726921200,6.405921142578125,0.29504790902137756,0.03176499158143997,0.0910189226269722
1732873919736909600,6.41590966796875,0.3793473243713379,0.12278391420841217,0.43188172578811646
1732873919746941000,6.42594091796875,0.4092797040939331,0.2541199326515198,0.6713408827781677
1732873919756898600,6.435898681640625,0.38728857040405273,0.3023782968521118,0.6743952035903931
1732873919766930000,6.445929931640625,0.36163222789764404,0.34208452701568604,0.6004805564880371
1732873919776918000,6.45591796875,0.33475416898727417,0.3225368559360504,0.475253164768219
1732873919786918100,6.465918212890625,0.3127630054950714,0.2535090744495392,0.3335324227809906
1732873919796907000,6.475906982421875,0.3017674386501312,0.17348572611808777,0.20525072515010834
1732873919806938600,6.485938720703125,0.2834414839744568,0.09957103431224823,0.10567969083786011
1732873919816926500,6.495926513671875,0.2626720666885376,0.01466076634824276,0.039095375686883926
1732873919826927400,6.50592724609375,0.26022860407829285,-0.006108652334660292,0.03726277872920036
1732873919836915500,6.51591552734375,0.2632829248905182,0.015271631069481373,0.042760565876960754
1732873919846975700,6.525975830078125,0.27000242471694946,0.03481931984424591,0.05925392732024193
1732873919856904700,6.53590478515625,0.27977627515792847,0.03848451003432274,0.09285151958465576
1732873919866936000,6.54593603515625,0.2889392673969269,0.05742133408784866,0.15454891324043274
1732873919876924000,6.555923828125,0.2889392673969269,0.0861319974064827,0.2217440903186798
1732873919886925300,6.56592529296875,0.2767219543457031,0.11362093687057495,0.2816088795661926
1732873919896913000,6.575912841796875,0.21930062770843506,0.12767083942890167,0.3176499307155609
1732873919906944500,6.585944580078125,0.17592918872833252,0.11484266817569733,0.2974913716316223
1732873919916902100,6.595902099609375,0.16432274878025055,0.10506882518529892,0.2583959996700287
1732873919926933500,6.60593359375,0.19792033731937408,0.12889257073402405,0.22907446324825287
1732873919936921600,6.615921630859375,0.2590068578720093,0.17592918872833252,0.22357667982578278
1732873919946922800,6.6259228515625,0.323147714138031,0.2174680233001709,0.23090706765651703
1732873919956910600,6.63591064453125,0.38606682419776917,0.2370157092809677,0.23884831368923187
1732873919966942500,6.6459423828125,0.47219884395599365,0.19120082259178162,0.22113321721553802
1732873919976899600,6.655899658203125,0.523511528968811,0.12339477986097336,0.19608774781227112
1732873919986931200,6.66593115234375,0.5827654600143433,0.03420845419168472,0.1722639948129654
1732873919996919300,6.675919189453125,0.6627888083457947,-0.07391469180583954,0.12522737681865692
1732873920006920400,6.68592041015625,0.7012733221054077,-0.09407325088977814,0.05009094998240471
1732873920016908000,6.695907958984375,0.7287622094154358,-0.10384709388017654,-0.059864792972803116
1732873920026940000,6.70593994140625,0.6994407176971436,-0.11239920556545258,-0.192422553896904
1732873920036897300,6.715897216796875,0.5907067060470581,0.005497787147760391,-0.3604104816913605
1732873920046929000,6.725928955078125,0.5387831330299377,0.16371189057826996,-0.455705463886261
1732873920056916700,6.735916748046875,0.5302310585975647,0.28466320037841797,-0.5613851547241211
1732873920066948000,6.745947998046875,0.5241223573684692,0.2877175211906433,-0.7006624341011047
1732873920076905700,6.75590576171875,0.4434881806373596,0.24617868661880493,-0.8674286603927612
1732873920086937300,6.765937255859375,0.2474004179239273,0.08979719132184982,-1.0409144163131714
1732873920096925200,6.77592529296875,-0.00366519158706069,-0.07452555745840073,-1.178359031677246
1732873920106926300,6.78592626953125,-0.21930062770843506,-0.15882496535778046,-1.215621829032898
1732873920116914200,6.7959140625,-0.39767327904701233,-0.006108652334660292,-0.9162978529930115
1732873920126944500,6.805944580078125,-0.32986724376678467,0.17348572611808777,-0.4691445231437683
1732873920136903200,6.815903076171875,-0.11178833991289139,0.35063666105270386,0.04642575979232788
1732873920146933500,6.82593359375,0.17287486791610718,0.3842342495918274,0.484416127204895
1732873920156923000,6.8359228515625,0.4184426963329315,0.2791654169559479,0.7648032903671265
1732873920166922800,6.8459228515625,0.5015203952789307,0.17837265133857727,0.769690215587616
1732873920176912100,6.855912109375,0.45875978469848633,0.08735372871160507,0.5265658497810364
1732873920186942700,6.865942626953125,0.3194825351238251,-0.14355333149433136,0.01160643994808197
1732873920196900900,6.87590087890625,0.22418753802776337,-0.2974913716316223,-0.2791654169559479
1732873920206932500,6.885932373046875,0.14416420459747314,-0.3793473243713379,-0.3591887652873993
1732873920216920300,6.89592041015625,0.09773843735456467,-0.42577308416366577,-0.27488934993743896
1732873920226921200,6.905921142578125,0.11667526513338089,-0.4251621961593628,-0.09224065393209457
1732873920236909300,6.915909423828125,0.19547687470912933,-0.33169981837272644,0.12095131725072861
1732873920246939400,6.925939453125,0.2926044464111328,-0.18448130786418915,0.3017674386501312
1732873920256898600,6.935898681640625,0.4147774875164032,0.00855211354792118,0.4538728892803192
1732873920266930000,6.945929931640625,0.40194934606552124,0.11545353382825851,0.4605923891067505
1732873920276918000,6.95591796875,0.2938261926174164,0.17592918872833252,0.40622538328170776
1732873920286919000,6.9659189453125,0.1264491081237793,0.2119702398777008,0.33475416898727417
1732873920296906800,6.97590673828125,-0.06658431142568588,0.13866640627384186,0.25961771607398987
1732873920306936800,6.985936767578125,-0.2278527319431305,-0.01466076634824276,0.20891591906547546
1732873920316926500,6.995926513671875,-0.2974913716316223,-0.16065755486488342,0.23029619455337524
1732873920326926300,7.00592626953125,-0.29504790902137756,-0.33292156457901,0.39645153284072876
1732873920336915500,7.01591552734375,-0.21074850857257843,-0.4092797040939331,0.5375614166259766
1732873920346945500,7.025945556640625,-0.12950342893600464,-0.46242499351501465,0.6401867866516113
1732873920356904400,7.035904541015625,-0.06169738993048668,-0.4697553813457489,0.6725626587867737
1732873920366936000,7.04593603515625,-0.03726277872920036,-0.43615779280662537,0.6346889734268188
1732873920376924000,7.055923828125,-0.05803219974040985,-0.3597996234893799,0.5448917746543884
1732873920386925000,7.065925048828125,-0.09712757170200348,-0.2932153046131134,0.48258355259895325
1732873920396913200,7.0759130859375,-0.15454891324043274,-0.2981022298336029,0.46792277693748474
1732873920406944500,7.085944580078125,-0.24007004499435425,-0.3188716471195221,0.49785518646240234
1732873920416902100,7.095902099609375,-0.28588494658470154,-0.303600013256073,0.5497786998748779
1732873920426933000,7.10593310546875,-0.36224308609962463,-0.29993483424186707,0.6285803318023682
1732873920436921900,7.115921875,-0.4453207552433014,-0.3127630054950714,0.684779942035675
1732873920446922000,7.125921875,-0.5277875661849976,-0.34147366881370544,0.6884451508522034
1732873920456910800,7.135910888671875,-0.5809328556060791,-0.36590829491615295,0.6218608021736145
1732873920466941000,7.14594091796875,-0.5894849896430969,-0.3500257730484009,0.4599815309047699
1732873920476899600,7.155899658203125,-0.5387831330299377,-0.22968533635139465,-0.012217304669320583
1732873920486930200,7.16593017578125,-0.5174028873443604,-0.24129177629947662,-0.3799581825733185
1732873920496919300,7.175919189453125,-0.5222898125648499,-0.19303341209888458,-0.6835582256317139
1732873920506919700,7.185919677734375,-0.5516113042831421,-0.05253441259264946,-0.8991936445236206
1732873920516908300,7.195908203125,-0.59803706407547,0.06719517707824707,-0.9731083512306213
1732873920526940000,7.20593994140625,-0.6511823534965515,0.15332718193531036,-0.9291260242462158
1732873920536897300,7.215897216796875,-0.6695083379745483,0.16065755486488342,-0.8014551997184753
1732873920546927900,7.225927978515625,-0.5791002511978149,0.022602014243602753,-0.5002986192703247
1732873920556917000,7.2359169921875,-0.46731191873550415,-0.12095131725072861,-0.3029891550540924
1732873920566947300,7.245947265625,-0.3488040566444397,-0.2834414839744568,-0.14782938361167908
1732873920576906000,7.255906005859375,-0.23273965716362,-0.4288274049758911,-0.06780604273080826
1732873920586936000,7.26593603515625,-0.1160643994808197,-0.4911356568336487,-0.05619960278272629
1732873920596923600,7.275923583984375,-0.009773843921720982,-0.423329621553421,-0.08552113175392151
1732873920606925600,7.285925537109375,0.08735372871160507,-0.23579397797584534,-0.12217304855585098
1732873920616913400,7.295913330078125,0.17898350954055786,0.027488935738801956,-0.1313360333442688
1732873920626945000,7.305945068359375,0.3029891550540924,0.3585779070854187,-0.059864792972803116
1732873920636902100,7.315902099609375,0.3494149148464203,0.44715335965156555,0.03176499158143997
1732873920646933200,7.325933349609375,0.35124751925468445,0.4813618063926697,0.12278391420841217
1732873920656921900,7.335921875,0.32681289315223694,0.4434881806373596,0.18570303916931152
1732873920666922500,7.345922607421875,0.294437050819397,0.3384193480014801,0.21441370248794556
1732873920676911000,7.3559111328125,0.2590068578720093,0.21441370248794556,0.20952677726745605
1732873920686942200,7.365942138671875,0.23090706765651703,0.10567969083786011,0.1722639948129654
1732873920696900900,7.37590087890625,0.18570303916931152,-0.04886921867728233,0.07757988572120667
1732873920706932000,7.385931884765625,0.1569923609495163,-0.08246681094169617,0.005497787147760391
1732873920716920300,7.39592041015625,0.14782938361167908,-0.006108652334660292,-0.0507018156349659
1732873920726920700,7.405920654296875,0.1466076523065567,0.12400564551353455,-0.08796459436416626
1732873920736909300,7.415909423828125,0.17592918872833252,0.28527405858039856,-0.07941248267889023
1732873920746941000,7.42594091796875,0.2321287989616394,0.41661009192466736,-0.02015855349600315
1732873920756898600,7.435898681640625,0.29993483424186707,0.4996877610683441,0.05009094998240471
1732873920766930000,7.445929931640625,0.4056145250797272,0.39767327904701233,0.15515977144241333
1732873920776918300,7.455918212890625,0.41722095012664795,0.22663100063800812,0.24495697021484375
1732873920786918700,7.465918701171875,0.37262779474258423,0.07391469180583954,0.32498031854629517
1732873920796906800,7.47590673828125,0.3170390725135803,0.01710422709584236,0.4080579876899719
1732873920806937900,7.485937744140625,0.2742784917354584,0.07147123664617538,0.47342056035995483
1732873920816926500,7.495926513671875,0.26022860407829285,0.15821409225463867,0.5015203952789307
1732873920826926800,7.5059267578125,0.26511552929878235,0.2370157092809677,0.5002986192703247
1732873920836915500,7.51591552734375,0.251676470041275,0.3384193480014801,0.4893030524253845
1732873920846946600,7.525946533203125,0.23457226157188416,0.485027015209198,0.4129449129104614
1732873920856904400,7.535904541015625,0.2272418737411499,0.5357288122177124,0.3194825351238251
1732873920866935800,7.545935791015625,0.182648703455925,0.5229006409645081,0.2070833146572113
1732873920876924200,7.555924072265625,0.08307767659425735,0.43676865100860596,0.08368854224681854
1732873920886924300,7.56592431640625,-0.0708603709936142,0.2718350291252136,-0.036651913076639175
1732873920896913000,7.575912841796875,-0.23884831368923187,0.08429940044879913,-0.13500121235847473
1732873920906944800,7.58594482421875,-0.37568211555480957,-0.13500121235847473,-0.19303341209888458
1732873920916902000,7.59590185546875,-0.4331034719944,-0.47769662737846375,-0.2168571650981903
1732873920926933500,7.60593359375,-0.423329621553421,-0.646295428276062,-0.18997909128665924
1732873920936921600,7.615921630859375,-0.40256020426750183,-0.7550294399261475,-0.13744467496871948
1732873920946922500,7.625922607421875,-0.3536909818649292,-0.8191702961921692,-0.0910189226269722
1732873920956910800,7.635910888671875,-0.2932153046131134,-0.8301658630371094,-0.0757472887635231
1732873920966942200,7.645942138671875,-0.2528982162475586,-0.7935139536857605,-0.07391469180583954
1732873920976899600,7.655899658203125,-0.23579397797584534,-0.7342600226402283,-0.06169738993048668
1732873920986931200,7.66593115234375,-0.21319197118282318,-0.5900958180427551,0.02076941914856434
1732873920996919000,7.6759189453125,-0.20402899384498596,-0.4703662395477295,0.10934487730264664
1732873921006920400,7.68592041015625,-0.22296582162380219,-0.39217549562454224,0.20036379992961884
1732873921016908000,7.695907958984375,-0.2724458873271942,-0.37568211555480957,0.2590068578720093
1732873921026939600,7.705939697265625,-0.3280346393585205,-0.3799581825733185,0.24862214922904968
1732873921036897300,7.715897216796875,-0.37568211555480957,-0.3274237811565399,0.1716531366109848
1732873921046929000,7.725928955078125,-0.41233405470848083,-0.2070833146572113,0.08185594528913498
1732873921056916700,7.735916748046875,-0.4337143301963806,-0.024434609338641167,0.04214970022439957
1732873921066947000,7.745947021484375,-0.3500257730484009,0.23457226157188416,0.08674286305904388
1732873921076906000,7.755906005859375,-0.21563543379306793,0.37201693654060364,0.19486601650714874
1732873921086936000,7.76593603515625,-0.07391469180583954,0.3787364661693573,0.3219259977340698
1732873921096925200,7.77592529296875,0.02932153269648552,0.21013765037059784,0.4502076804637909
1732873921106926000,7.785926025390625,0.06230825558304787,-0.08918632566928864,0.6010913848876953
1732873921116914200,7.7959140625,0.0024434609804302454,-0.39645153284072876,0.7476990818977356
1732873921126944500,7.805944580078125,-0.10506882518529892,-0.6487388610839844,0.8020660877227783
1732873921136903400,7.8159033203125,-0.24434609711170197,-0.8240572214126587,0.6236934065818787
1732873921146933500,7.82593359375,-0.2730567753314972,-0.7739662528038025,0.33536502718925476
1732873921156923000,7.8359228515625,-0.2687807083129883,-0.588263213634491,-0.03481931984424591
1732873921166922800,7.8459228515625,-0.25534167885780334,-0.29504790902137756,-0.4105014503002167
1732873921176912000,7.855911865234375,-0.24007004499435425,0.03298672288656235,-0.7263187766075134
1732873921186943200,7.865943115234375,-0.23518311977386475,0.3023782968521118,-0.9181304574012756
1732873921196900900,7.87590087890625,-0.2382374405860901,0.4697553813457489,-0.979827880859375
1732873921206932200,7.88593212890625,-0.2926044464111328,0.46242499351501465,-0.8008443117141724
1732873921216920300,7.89592041015625,-0.35063666105270386,0.2919935882091522,-0.5338962078094482
1732873921226921500,7.90592138671875,-0.384845107793808,0.07880161702632904,-0.20586158335208893
1732873921236909300,7.915909423828125,-0.36529740691185,-0.08857546001672745,0.11178833991289139
1732873921246941000,7.92594091796875,-0.32131510972976685,-0.19975294172763824,0.3500257730484009
1732873921256898600,7.935898681640625,-0.2816088795661926,-0.2528982162475586,0.47280970215797424
1732873921266929000,7.945928955078125,-0.251676470041275,-0.25106561183929443,0.48808133602142334
1732873921276917800,7.955917724609375,-0.24923302233219147,-0.2321287989616394,0.41599923372268677
1732873921286918100,7.965918212890625,-0.2785545587539673,-0.1612684279680252,0.22907446324825287
1732873921296907000,7.975906982421875,-0.2981022298336029,-0.1264491081237793,0.09529497474431992
1732873921306938000,7.985938232421875,-0.3182607889175415,-0.10201449692249298,-0.0403171069920063
1732873921316926500,7.995926513671875,-0.3219259977340698,-0.05192354694008827,-0.15943582355976105
1732873921326927000,8.005927001953125,-0.303600013256073,0.015882495790719986,-0.23457226157188416
1732873921336915500,8.01591552734375,-0.28038713335990906,0.05497787147760391,-0.2541199326515198
1732873921346947000,8.025947021484376,-0.27488934993743896,0.05009094998240471,-0.2223549485206604
1732873921356904400,8.035904541015626,-0.23273965716362,0.045204028487205505,-0.08735372871160507
1732873921366936000,8.04593603515625,-0.19058994948863983,0.02932153269648552,0.01771509274840355
1732873921376924000,8.055923828125,-0.1569923609495163,-0.003054326167330146,0.09285151958465576
1732873921386925300,8.06592529296875,-0.13316862285137177,-0.018325956538319588,0.12767083942890167
1732873921396913200,8.0759130859375,-0.11545353382825851,0.001832595793530345,0.13255776464939117
1732873921406944500,8.085944580078126,-0.08918632566928864,0.039706241339445114,0.12950342893600464
1732873921416902100,8.095902099609376,-0.05925392732024193,0.07024950534105301,0.1313360333442688
1732873921426933800,8.105933837890625,-0.02321287989616394,0.12095131725072861,0.19853121042251587
1732873921436921600,8.115921630859376,-0.006719517521560192,0.14355333149433136,0.28466320037841797
1732873921446922500,8.125922607421876,-0.015271631069481373,0.13805554807186127,0.3793473243713379
1732873921456910600,8.13591064453125,-0.06108652427792549,0.1319468915462494,0.4508185386657715
1732873921466942200,8.145942138671876,-0.1111774742603302,0.12034045159816742,0.48685958981513977
1732873921476899800,8.15589990234375,-0.14049901068210602,0.10751228034496307,0.4715879559516907
1732873921486931200,8.16593115234375,-0.13316862285137177,0.11362093687057495,0.4092797040939331
1732873921496919300,8.175919189453126,-0.10995574295520782,0.11178833991289139,0.313373863697052
1732873921506920200,8.185920166015626,-0.08246681094169617,-0.006108652334660292,0.11178833991289139
1732873921516908300,8.195908203125,-0.05497787147760391,-0.12889257073402405,-0.030543262138962746
1732873921526940000,8.20593994140625,-0.0024434609804302454,-0.23457226157188416,-0.16432274878025055
1732873921536897300,8.215897216796876,0.05375614017248154,-0.303600013256073,-0.27000242471694946
1732873921546929000,8.225928955078125,0.11789698898792267,-0.34697145223617554,-0.33475416898727417
1732873921556917000,8.2359169921875,0.2021963894367218,-0.34636059403419495,-0.3530801236629486
1732873921566948400,8.2459482421875,0.30604347586631775,-0.2773328125476837,-0.30970868468284607
1732873921576906000,8.255906005859375,0.39645153284072876,-0.16798794269561768,-0.1875356286764145
1732873921586937600,8.2659375,0.34697145223617554,-0.18081611394882202,-0.11484266817569733
1732873921596923600,8.275923583984374,0.21807889640331268,-0.2785545587539673,-0.06963863968849182
1732873921606925300,8.28592529296875,0.07513642311096191,-0.4098905920982361,-0.05864306539297104
1732873921616913400,8.295913330078125,-0.0354301854968071,-0.4966334402561188,-0.06291911751031876
1732873921626945000,8.305945068359375,-0.08185594528913498,-0.49785518646240234,-0.04214970022439957
1732873921636902400,8.31590234375,-0.060475658625364304,-0.42271876335144043,0.04764748737215996
1732873921646934000,8.32593408203125,0.06658431142568588,-0.25106561183929443,0.36713001132011414
1732873921656921900,8.335921875,0.16371189057826996,-0.1459967941045761,0.646906316280365
1732873921666922800,8.3459228515625,0.2541199326515198,-0.08185594528913498,0.8955284357070923
1732873921676910800,8.355910888671875,0.32559117674827576,0.04092797264456749,1.0653489828109741
1732873921686942500,8.3659423828125,0.3549126982688904,0.07880161702632904,1.1435397863388062
1732873921696900600,8.375900634765625,0.32559117674827576,-0.006719517521560192,1.10139000415802
1732873921706931700,8.385931640625,0.21563543379306793,-0.16310101747512817,0.949895441532135
1732873921716920300,8.39592041015625,0.039095375686883926,-0.3274237811565399,0.7159340381622314
1732873921726920700,8.405920654296875,-0.20891591906547546,-0.4056145250797272,0.2632829248905182
1732873921736909300,8.415909423828126,-0.2938261926174164,-0.36529740691185,-0.04948008432984352
1732873921746939400,8.425939453125,-0.29626965522766113,-0.24862214922904968,-0.29993483424186707
1732873921756898600,8.435898681640625,-0.25534167885780334,-0.07513642311096191,-0.4453207552433014
1732873921766930000,8.445929931640626,-0.2076941877603531,0.029932396486401558,-0.4911356568336487
1732873921776918000,8.45591796875,-0.16493362188339233,0.05742133408784866,-0.4550946056842804
1732873921786919000,8.4659189453125,-0.12278391420841217,0.05497787147760391,-0.36651915311813354
1732873921796906800,8.47590673828125,-0.0507018156349659,0.015271631069481373,-0.2541199326515198
1732873921806938400,8.4859384765625,-0.005497787147760391,-0.014049900695681572,-0.21868975460529327
1732873921816926500,8.495926513671876,0.033597588539123535,-0.042760565876960754,-0.21930062770843506
1732873921826927400,8.50592724609375,0.06230825558304787,-0.06963863968849182,-0.24434609711170197
1732873921836915500,8.51591552734375,0.08857546001672745,-0.08368854224681854,-0.2736676335334778
1732873921846974500,8.525974365234376,0.1062905490398407,-0.07330382615327835,-0.30054569244384766
1732873921856904400,8.535904541015626,0.11423180252313614,-0.04703662544488907,-0.323147714138031
1732873921866935300,8.545935302734375,0.10445795953273773,-0.04581489413976669,-0.3530801236629486
1732873921876924000,8.555923828125,0.07757988572120667,-0.06475171446800232,-0.34697145223617554
1732873921886924300,8.56592431640625,0.03848451003432274,-0.10812314599752426,-0.3170390725135803
1732873921896913000,8.575912841796875,-0.00855211354792118,-0.17531833052635193,-0.26939156651496887
1732873921906944000,8.585944091796875,-0.04398229718208313,-0.23151792585849762,-0.21135938167572021
1732873921916902100,8.595902099609376,-0.06414084881544113,-0.25045475363731384,-0.15393804013729095
1732873921926933000,8.60593310546875,-0.06414084881544113,-0.24190263450145721,-0.1215621829032898
1732873921936921600,8.615921630859376,-0.056810468435287476,-0.21135938167572021,-0.12034045159816742
1732873921946922500,8.625922607421876,-0.03237585723400116,-0.12767083942890167,-0.1508837193250656
1732873921956910600,8.63591064453125,-0.006719517521560192,-0.04948008432984352,-0.15027284622192383
1732873921966942000,8.64594189453125,0.031154127791523933,0.0354301854968071,-0.11301007121801376
1732873921976899600,8.655899658203126,0.07269296050071716,0.12461651116609573,-0.03726277872920036
1732873921986931200,8.66593115234375,0.10812314599752426,0.19853121042251587,0.05742133408784866
1732873921996919300,8.675919189453126,0.1368338167667389,0.242513507604599,0.1508837193250656
1732873922006919400,8.68591943359375,0.14049901068210602,0.24617868661880493,0.21135938167572021
1732873922016908000,8.695907958984375,0.08002334833145142,0.2028072625398636,0.20097467303276062
1732873922026939600,8.705939697265626,-0.007941247895359993,0.10873401165008545,0.1215621829032898
1732873922036897300,8.715897216796876,-0.10445795953273773,-0.018325956538319588,0.010995574295520782
1732873922046929000,8.725928955078125,-0.15271630883216858,-0.0959058403968811,-0.09651670604944229
1732873922056916700,8.735916748046876,-0.15393804013729095,-0.10751228034496307,-0.1765400618314743
1732873922066948400,8.7459482421875,-0.11728613078594208,-0.056810468435287476,-0.22357667982578278
1732873922076905700,8.75590576171875,-0.054367005825042725,0.02626720629632473,-0.23335053026676178
1732873922086937300,8.765937255859376,0.021380282938480377,0.18631389737129211,-0.19303341209888458
1732873922096925200,8.77592529296875,0.024434609338641167,0.22540926933288574,-0.15821409225463867
1732873922106926300,8.78592626953125,-0.021991148591041565,0.19853121042251587,-0.14538592100143433
1732873922116914200,8.7959140625,-0.09773843735456467,0.12522737681865692,-0.1466076523065567
1732873922126945500,8.805945556640625,-0.17531833052635193,0.02015855349600315,-0.14966198801994324
1732873922136903400,8.8159033203125,-0.24068090319633484,-0.09712757170200348,-0.15271630883216858
1732873922146934800,8.825934814453126,-0.3084869384765625,-0.23884831368923187,-0.17348572611808777
1732873922156923000,8.8359228515625,-0.3793473243713379,-0.39156460762023926,-0.2321287989616394
1732873922166923800,8.845923828125,-0.4593706727027893,-0.4612032473087311,-0.34147366881370544
1732873922176912000,8.855911865234376,-0.4288274049758911,-0.33108896017074585,-0.3182607889175415
1732873922186943500,8.865943603515625,-0.29565876722335815,-0.04398229718208313,-0.12889257073402405
1732873922196900900,8.87590087890625,-0.14782938361167908,0.3952298164367676,0.20402899384498596
1732873922206932500,8.885932373046876,-0.001832595793530345,0.7171558141708374,0.5949827432632446
1732873922216920300,8.89592041015625,0.08979719132184982,0.7635815739631653,0.9615018963813782
1732873922226921200,8.905921142578125,0.08552113175392151,0.5326744914054871,1.2376129627227783
1732873922236909300,8.915909423828126,-0.1716531366109848,0.06536258012056351,1.4062118530273438
1732873922246939400,8.925939453125,-0.4056145250797272,-0.2382374405860901,1.3115277290344238
1732873922256898600,8.935898681640625,-0.5510004758834839,-0.5528330206871033,1.0659598112106323
1732873922266928600,8.9459287109375,-0.6194173693656921,-0.7550294399261475,0.7098253965377808
1732873922276917800,8.955917724609375,-0.6200281977653503,-0.7837401032447815,0.2773328125476837
1732873922286918400,8.96591845703125,-0.5711590051651001,-0.6194173693656921,-0.1875356286764145
1732873922296907000,8.975906982421876,-0.4709770977497101,-0.3090978264808655,-0.6145304441452026
1732873922306938400,8.9859384765625,-0.1869247704744339,0.16310101747512817,-1.0103710889816284
1732873922316926500,8.995926513671876,-0.018936822190880775,0.3897320330142975,-1.0415252447128296
1732873922326927400,9.00592724609375,0.07208210229873657,0.5070181488990784,-0.9162978529930115
1732873922336915500,9.01591552734375,0.07696902006864548,0.5259549617767334,-0.6902777552604675
1732873922346947000,9.025947021484376,0.015882495790719986,0.46303585171699524,-0.4251621961593628
1732873922356904400,9.035904541015626,-0.05742133408784866,0.31154128909111023,-0.17104226350784302
1732873922366936000,9.04593603515625,-0.11789698898792267,0.12400564551353455,0.05192354694008827
1732873922376924000,9.055923828125,-0.16798794269561768,-0.018325956538319588,0.2168571650981903
1732873922386924300,9.06592431640625,-0.1973094791173935,-0.0959058403968811,0.2987131178379059
1732873922396913200,9.0759130859375,-0.17592918872833252,-0.09162978827953339,0.24373523890972137
1732873922406944000,9.085944091796875,-0.1368338167667389,-0.07880161702632904,0.12400564551353455
1732873922416902100,9.095902099609376,-0.1014036312699318,-0.06352998316287994,-0.014049900695681572
1732873922426933200,9.105933349609375,-0.07941248267889023,-0.04764748737215996,-0.1514945775270462
1732873922436921600,9.115921630859376,-0.07269296050071716,-0.039706241339445114,-0.2687807083129883
1732873922446922500,9.125922607421876,-0.08368854224681854,-0.039095375686883926,-0.35674530267715454
1732873922456910600,9.13591064453125,-0.10873401165008545,-0.09896016865968704,-0.3854559659957886
1732873922466942200,9.145942138671876,-0.12400564551353455,-0.15393804013729095,-0.34025195240974426
1732873922476899800,9.15589990234375,-0.11362093687057495,-0.20036379992961884,-0.2669481039047241
1732873922486931200,9.16593115234375,-0.08491026610136032,-0.21807889640331268,-0.17959438264369965
1732873922496919300,9.175919189453126,-0.0555887371301651,-0.22113321721553802,-0.08552113175392151
1732873922506920200,9.185920166015626,-0.028099801391363144,-0.18631389737129211,-0.0012217304902151227
1732873922516908300,9.195908203125,0.004886921960860491,-0.13072516024112701,0.07757988572120667
1732873922526939600,9.205939697265626,0.04398229718208313,0.009162978269159794,0.19364428520202637
1732873922536897300,9.215897216796876,0.0555887371301651,0.09468411654233932,0.27122417092323303
1732873922546929000,9.225928955078125,0.05253441259264946,0.13500121235847473,0.3384193480014801
1732873922556917000,9.2359169921875,0.029932396486401558,0.12522737681865692,0.3738495409488678
1732873922566947800,9.24594775390625,-0.015271631069481373,0.07635815441608429,0.36224308609962463
1732873922576906000,9.255906005859375,-0.08735372871160507,-0.0354301854968071,0.28955012559890747
1732873922586936600,9.2659365234375,-0.16493362188339233,-0.19608774781227112,0.16249015927314758
1732873922596923600,9.275923583984374,-0.26572638750076294,-0.3121521472930908,-0.007941247895359993
1732873922606925300,9.28592529296875,-0.4092797040939331,-0.4129449129104614,-0.29016098380088806
1732873922616913400,9.295913330078125,-0.43127086758613586,-0.4141666293144226,-0.4306600093841553
1732873922626945000,9.305945068359375,-0.35124751925468445,-0.3640756905078888,-0.5064072608947754
1732873922636902400,9.31590234375,-0.1667662113904953,-0.24862214922904968,-0.5259549617767334
1732873922646933800,9.325933837890625,0.08429940044879913,-0.05742133408784866,-0.49296826124191284
1732873922656921900,9.335921875,0.342695415019989,0.1459967941045761,-0.4050036668777466
1732873922666923000,9.345923095703125,0.5412266254425049,0.29504790902137756,-0.2822197377681732
1732873922676911000,9.3559111328125,0.6334672570228577,0.3689626157283783,-0.11239920556545258
1732873922686943000,9.36594287109375,0.5510004758834839,0.27611109614372253,-0.0659734457731247
1732873922696900900,9.37590087890625,0.36529740691185,0.05864306539297104,-0.09224065393209457
1732873922706932200,9.38593212890625,0.10934487730264664,-0.2272418737411499,-0.18814650177955627
1732873922716920300,9.39592041015625,-0.11972958594560623,-0.4355469346046448,-0.28588494658470154
1732873922726921000,9.4059208984375,-0.20586158335208893,-0.4893030524253845,-0.2571742534637451
1732873922736909300,9.415909423828126,-0.11728613078594208,-0.36651915311813354,-0.01038470957428217
1732873922746939600,9.425939697265624,0.3066543638706207,-0.01771509274840355,0.7580837607383728
1732873922756898600,9.435898681640625,0.59803706407547,0.17531833052635193,1.3390166759490967
1732873922766930000,9.445929931640626,0.7464773058891296,0.2382374405860901,1.778228759765625
1732873922776918300,9.455918212890625,0.6994407176971436,0.1716531366109848,1.9810359477996826
1732873922786917600,9.465917724609374,0.5149593949317932,0.018325956538319588,1.9272798299789429
1732873922796906800,9.47590673828125,0.24495697021484375,-0.17837265133857727,1.6114624738693237
1732873922806937900,9.485937744140625,-0.029932396486401558,-0.37690386176109314,1.0690141916275024
1732873922816578800,9.495578857421876,-0.2168571650981903,-0.46364670991897583,0.3604104816913605
1732873922826926300,9.50592626953125,-0.2638937830924988,-0.3903428912162781,-0.7629706859588623
1732873922836915500,9.51591552734375,-0.2076941877603531,-0.1966986060142517,-1.3029755353927612
1732873922846945500,9.525945556640625,-0.10506882518529892,0.012217304669320583,-1.5809192657470703
1732873922856904400,9.535904541015626,0.05375614017248154,0.07819075137376785,-1.5894713401794434
1732873922866936000,9.54593603515625,0.2125810980796814,0.05864306539297104,-1.3561208248138428
1732873922876924000,9.555923828125,0.3188716471195221,0.048258353024721146,-0.9731083512306213
1732873922886925000,9.565925048828126,0.3695734739303589,0.06352998316287994,-0.5601634383201599
1732873922896913200,9.5759130859375,0.38240164518356323,0.0757472887635231,-0.056810468435287476
1732873922906945000,9.585945068359376,0.3640756905078888,0.07208210229873657,0.13561208546161652
1732873922916902100,9.595902099609376,0.323147714138031,0.06902777403593063,0.2070833146572113
1732873922926933800,9.605933837890625,0.25473082065582275,0.07208210229873657,0.18570303916931152
1732873922936921600,9.615921630859376,0.18448130786418915,0.05864306539297104,0.11056660860776901
1732873922946922000,9.625921875,0.1270599663257599,0.014049900695681572,0.025656340643763542
1732873922956910600,9.63591064453125,0.08674286305904388,-0.03298672288656235,-0.03726277872920036
1732873922966941400,9.64594140625,0.059864792972803116,-0.08246681094169617,-0.060475658625364304
1732873922976899800,9.65589990234375,0.04581489413976669,-0.1007927656173706,-0.056810468435287476
1732873922986930400,9.665930419921875,0.0354301854968071,-0.11728613078594208,-0.06536258012056351
1732873922996919300,9.675919189453126,0.04153883829712868,-0.12034045159816742,-0.10018189996480942
1732873923006919400,9.68591943359375,0.06536258012056351,-0.09529497474431992,-0.15332718193531036
1732873923016908300,9.695908203125,0.09773843735456467,-0.06291911751031876,-0.19547687470912933
1732873923026939600,9.705939697265626,0.12034045159816742,-0.03298672288656235,-0.22418753802776337
1732873923036897300,9.715897216796876,0.12828169763088226,-0.004886921960860491,-0.23640485107898712
1732873923046928600,9.7259287109375,0.12339477986097336,0.012828170321881771,-0.21868975460529327
1732873923056916700,9.735916748046876,0.10751228034496307,0.014049900695681572,-0.18448130786418915
1732873923066948000,9.745947998046875,0.08552113175392151,0.001832595793530345,-0.13927727937698364
1732873923076906000,9.755906005859375,0.06414084881544113,-0.02076941914856434,-0.08918632566928864
1732873923086937300,9.765937255859376,0.03726277872920036,-0.05619960278272629,-0.03237585723400116
1732873923096925200,9.77592529296875,0.01038470957428217,-0.1014036312699318,0.018325956538319588
1732873923106926300,9.78592626953125,0.003054326167330146,-0.12889257073402405,0.0507018156349659
1732873923116914200,9.7959140625,0.036041051149368286,-0.13316862285137177,0.05925392732024193
1732873923126945800,9.80594580078125,0.0659734457731247,-0.11911872029304504,0.04337143152952194
1732873923136903400,9.8159033203125,0.08246681094169617,-0.08185594528913498,0.027488935738801956
1732873923146935000,9.82593505859375,0.08674286305904388,-0.029932396486401558,0.02626720629632473
1732873923156923000,9.8359228515625,0.05864306539297104,0.00427605677396059,0.028099801391363144
1732873923166924000,9.845924072265625,0.006108652334660292,0.0024434609804302454,0.014049900695681572
1732873923176912000,9.855911865234376,-0.05864306539297104,-0.006719517521560192,-0.02076941914856434
1732873923186943500,9.865943603515625,-0.16004669666290283,-0.04642575979232788,-0.029932396486401558
1732873923196900900,9.87590087890625,-0.18631389737129211,-0.07208210229873657,0.06352998316287994
1732873923206932700,9.8859326171875,-0.16554448008537292,-0.1062905490398407,0.25045475363731384
1732873923216920300,9.89592041015625,-0.12889257073402405,-0.18814650177955627,0.4740314185619354
1732873923226921200,9.905921142578125,-0.11972958594560623,-0.3078760802745819,0.6646214127540588
1732873923236909300,9.915909423828126,-0.14905111491680145,-0.42088615894317627,0.7739662528038025
1732873923246941000,9.92594091796875,-0.1820378452539444,-0.45265114307403564,0.8093964457511902
1732873923256898600,9.935898681640625,-0.1814269721508026,-0.40256020426750183,0.8240572214126587
1732873923266930000,9.945929931640626,-0.17470745742321014,-0.304210901260376,0.8991936445236206
1732873923276917800,9.955917724609375,-0.20525072515010834,-0.27122417092323303,0.9841039180755615
1732873923286919000,9.9659189453125,-0.25106561183929443,-0.2889392673969269,1.0531316995620728
1732873923296906800,9.97590673828125,-0.28649580478668213,-0.3384193480014801,1.053742527961731
1732873923306938400,9.9859384765625,-0.294437050819397,-0.38606682419776917,0.9541715383529663
1732873923316926500,9.995926513671876,-0.2681698501110077,-0.4001167416572571,0.7513642311096191
1732873923326926000,10.005926025390625,-0.20525072515010834,-0.3689626157283783,0.46853363513946533
1732873923336915500,10.01591552734375,-0.09773843735456467,-0.2021963894367218,-0.021380282938480377
1732873923346947000,10.025947021484376,-0.03237585723400116,-0.036651913076639175,-0.3194825351238251
1732873923356904400,10.035904541015626,0.03420845419168472,0.10690141469240189,-0.5363397002220154
1732873923366935800,10.045935791015625,0.08307767659425735,0.2321287989616394,-0.6524040699005127
1732873923376924000,10.055923828125,0.09896016865968704,0.3072652220726013,-0.656680166721344
1732873923386925000,10.065925048828126,0.08429940044879913,0.36224308609962463,-0.578489363193512
1732873923396913200,10.0759130859375,0.051312681287527084,0.40133845806121826,-0.46242499351501465
1732873923406944800,10.08594482421875,-0.031154127791523933,0.40194934606552124,-0.28588494658470154
1732873923416902100,10.095902099609376,-0.1007927656173706,0.37140607833862305,-0.19058994948863983
1732873923426933800,10.105933837890625,-0.1667662113904953,0.33658674359321594,-0.11789698898792267
1732873923436921600,10.115921630859376,-0.2125810980796814,0.29565876722335815,-0.07635815441608429
1732873923446922200,10.125922119140625,-0.22907446324825287,0.2565633952617645,-0.06841690838336945
1732873923456910600,10.13591064453125,-0.21074850857257843,0.24007004499435425,-0.08368854224681854
1732873923466941400,10.14594140625,-0.17531833052635193,0.23518311977386475,-0.11911872029304504
1732873923476899800,10.15589990234375,-0.13988813757896423,0.22602014243602753,-0.17287486791610718
1732873923486931000,10.165930908203125,-0.11545353382825851,0.20952677726745605,-0.2632829248905182
1732873923496919300,10.175919189453126,-0.11728613078594208,0.1918116807937622,-0.3176499307155609
1732873923506919700,10.185919677734375,-0.1368338167667389,0.1569923609495163,-0.35063666105270386
1732873923516908300,10.195908203125,-0.17348572611808777,0.11484266817569733,-0.36163222789764404
1732873923526940000,10.20593994140625,-0.20830504596233368,0.07208210229873657,-0.34697145223617554
1732873923536897300,10.215897216796876,-0.22540926933288574,0.03848451003432274,-0.31581732630729675
1732873923546929200,10.22592919921875,-0.22602014243602753,0.009162978269159794,-0.27550023794174194
1732873923556917000,10.2359169921875,-0.19547687470912933,-0.019547687843441963,-0.2076941877603531
1732873923566948400,10.2459482421875,-0.15027284622192383,-0.018936822190880775,-0.14294247329235077
1732873923576906000,10.255906005859375,-0.08429940044879913,-0.007941247895359993,-0.06108652427792549
1732873923586937600,10.2659375,-0.0006108652451075613,0.01771509274840355,0.04214970022439957
1732873923596923400,10.27592333984375,0.07330382615327835,0.0507018156349659,0.16249015927314758
1732873923606925300,10.28592529296875,0.12034045159816742,0.06780604273080826,0.2687807083129883
1732873923616913400,10.295913330078125,0.12889257073402405,0.05864306539297104,0.33536502718925476
1732873923626944000,10.305944091796874,0.05619960278272629,0.0012217304902151227,0.3390302062034607
1732873923636902400,10.31590234375,-0.02015855349600315,-0.06352998316287994,0.2889392673969269
1732873923646933800,10.325933837890625,-0.10934487730264664,-0.12828169763088226,0.21502456068992615
1732873923656921900,10.335921875,-0.2076941877603531,-0.19058994948863983,0.1319468915462494
1732873923666923300,10.34592333984375,-0.30482175946235657,-0.25045475363731384,0.03787364438176155
1732873923676911000,10.3559111328125,-0.375071257352829,-0.29504790902137756,-0.054367005825042725
1732873923686942700,10.365942626953125,-0.3805690407752991,-0.2993239760398865,-0.11972958594560623
1732873923696900600,10.375900634765625,-0.30543261766433716,-0.2535090744495392,-0.1472185254096985
1732873923706932500,10.385932373046876,-0.05619960278272629,-0.11728613078594208,-0.10873401165008545
1732873923716920300,10.39592041015625,0.15760323405265808,-0.056810468435287476,-0.054367005825042725
1732873923726921500,10.40592138671875,0.34025195240974426,0.01038470957428217,0.009162978269159794
1732873923736909300,10.415909423828126,0.44776421785354614,0.09407325088977814,0.05497787147760391
1732873923746941000,10.42594091796875,0.48197266459465027,0.14905111491680145,0.0708603709936142
1732873923756898300,10.435898193359375,0.4495968222618103,0.17409659922122955,0.06414084881544113
1732873923766930000,10.445929931640626,0.35735616087913513,0.15515977144241333,0.04214970022439957
1732873923776918000,10.45591796875,0.1722639948129654,0.0354301854968071,-0.005497787147760391
1732873923786919200,10.465919189453125,0.07635815441608429,-0.06475171446800232,-0.004886921960860491
1732873923796907000,10.475906982421876,0.05192354694008827,-0.11301007121801376,0.07452555745840073
1732873923806937300,10.485937255859374,0.1160643994808197,-0.09468411654233932,0.26022860407829285
1732873923816926500,10.495926513671876,0.22357667982578278,-0.06475171446800232,0.5455026626586914
1732873923826927400,10.50592724609375,0.32498031854629517,-0.04764748737215996,0.8717046976089478
1732873923836915500,10.51591552734375,0.3634648323059082,-0.08002334833145142,1.1551461219787598
1732873923846975500,10.5259755859375,0.3182607889175415,-0.1667662113904953,1.3396275043487549
1732873923856904400,10.535904541015626,0.23884831368923187,-0.20952677726745605,1.2443325519561768
1732873923866935300,10.545935302734375,0.12767083942890167,-0.23396138846874237,0.9676105380058289
1732873923876924000,10.555923828125,0.00427605677396059,-0.23518311977386475,0.5375614166259766
1732873923886925000,10.565925048828126,-0.09957103431224823,-0.18814650177955627,0.029932396486401558
1732873923896913200,10.5759130859375,-0.16554448008537292,-0.11972958594560623,-0.45631635189056396
1732873923906944800,10.58594482421875,-0.19364428520202637,-0.06352998316287994,-0.8100073337554932
1732873923916902100,10.595902099609376,-0.19120082259178162,-0.056810468435287476,-0.9737191796302795
1732873923926933500,10.60593359375,-0.1319468915462494,-0.12828169763088226,-0.9132435321807861
1732873923936921600,10.615921630859376,-0.06291911751031876,-0.20036379992961884,-0.7476990818977356
1732873923946922500,10.625922607421876,0.02932153269648552,-0.2431243658065796,-0.5571091175079346
1732873923956910600,10.63591064453125,0.1313360333442688,-0.24984388053417206,-0.39217549562454224
1732873923966942200,10.645942138671876,0.22357667982578278,-0.2223549485206604,-0.2773328125476837
1732873923976899800,10.65589990234375,0.2877175211906433,-0.16982053220272064,-0.2076941877603531
1732873923986931500,10.665931396484375,0.3237585723400116,-0.11484266817569733,-0.17531833052635193
1732873923996919000,10.6759189453125,0.3323107063770294,-0.04337143152952194,-0.16798794269561768
1732873924006919700,10.685919677734375,0.3127630054950714,-0.021991148591041565,-0.1820378452539444
1732873924016908300,10.695908203125,0.27611109614372253,-0.013439035043120384,-0.19425514340400696
1732873924026939400,10.705939453125,0.22113321721553802,-0.01160643994808197,-0.1966986060142517
1732873924036897300,10.715897216796876,0.1508837193250656,-0.03787364438176155,-0.18814650177955627
1732873924046928100,10.72592822265625,0.07696902006864548,-0.07941248267889023,-0.1667662113904953
1732873924056916700,10.735916748046876,0.003054326167330146,-0.12095131725072861,-0.14416420459747314
1732873924066947800,10.74594775390625,-0.07269296050071716,-0.16798794269561768,-0.1313360333442688
1732873924076905700,10.75590576171875,-0.10567969083786011,-0.17837265133857727,-0.1514945775270462
1732873924086936600,10.7659365234375,-0.1362229436635971,-0.1667662113904953,-0.19975294172763824
1732873924096925200,10.77592529296875,-0.15943582355976105,-0.14355333149433136,-0.2528982162475586
1732873924106926000,10.785926025390625,-0.1722639948129654,-0.11484266817569733,-0.28649580478668213
1732873924116914200,10.7959140625,-0.17348572611808777,-0.0757472887635231,-0.2779437005519867
1732873924126945800,10.80594580078125,-0.16554448008537292,-0.02687807008624077,-0.22113321721553802
1732873924136903400,10.8159033203125,-0.15393804013729095,0.029932396486401558,-0.12217304855585098
1732873924146934800,10.825934814453126,-0.1270599663257599,0.09651670604944229,0.09529497474431992
1732873924156923000,10.8359228515625,-0.10384709388017654,0.11178833991289139,0.252287358045578
1732873924166923800,10.845923828125,-0.09224065393209457,0.08307767659425735,0.3854559659957886
1732873924176912000,10.855911865234376,-0.09529497474431992,0.028099801391363144,0.46792277693748474
1732873924186943500,10.865943603515625,-0.09468411654233932,-0.025045474991202354,0.48869219422340393
1732873924196900900,10.87590087890625,-0.08307767659425735,-0.0507018156349659,0.44654250144958496
1732873924206931700,10.885931640625,-0.04948008432984352,-0.02871066704392433,0.36590829491615295
1732873924216920300,10.89592041015625,0.025045474991202354,0.09346238523721695,0.251676470041275
1732873924226921500,10.90592138671875,0.06963863968849182,0.16493362188339233,0.1918116807937622
1732873924236909300,10.915909423828126,0.08491026610136032,0.20586158335208893,0.1270599663257599
1732873924246941000,10.92594091796875,0.05192354694008827,0.21991148591041565,0.05375614017248154
1732873924256898300,10.935898193359375,-0.029932396486401558,0.21013765037059784,-0.016493361443281174
1732873924266930000,10.945929931640626,-0.14966198801994324,0.17287486791610718,-0.056810468435287476
1732873924276918000,10.95591796875,-0.2822197377681732,0.10201449692249298,-0.05619960278272629
1732873924286919200,10.965919189453125,-0.42760565876960754,-0.08002334833145142,-0.018325956538319588
1732873924296907300,10.9759072265625,-0.484416127204895,-0.23151792585849762,-0.03726277872920036
1732873924306939000,10.98593896484375,-0.5088507533073425,-0.3280346393585205,-0.1215621829032898
1732873924316926500,10.995926513671876,-0.46242499351501465,-0.29993483424186707,-0.21502456068992615
1732873924326927600,11.005927734375,-0.32009339332580566,-0.14355333149433136,-0.21930062770843506
1732873924336915500,11.01591552734375,-0.12461651116609573,0.09651670604944229,-0.07147123664617538
1732873924346947000,11.025947021484376,0.03298672288656235,0.32070425152778625,0.21319197118282318
1732873924356904400,11.035904541015626,0.0757472887635231,0.41172316670417786,0.5791002511978149
1732873924366936000,11.04593603515625,-0.056810468435287476,0.27061331272125244,1.0739010572433472
1732873924376924000,11.055923828125,-0.2028072625398636,0.0403171069920063,1.2308934926986694
1732873924386924000,11.065924072265625,-0.37629300355911255,-0.21135938167572021,1.1789699792861938
1732873924396913200,11.0759130859375,-0.5412266254425049,-0.4251621961593628,0.912021815776825
1732873924406945500,11.085945556640626,-0.6579018831253052,-0.5589417219161987,0.46547931432724
1732873924416902100,11.095902099609376,-0.6969972252845764,-0.5619960427284241,-0.07635815441608429
1732873924426933800,11.105933837890625,-0.6505714654922485,-0.4080579876899719,-0.6004805564880371
1732873924436921600,11.115921630859376,-0.45753806829452515,-0.029932396486401558,-1.111163854598999
1732873924446922500,11.125922607421876,-0.30115658044815063,0.18448130786418915,-1.169806957244873
1732873924456910800,11.135910888671875,-0.18387043476104736,0.3182607889175415,-1.0152580738067627
1732873924466942200,11.145942138671876,-0.12095131725072861,0.35735616087913513,-0.7159340381622314
1732873924476899800,11.15589990234375,-0.11728613078594208,0.294437050819397,-0.3597996234893799
1732873924486931200,11.16593115234375,-0.16310101747512817,0.16859880089759827,-0.028099801391363144
1732873924496919300,11.175919189453126,-0.24129177629947662,0.015882495790719986,0.21074850857257843
1732873924506920400,11.18592041015625,-0.3744603991508484,-0.1569923609495163,0.3481931984424591
1732873924516908300,11.195908203125,-0.4398229718208313,-0.20525072515010834,0.3084869384765625
1732873924526939400,11.205939453125,-0.4758640229701996,-0.19364428520202637,0.19853121042251587
1732873924536897300,11.215897216796876,-0.47708576917648315,-0.152105450630188,0.05742133408784866
1732873924546928400,11.225928466796875,-0.4489859640598297,-0.09896016865968704,-0.07880161702632904
1732873924556917000,11.2359169921875,-0.3933972120285034,-0.031154127791523933,-0.18387043476104736
1732873924566947800,11.24594775390625,-0.32681289315223694,0.042760565876960754,-0.23945917189121246
1732873924576906000,11.255906005859375,-0.2779437005519867,0.09468411654233932,-0.2431243658065796
1732873924586937600,11.2659375,-0.24373523890972137,0.11423180252313614,-0.17409659922122955
1732873924596923600,11.275923583984374,-0.24129177629947662,0.09773843735456467,-0.11484266817569733
1732873924606925600,11.285925537109375,-0.24007004499435425,0.06719517707824707,-0.06352998316287994
1732873924616913400,11.295913330078125,-0.23273965716362,0.036651913076639175,-0.028099801391363144
1732873924626945300,11.3059453125,-0.2076941877603531,0.01710422709584236,-0.0012217304902151227
1732873924636902400,11.31590234375,-0.16310101747512817,0.01710422709584236,0.02076941914856434
1732873924646934300,11.325934326171875,-0.10995574295520782,0.018325956538319588,0.05253441259264946
1732873924656921900,11.335921875,-0.02015855349600315,0.025045474991202354,0.12217304855585098
1732873924666922800,11.3459228515625,0.027488935738801956,0.028099801391363144,0.17287486791610718
1732873924676911000,11.3559111328125,0.039706241339445114,0.01771509274840355,0.21563543379306793
1732873924686942500,11.3659423828125,0.005497787147760391,-0.036041051149368286,0.24984388053417206
1732873924696900900,11.37590087890625,-0.059864792972803116,-0.12400564551353455,0.27550023794174194
1732873924706931700,11.385931640625,-0.13988813757896423,-0.2370157092809677,0.2871066629886627
1732873924716920300,11.39592041015625,-0.22296582162380219,-0.33108896017074585,0.26939156651496887
1732873924726921200,11.405921142578125,-0.3500257730484009,-0.44287729263305664,0.14905111491680145
1732873924736909600,11.41590966796875,-0.4282165467739105,-0.4703662395477295,0.01771509274840355
1732873924746941000,11.42594091796875,-0.4758640229701996,-0.42699480056762695,-0.12889257073402405
1732873924756898600,11.435898681640625,-0.4789183437824249,-0.3695734739303589,-0.27611109614372253
1732873924766930200,11.44593017578125,-0.4282165467739105,-0.2987131178379059,-0.3885102868080139
1732873924776918000,11.45591796875,-0.29993483424186707,-0.21380282938480377,-0.4447098970413208
1732873924786919000,11.4659189453125,-0.10201449692249298,-0.12095131725072861,-0.45142942667007446
1732873924796907000,11.475906982421876,0.12767083942890167,-0.01466076634824276,-0.4239404797554016
1732873924806938400,11.4859384765625,0.39095374941825867,0.10751228034496307,-0.323147714138031
1732873924816926500,11.495926513671876,0.4440990388393402,0.1362229436635971,-0.2223549485206604
1732873924826927600,11.505927734375,0.4050036668777466,0.11239920556545258,-0.12400564551353455
1732873924836915500,11.51591552734375,0.304210901260376,0.03176499158143997,-0.07452555745840073
1732873924846947000,11.525947021484376,0.16493362188339233,-0.08979719132184982,-0.0910189226269722
1732873924856904400,11.535904541015626,0.03237585723400116,-0.18875735998153687,-0.1270599663257599
1732873924866935300,11.545935302734375,-0.025656340643763542,-0.19547687470912933,-0.09162978827953339
1732873924876924000,11.555923828125,0.09162978827953339,-0.05619960278272629,0.2938261926174164
1732873924886923800,11.565923828125,0.27122417092323303,0.02626720629632473,0.7971791625022888
1732873924896913200,11.5759130859375,0.45204028487205505,0.03237585723400116,1.3726142644882202
1732873924906944800,11.58594482421875,0.5729916095733643,-0.012217304669320583,1.8887953758239746
1732873924916902100,11.595902099609376,0.6157521605491638,-0.06658431142568588,2.2180516719818115
1732873924926933000,11.60593310546875,0.5571091175079346,-0.09285151958465576,2.2705860137939453
1732873924936921600,11.615921630859376,0.42699480056762695,-0.12034045159816742,2.0201313495635986
1732873924946921200,11.625921142578125,0.2382374405860901,-0.2217440903186798,1.2021827697753906
1732873924956837400,11.63583740234375,0.09040805697441101,-0.22663100063800812,0.4660901725292206
1732873924966974200,11.64597412109375,-0.05803219974040985,-0.1313360333442688,-0.2877175211906433
1732873924976899800,11.65589990234375,-0.17043140530586243,-0.001832595793530345,-0.9431759119033813
1732873924986930000,11.665929931640624,-0.17959438264369965,0.05253441259264946,-1.3952162265777588
1732873924996919300,11.675919189453126,-0.09224065393209457,0.02626720629632473,-1.5778648853302002
1732873925006920200,11.685920166015626,0.030543262138962746,-0.007941247895359993,-1.4966198205947876
1732873925016908300,11.695908203125,0.14049901068210602,-0.029932396486401558,-1.2131783962249756
1732873925026940000,11.70593994140625,0.2724458873271942,-0.04214970022439957,-0.6010913848876953
1732873925036897300,11.715897216796876,0.3323107063770294,-0.04948008432984352,-0.1966986060142517
1732873925046929000,11.725928955078125,0.35185837745666504,-0.06780604273080826,0.10934487730264664
1732873925056916700,11.735916748046876,0.3323107063770294,-0.07391469180583954,0.2791654169559479
1732873925066948400,11.7459482421875,0.2828305959701538,-0.05864306539297104,0.30604347586631775
1732873925076905700,11.75590576171875,0.21930062770843506,-0.04337143152952194,0.23457226157188416
1732873925086936800,11.765936767578125,0.1612684279680252,-0.0403171069920063,0.12889257073402405
1732873925096925400,11.775925537109375,0.08735372871160507,-0.04948008432984352,-0.029932396486401558
1732873925106926000,11.785926025390625,0.05375614017248154,-0.05742133408784866,-0.10384709388017654
1732873925116914200,11.7959140625,0.04581489413976669,-0.056810468435287476,-0.1411098688840866
1732873925126945300,11.8059453125,0.051312681287527084,-0.05314527451992035,-0.15882496535778046
1732873925136903400,11.8159033203125,0.05009094998240471,-0.056810468435287476,-0.17592918872833252
1732873925146934300,11.825934326171875,0.03481931984424591,-0.06658431142568588,-0.2125810980796814
1732873925156923000,11.8359228515625,0.02015855349600315,-0.08429940044879913,-0.2565633952617645
1732873925166923800,11.845923828125,-0.02871066704392433,-0.11056660860776901,-0.2919935882091522
1732873925176912000,11.855911865234376,-0.05925392732024193,-0.1111774742603302,-0.2742784917354584
1732873925186943500,11.865943603515625,-0.06902777403593063,-0.0861319974064827,-0.22602014243602753
1732873925196900900,11.87590087890625,-0.06902777403593063,-0.048258353024721146,-0.1563815027475357
1732873925206932200,11.88593212890625,-0.06841690838336945,-0.012217304669320583,-0.06902777403593063
1732873925216920300,11.89592041015625,-0.07635815441608429,-0.0012217304902151227,0.03298672288656235
1732873925226921500,11.90592138671875,-0.09896016865968704,-0.024434609338641167,0.1313360333442688
1732873925236909300,11.915909423828126,-0.13439035415649414,-0.0757472887635231,0.19486601650714874
1732873925246940000,11.92593994140625,-0.19792033731937408,-0.14966198801994324,0.18631389737129211
1732873925256898600,11.935898681640625,-0.22663100063800812,-0.18020524084568024,0.1062905490398407
1732873925266929400,11.945929443359375,-0.23945917189121246,-0.18570303916931152,-0.00855211354792118
1732873925276918000,11.95591796875,-0.23945917189121246,-0.15027284622192383,-0.12034045159816742
1732873925286918700,11.965918701171875,-0.24373523890972137,-0.08429940044879913,-0.20586158335208893
1732873925296907000,11.975906982421876,-0.252287358045578,-0.027488935738801956,-0.26633724570274353
1732873925306938400,11.9859384765625,-0.27550023794174194,-0.018325956538319588,-0.3170390725135803
1732873925316926500,11.995926513671876,-0.3579670190811157,-0.09529497474431992,-0.4184426963329315
1732873925326927400,12.00592724609375,-0.4599815309047699,-0.16798794269561768,-0.48747047781944275
1732873925336915500,12.01591552734375,-0.5619960427284241,-0.23884831368923187,-0.513126790523529
1732873925346947000,12.025947021484376,-0.6200281977653503,-0.29504790902137756,-0.46853363513946533
1732873925356904400,12.035904541015626,-0.5974262356758118,-0.3439171314239502,-0.34697145223617554
1732873925366936000,12.04593603515625,-0.5070181488990784,-0.3634648323059082,-0.1869247704744339
1732873925376924200,12.055924072265626,-0.3732386529445648,-0.3286454975605011,-0.018936822190880775
1732873925386925300,12.06592529296875,-0.1459967941045761,-0.18875735998153687,0.21807889640331268
1732873925396913200,12.0759130859375,0.004886921960860491,-0.07391469180583954,0.3933972120285034
1732873925406944500,12.085944580078126,0.1466076523065567,0.05619960278272629,0.588263213634491
1732873925416902100,12.095902099609376,0.2223549485206604,0.15027284622192383,0.7385360598564148
1732873925426932500,12.105932373046874,0.17592918872833252,0.1569923609495163,0.7959573864936829
1732873925436921600,12.115921630859376,0,0.04764748737215996,0.7367035150527954
1732873925446921200,12.125921142578125,-0.2528982162475586,-0.11789698898792267,0.5595525503158569
1732873925456910600,12.13591064453125,-0.4813618063926697,-0.30543261766433716,0.30054569244384766
1732873925466941400,12.14594140625,-0.617584764957428,-0.40072759985923767,-0.07635815441608429
1732873925476899800,12.15589990234375,-0.5736024379730225,-0.3139847218990326,-0.2816088795661926
1732873925486931500,12.165931396484375,-0.44654250144958496,-0.17531833052635193,-0.44837507605552673
1732873925496919300,12.175919189453126,-0.28466320037841797,-0.029932396486401558,-0.5693264007568359
1732873925506920400,12.18592041015625,-0.1313360333442688,0.1062905490398407,-0.6346889734268188
1732873925516908300,12.195908203125,-0.021380282938480377,0.2125810980796814,-0.6346889734268188
1732873925526940000,12.20593994140625,0.039095375686883926,0.27611109614372253,-0.5815436840057373
1732873925536897300,12.215897216796876,0.04337143152952194,0.294437050819397,-0.4147774875164032
1732873925546929000,12.225928955078125,0.004886921960860491,0.2626720666885376,-0.2626720666885376
1732873925556917000,12.2359169921875,-0.0555887371301651,0.20525072515010834,-0.10445795953273773
1732873925566948400,12.2459482421875,-0.1258382350206375,0.13561208546161652,0.031154127791523933
1732873925576906000,12.255906005859375,-0.1966986060142517,0.05864306539297104,0.1111774742603302
1732873925586937600,12.2659375,-0.2620611786842346,0.007941247895359993,0.12217304855585098
1732873925596923600,12.275923583984374,-0.3078760802745819,-0.00427605677396059,0.06841690838336945
1732873925606925000,12.285925048828124,-0.3219259977340698,0.009773843921720982,-0.08735372871160507
1732873925616913400,12.295913330078125,-0.294437050819397,0.054367005825042725,-0.2076941877603531
1732873925626944500,12.305944580078124,-0.25045475363731384,0.11728613078594208,-0.3182607889175415
1732873925636902700,12.315902587890625,-0.20036379992961884,0.17776179313659668,-0.394618958234787
1732873925646933800,12.325933837890625,-0.1472185254096985,0.22968533635139465,-0.42271876335144043
1732873925656921900,12.335921875,-0.10567969083786011,0.2528982162475586,-0.40683624148368835
1732873925666923000,12.345923095703125,-0.08674286305904388,0.24190263450145721,-0.3543018400669098
1732873925676910800,12.355910888671875,-0.08735372871160507,0.19792033731937408,-0.2767219543457031
1732873925686942500,12.3659423828125,-0.09896016865968704,0.1062905490398407,-0.13072516024112701
1732873925696900600,12.375900634765625,-0.09346238523721695,0.06230825558304787,-0.03298672288656235
1732873925706932500,12.385932373046876,-0.07819075137376785,0.02871066704392433,0.04948008432984352
1732873925716920300,12.39592041015625,-0.0659734457731247,0,0.11056660860776901
1732873925736447000,12.415447021484376,-0.0555887371301651,-0.0555887371301651,0.1508837193250656
1732873925746478300,12.425478271484375,-0.05314527451992035,-0.08491026610136032,0.1368338167667389
