time,seconds_elapsed,z,y,x
1732873913476985300,0.1559853515625,0.02321287989616394,-0.010995574295520782,0.006108652334660292
1732873913486772700,0.165772705078125,0.00366519158706069,-0.04092797264456749,-0.015882495790719986
1732873913496848100,0.17584814453125,-0.02076941914856434,-0.06658431142568588,-0.03481931984424591
1732873913506849300,0.185849365234375,-0.03298672288656235,-0.05864306539297104,-0.04337143152952194
1732873913516837000,0.195837158203125,-0.018936822190880775,0,-0.03726277872920036
1732873913526869000,0.205868896484375,-0.0012217304902151227,0.03176499158143997,-0.022602014243602753
1732873913536826000,0.215826171875,0.015882495790719986,0.04703662544488907,-0.006719517521560192
1732873913546858000,0.22585791015625,0.029932396486401558,0.04886921867728233,0.014049900695681572
1732873913556845600,0.235845458984375,0.039095375686883926,0.042760565876960754,0.025656340643763542
1732873913566877200,0.245877197265625,0.04214970022439957,0.04153883829712868,0.025656340643763542
1732873913576834800,0.255834716796875,0.0403171069920063,0.04398229718208313,0.025045474991202354
1732873913586866200,0.2658662109375,0.04092797264456749,0.04703662544488907,0.013439035043120384
1732873913596853200,0.275853271484375,0.04337143152952194,0.04459316283464432,0.00366519158706069
1732873913606855000,0.28585498046875,0.03848451003432274,0.021991148591041565,-0.00427605677396059
1732873913616842800,0.2958427734375,0.02015855349600315,-0.009162978269159794,-0.009773843921720982
1732873913626874000,0.3058740234375,0.006108652334660292,-0.031154127791523933,-0.01710422709584236
1732873913636831700,0.315831787109375,0.003054326167330146,-0.02871066704392433,-0.025656340643763542
1732873913646863400,0.32586328125,0.007941247895359993,-0.016493361443281174,-0.03481931984424591
1732873913656851500,0.3358515625,0.009162978269159794,-0.014049900695681572,-0.042760565876960754
1732873913666852400,0.345852294921875,0.0024434609804302454,-0.009162978269159794,-0.05864306539297104
1732873913676840400,0.35584033203125,-0.007941247895359993,-0.00855211354792118,-0.06719517707824707
1732873913686872000,0.3658720703125,-0.01160643994808197,-0.006108652334660292,-0.06963863968849182
1732873913696830000,0.375829833984375,-0.009162978269159794,-0.001832595793530345,-0.05925392732024193
1732873913706861600,0.385861572265625,-0.004886921960860491,-0.007941247895359993,-0.0354301854968071
1732873913716849400,0.395849365234375,-0.009162978269159794,-0.04092797264456749,-0.00733038317412138
1732873913726849800,0.405849853515625,-0.012828170321881771,-0.0708603709936142,0.02687807008624077
1732873913736838100,0.415838134765625,-0.003054326167330146,-0.06475171446800232,0.060475658625364304
1732873913746869800,0.425869873046875,0.009773843921720982,-0.036651913076639175,0.07024950534105301
1732873913756827400,0.435827392578125,0.018936822190880775,-0.005497787147760391,0.059864792972803116
1732873913766858500,0.4458583984375,0.024434609338641167,0.00855211354792118,0.033597588539123535
1732873913776847000,0.45584716796875,0.025045474991202354,0.00855211354792118,-0.0024434609804302454
1732873913786847700,0.46584765625,0.01710422709584236,0.0024434609804302454,-0.0354301854968071
1732873913796836000,0.475836181640625,0.010995574295520782,-0.005497787147760391,-0.06169738993048668
1732873913806867500,0.485867431640625,-0.003054326167330146,-0.00855211354792118,-0.07696902006864548
1732873913816855600,0.49585546875,-0.013439035043120384,-0.014049900695681572,-0.07024950534105301
1732873913826856700,0.505856689453125,-0.019547687843441963,-0.024434609338641167,-0.05619960278272629
1732873913836844300,0.51584423828125,-0.01710422709584236,-0.03298672288656235,-0.03787364438176155
1732873913846902500,0.525902587890625,-0.01038470957428217,-0.03176499158143997,-0.015271631069481373
1732873913856833500,0.53583349609375,0.0012217304902151227,-0.018936822190880775,0.005497787147760391
1732873913866865000,0.545864990234375,0.013439035043120384,-0.0006108652451075613,0.019547687843441963
1732873913876853000,0.55585302734375,0.018325956538319588,0.01160643994808197,0.027488935738801956
1732873913886854000,0.56585400390625,0.012828170321881771,-0.006719517521560192,0.019547687843441963
1732873913896842000,0.575842041015625,-0.003054326167330146,-0.021991148591041565,0.01160643994808197
1732873913906873600,0.58587353515625,-0.021380282938480377,-0.039095375686883926,-0.0024434609804302454
1732873913916831000,0.5958310546875,-0.03176499158143997,-0.05375614017248154,-0.015271631069481373
1732873913926862600,0.605862548828125,-0.031154127791523933,-0.04948008432984352,-0.024434609338641167
1732873913936850400,0.615850341796875,-0.022602014243602753,-0.01710422709584236,-0.025045474991202354
1732873913946851600,0.6258515625,-0.01160643994808197,0.027488935738801956,-0.021991148591041565
1732873913956839700,0.635839599609375,0.012217304669320583,0.08979719132184982,-0.016493361443281174
1732873913966871000,0.64587109375,0.030543262138962746,0.10262536257505417,-0.015882495790719986
1732873913976828700,0.65582861328125,0.04214970022439957,0.09224065393209457,-0.015271631069481373
1732873913986860000,0.665860107421875,0.04214970022439957,0.06780604273080826,-0.02076941914856434
1732873913996848000,0.67584814453125,0.028099801391363144,0.02932153269648552,-0.036651913076639175
1732873914006849300,0.685849365234375,-0.001832595793530345,-0.03787364438176155,-0.06658431142568588
1732873914016837000,0.695837158203125,-0.04214970022439957,-0.12461651116609573,-0.10934487730264664
1732873914026868700,0.70586865234375,-0.08857546001672745,-0.22540926933288574,-0.17104226350784302
1732873914036826000,0.715826171875,-0.10323622822761536,-0.252287358045578,-0.19608774781227112
1732873914046857500,0.725857421875,-0.10567969083786011,-0.23335053026676178,-0.19058994948863983
1732873914056845600,0.735845458984375,-0.09346238523721695,-0.18509216606616974,-0.1563815027475357
1732873914066877000,0.745876953125,-0.07269296050071716,-0.12400564551353455,-0.10445795953273773
1732873914076834600,0.75583447265625,-0.0507018156349659,-0.06291911751031876,-0.048258353024721146
1732873914086866200,0.7658662109375,-0.036041051149368286,-0.0006108652451075613,0.0006108652451075613
1732873914096854300,0.775854248046875,-0.03420845419168472,0.06169738993048668,0.04459316283464432
1732873914106854000,0.78585400390625,-0.06291911751031876,0.11850785464048386,0.0861319974064827
1732873914116843300,0.79584326171875,-0.09224065393209457,0.11789698898792267,0.09407325088977814
1732873914126875000,0.805875,-0.11178833991289139,0.1014036312699318,0.08246681094169617
1732873914136832300,0.815832275390625,-0.11789698898792267,0.08002334833145142,0.056810468435287476
1732873914146863900,0.82586376953125,-0.11667526513338089,0.06841690838336945,0.02321287989616394
1732873914156851700,0.835851806640625,-0.11667526513338089,0.06719517707824707,-0.015882495790719986
1732873914166852600,0.8458525390625,-0.12828169763088226,0.07635815441608429,-0.0507018156349659
1732873914176840700,0.8558408203125,-0.15760323405265808,0.11178833991289139,-0.08918632566928864
1732873914186872600,0.86587255859375,-0.182648703455925,0.1508837193250656,-0.09712757170200348
1732873914196830000,0.875829833984375,-0.20891591906547546,0.19120082259178162,-0.0910189226269722
1732873914206861600,0.885861572265625,-0.2321287989616394,0.2278527319431305,-0.07819075137376785
1732873914216849400,0.895849365234375,-0.23945917189121246,0.25106561183929443,-0.06169738993048668
1732873914226850600,0.9058505859375,-0.2278527319431305,0.26145032048225403,-0.05375614017248154
1732873914236838100,0.915838134765625,-0.20586158335208893,0.27488934993743896,-0.048258353024721146
1732873914246870000,0.9258701171875,-0.1722639948129654,0.28466320037841797,-0.02687807008624077
1732873914256827400,0.935827392578125,-0.1514945775270462,0.27061331272125244,-0.004886921960860491
1732873914266858800,0.945858642578125,-0.13988813757896423,0.24862214922904968,0.021991148591041565
1732873914276847000,0.95584716796875,-0.13439035415649414,0.23029619455337524,0.05864306539297104
1732873914286847700,0.96584765625,-0.13561208546161652,0.21319197118282318,0.10384709388017654
1732873914296835800,0.9758359375,-0.1411098688840866,0.19058994948863983,0.14905111491680145
1732873914306867700,0.98586767578125,-0.14416420459747314,0.15332718193531036,0.18631389737129211
1732873914316855600,0.99585546875,-0.13988813757896423,0.09834930300712585,0.19914206862449646
1732873914326856200,1.005856201171875,-0.10445795953273773,0.024434609338641167,0.17043140530586243
1732873914336844300,1.01584423828125,-0.0861319974064827,-0.021380282938480377,0.1313360333442688
1732873914346875600,1.025875732421875,-0.07880161702632904,-0.06169738993048668,0.08674286305904388
1732873914356833500,1.03583349609375,-0.04581489413976669,-0.016493361443281174,0.036651913076639175
1732873914366865200,1.045865234375,-0.013439035043120384,-0.01038470957428217,-0.013439035043120384
1732873914376853000,1.05585302734375,0.015271631069481373,0.012217304669320583,-0.03298672288656235
1732873914386854100,1.065854248046875,0.03420845419168472,0.033597588539123535,-0.031154127791523933
1732873914396842000,1.075842041015625,0.03848451003432274,0.05192354694008827,0.015271631069481373
1732873914406873600,1.08587353515625,0.027488935738801956,0.06414084881544113,0.07452555745840073
1732873914416831000,1.0958310546875,0.012828170321881771,0.06352998316287994,0.13744467496871948
1732873914426862600,1.105862548828125,-0.003054326167330146,0.04948008432984352,0.1973094791173935
1732873914436850400,1.115850341796875,-0.014049900695681572,0.04153883829712868,0.24373523890972137
1732873914446851600,1.1258515625,-0.016493361443281174,0.031154127791523933,0.27550023794174194
1732873914456839700,1.135839599609375,-0.015271631069481373,0.019547687843441963,0.28649580478668213
1732873914466871000,1.14587109375,-0.01771509274840355,-0.006719517521560192,0.2687807083129883
1732873914476828700,1.15582861328125,-0.02932153269648552,-0.025045474991202354,0.24129177629947662
1732873914486860000,1.165860107421875,-0.04703662544488907,-0.04092797264456749,0.20586158335208893
1732873914496848100,1.17584814453125,-0.05925392732024193,-0.028099801391363144,0.17898350954055786
1732873914506849300,1.185849365234375,-0.05864306539297104,0.001832595793530345,0.17043140530586243
1732873914516837000,1.195837158203125,-0.0507018156349659,0.016493361443281174,0.16920967400074005
1732873914526868700,1.20586865234375,-0.036041051149368286,-0.0024434609804302454,0.17776179313659668
1732873914536826000,1.215826171875,-0.01771509274840355,-0.06108652427792549,0.17837265133857727
1732873914546857700,1.225857666015625,0.015271631069481373,-0.2119702398777008,0.152105450630188
1732873914556845800,1.235845703125,0.03848451003432274,-0.29626965522766113,0.12767083942890167
1732873914566877000,1.245876953125,0.025045474991202354,-0.33719760179519653,0.10690141469240189
1732873914576834800,1.255834716796875,0.005497787147760391,-0.3591887652873993,0.09468411654233932
1732873914586866200,1.2658662109375,-0.01038470957428217,-0.35735616087913513,0.06902777403593063
1732873914596853200,1.275853271484375,-0.01160643994808197,-0.3017674386501312,0.039706241339445114
1732873914606854700,1.285854736328125,0.012828170321881771,-0.22846360504627228,0.010995574295520782
1732873914616842800,1.2958427734375,0.05192354694008827,-0.15760323405265808,-0.04214970022439957
1732873914626874000,1.3058740234375,0.06169738993048668,-0.12889257073402405,-0.07941248267889023
1732873914636831700,1.315831787109375,0.04886921867728233,-0.0910189226269722,-0.11239920556545258
1732873914646863000,1.325863037109375,0.02382374368607998,-0.07208210229873657,-0.13927727937698364
1732873914656851500,1.3358515625,0.006108652334660292,-0.0659734457731247,-0.14416420459747314
1732873914666852400,1.345852294921875,-0.003054326167330146,-0.06291911751031876,-0.12217304855585098
1732873914676840400,1.35584033203125,0.0012217304902151227,-0.0757472887635231,-0.07635815441608429
1732873914686871800,1.365871826171875,0.05253441259264946,-0.09407325088977814,0.02932153269648552
1732873914696830000,1.375829833984375,0.10262536257505417,-0.08979719132184982,0.10812314599752426
1732873914706860800,1.38586083984375,0.14294247329235077,-0.07819075137376785,0.1661553531885147
1732873914716849400,1.395849365234375,0.16310101747512817,-0.06169738993048668,0.1918116807937622
1732873914726850000,1.40585009765625,0.1569923609495163,-0.039095375686883926,0.1918116807937622
1732873914736838100,1.415838134765625,0.12278391420841217,-0.009773843921720982,0.1411098688840866
1732873914746869200,1.425869140625,0.06475171446800232,0.021991148591041565,0.033597588539123535
1732873914756827400,1.435827392578125,-0.025656340643763542,0.06291911751031876,-0.1014036312699318
1732873914766858200,1.445858154296875,-0.16859880089759827,0.1466076523065567,-0.2926044464111328
1732873914776846800,1.455846923828125,-0.242513507604599,0.2278527319431305,-0.3744603991508484
1732873914786847500,1.465847412109375,-0.26633724570274353,0.3188716471195221,-0.40194934606552124
1732873914796836000,1.475836181640625,-0.2571742534637451,0.38667771220207214,-0.3634648323059082
1732873914806867500,1.485867431640625,-0.24373523890972137,0.40683624148368835,-0.2730567753314972
1732873914816855300,1.495855224609375,-0.23884831368923187,0.375071257352829,-0.16798794269561768
1732873914826856400,1.5058564453125,-0.242513507604599,0.3182607889175415,-0.06352998316287994
1732873914836844300,1.51584423828125,-0.24495697021484375,0.2822197377681732,0.05375614017248154
1732873914846875400,1.52587548828125,-0.22296582162380219,0.30543261766433716,0.08979719132184982
1732873914856833500,1.53583349609375,-0.18570303916931152,0.36102136969566345,0.08735372871160507
1732873914866864400,1.545864501953125,-0.13011430203914642,0.44226643443107605,0.05619960278272629
1732873914876853000,1.55585302734375,-0.08857546001672745,0.49235737323760986,-0.001832595793530345
1732873914886853000,1.56585302734375,-0.06780604273080826,0.5308418869972229,-0.06230825558304787
1732873914896842000,1.575842041015625,-0.0708603709936142,0.5607742667198181,-0.11789698898792267
1732873914906873600,1.58587353515625,-0.11850785464048386,0.5772676467895508,-0.16554448008537292
1732873914916831000,1.5958310546875,-0.16432274878025055,0.5626068711280823,-0.1661553531885147
1732873914926862600,1.605862548828125,-0.20830504596233368,0.5070181488990784,-0.1417207419872284
1732873914936850400,1.615850341796875,-0.23640485107898712,0.4147774875164032,-0.10262536257505417
1732873914946851600,1.6258515625,-0.24007004499435425,0.29993483424186707,-0.05619960278272629
1732873914956839700,1.635839599609375,-0.23273965716362,0.16982053220272064,-0.01710422709584236
1732873914966870500,1.64587060546875,-0.2223549485206604,0.036651913076639175,-0.0012217304902151227
1732873914976828700,1.65582861328125,-0.21319197118282318,-0.08246681094169617,-0.009773843921720982
1732873914986859500,1.665859619140625,-0.21624629199504852,-0.1918116807937622,-0.05192354694008827
1732873914996848000,1.67584814453125,-0.22357667982578278,-0.19608774781227112,-0.08307767659425735
1732873915006849300,1.685849365234375,-0.2217440903186798,-0.1722639948129654,-0.10934487730264664
1732873915016837000,1.695837158203125,-0.1973094791173935,-0.11545353382825851,-0.12400564551353455
1732873915026868700,1.70586865234375,-0.16004669666290283,-0.056810468435287476,-0.11972958594560623
1732873915036826000,1.715826171875,-0.1258382350206375,-0.01710422709584236,-0.08002334833145142
1732873915046858000,1.72585791015625,-0.10751228034496307,0.014049900695681572,0.01160643994808197
1732873915056845600,1.735845458984375,-0.08735372871160507,-0.00855211354792118,0.18997909128665924
1732873915066877200,1.745877197265625,-0.07208210229873657,-0.060475658625364304,0.3090978264808655
1732873915076834800,1.755834716796875,-0.02076941914856434,-0.07269296050071716,0.41111230850219727
1732873915086866200,1.7658662109375,0.06719517707824707,-0.04642575979232788,0.4893030524253845
1732873915096854300,1.775854248046875,0.15332718193531036,-0.03420845419168472,0.5577199459075928
1732873915106855200,1.785855224609375,0.21380282938480377,-0.056810468435287476,0.6395758986473083
1732873915116843300,1.79584326171875,0.2376265823841095,-0.09285151958465576,0.7330383062362671
1732873915126875000,1.805875,0.2577851414680481,-0.08857546001672745,0.8454375267028809
1732873915136832300,1.815832275390625,0.2834414839744568,-0.12461651116609573,0.8539896011352539
1732873915146863600,1.825863525390625,0.26022860407829285,-0.16920967400074005,0.7672467231750488
1732873915156851700,1.835851806640625,0.17959438264369965,-0.2382374405860901,0.6017022728919983
1732873915166852000,1.84585205078125,0.06902777403593063,-0.3579670190811157,0.35613444447517395
1732873915176840700,1.8558408203125,-0.03726277872920036,-0.4911356568336487,0.06475171446800232
1732873915186872300,1.865872314453125,-0.13500121235847473,-0.6414085030555725,-0.24007004499435425
1732873915196830000,1.875829833984375,-0.2382374405860901,-0.7941248416900635,-0.5015203952789307
1732873915206861300,1.885861328125,-0.3488040566444397,-0.9358455538749695,-0.7531968355178833
1732873915216849400,1.895849365234375,-0.3805690407752991,-0.9108000993728638,-0.8222246170043945
1732873915226850600,1.9058505859375,-0.36529740691185,-0.6976081132888794,-0.7910705208778381
1732873915236838100,1.915838134765625,-0.30543261766433716,-0.3078760802745819,-0.6310238242149353
1732873915246869800,1.925869873046875,-0.22540926933288574,0.17592918872833252,-0.35246923565864563
1732873915256827400,1.935827392578125,-0.13561208546161652,0.6035348773002625,0.003054326167330146
1732873915266857700,1.945857666015625,-0.028099801391363144,0.8894197940826416,0.37201693654060364
1732873915276846800,1.955846923828125,0.12522737681865692,0.8839219808578491,0.8020660877227783
1732873915286846700,1.9658466796875,0.17531833052635193,0.6530149579048157,0.93095862865448
1732873915296835800,1.9758359375,0.13988813757896423,0.2632829248905182,0.8906415104866028
1732873915306866200,1.9858662109375,0.03481931984424591,-0.2070833146572113,0.6933320760726929
1732873915316855800,1.995855712890625,-0.1062905490398407,-0.6957755088806152,0.3286454975605011
1732873915326856200,2.005856201171875,-0.251676470041275,-1.0659598112106323,-0.17837265133857727
1732873915336844300,2.01584423828125,-0.3530801236629486,-1.1465940475463867,-0.7287622094154358
1732873915346875600,2.025875732421875,-0.4202753007411957,-0.7116580009460449,-1.4074335098266602
1732873915356833300,2.035833251953125,-0.4098905920982361,-0.2791654169559479,-1.6206254959106445
1732873915366865000,2.045864990234375,-0.3500257730484009,0.16798794269561768,-1.55892813205719
1732873915376853000,2.05585302734375,-0.2577851414680481,0.513126790523529,-1.2528846263885498
1732873915386854000,2.06585400390625,-0.1508837193250656,0.6988298296928406,-0.7935139536857605
1732873915396842200,2.07584228515625,-0.028099801391363144,0.7800748944282532,-0.3121521472930908
1732873915406872000,2.0858720703125,0.10201449692249298,0.7513642311096191,0.09346238523721695
1732873915416831000,2.0958310546875,0.242513507604599,0.637132465839386,0.3854559659957886
1732873915426861600,2.105861572265625,0.46547931432724,0.44165557622909546,0.5760459303855896
1732873915436850400,2.115850341796875,0.5876523852348328,0.34147366881370544,0.5913175344467163
1732873915446851600,2.1258515625,0.6695083379745483,0.25534167885780334,0.5564982295036316
1732873915456839700,2.135839599609375,0.6982190012931824,0.16737708449363708,0.504574716091156
1732873915466871000,2.14587109375,0.6927211880683899,0.10018189996480942,0.4508185386657715
1732873915476828700,2.15582861328125,0.6346889734268188,0.05009094998240471,0.3995058834552765
1732873915486859000,2.16585888671875,0.5290092825889587,0.009162978269159794,0.3530801236629486
1732873915496848100,2.17584814453125,0.31642818450927734,-0.06963863968849182,0.2785545587539673
1732873915506848000,2.185847900390625,0.16554448008537292,-0.13316862285137177,0.21319197118282318
1732873915516837000,2.195837158203125,0.031154127791523933,-0.182648703455925,0.12889257073402405
1732873915526867200,2.2058671875,-0.07696902006864548,-0.25106561183929443,0.059864792972803116
1732873915536826000,2.215826171875,-0.10445795953273773,-0.2718350291252136,0.005497787147760391
1732873915546857700,2.225857666015625,-0.007941247895359993,-0.32620203495025635,-0.07024950534105301
1732873915556845600,2.235845458984375,0.17592918872833252,-0.37079519033432007,-0.19058994948863983
1732873915566877200,2.245877197265625,0.40072759985923767,-0.25473082065582275,-0.3219259977340698
1732873915576834800,2.255834716796875,0.485027015209198,-0.20097467303276062,-0.35735616087913513
1732873915586865000,2.265864990234375,0.5027421116828918,-0.2015855312347412,-0.32559117674827576
1732873915596853200,2.275853271484375,0.4447098970413208,-0.20891591906547546,-0.23396138846874237
1732873915606854000,2.28585400390625,0.2718350291252136,-0.1667662113904953,-0.09834930300712585
1732873915616842800,2.2958427734375,0.039095375686883926,-0.12339477986097336,0.05009094998240471
1732873915626874000,2.3058740234375,-0.11972958594560623,-0.10873401165008545,0.17348572611808777
1732873915636831700,2.315831787109375,-0.04459316283464432,-0.10201449692249298,0.23579397797584534
1732873915646863000,2.325863037109375,0.15271630883216858,-0.05742133408784866,0.1918116807937622
1732873915656851500,2.3358515625,0.24678955972194672,0.036041051149368286,0.13377949595451355
1732873915666852400,2.345852294921875,0.32559117674827576,0.13255776464939117,0.08368854224681854
1732873915676840400,2.35584033203125,0.3830125033855438,0.16798794269561768,0.030543262138962746
1732873915686872000,2.3658720703125,0.42271876335144043,0.18387043476104736,-0.029932396486401558
1732873915696830000,2.375829833984375,0.45692721009254456,0.1765400618314743,-0.09651670604944229
1732873915706861300,2.385861328125,0.4282165467739105,0.08429940044879913,-0.19486601650714874
1732873915716849400,2.395849365234375,0.2926044464111328,-0.10506882518529892,-0.4056145250797272
1732873915726850300,2.405850341796875,0.1771509200334549,-0.20525072515010834,-0.5687155723571777
1732873915736838400,2.41583837890625,0.051312681287527084,-0.22357667982578278,-0.7079927921295166
1732873915746869800,2.425869873046875,-0.030543262138962746,-0.10934487730264664,-0.7733554244041443
1732873915756827400,2.435827392578125,-0.0403171069920063,0.08368854224681854,-0.7269296646118164
1732873915766858800,2.445858642578125,0.012217304669320583,0.3604104816913605,-0.5265658497810364
1732873915776846800,2.455846923828125,0.14782938361167908,0.6395758986473083,-0.19364428520202637
1732873915786846700,2.4658466796875,0.4398229718208313,0.8008443117141724,0.34758231043815613
1732873915796836000,2.475836181640625,0.616973876953125,0.7079927921295166,0.6157521605491638
1732873915806866200,2.4858662109375,0.7092145681381226,0.5534439086914062,0.7867944240570068
1732873915816855600,2.49585546875,0.7250970602035522,0.38117989897727966,0.846659243106842
1732873915826855200,2.505855224609375,0.6688974499702454,0.19425514340400696,0.8002334833145142
1732873915836844500,2.515844482421875,0.5540547966957092,-0.015882495790719986,0.6621779203414917
1732873915846905900,2.52590576171875,0.3995058834552765,-0.21319197118282318,0.4508185386657715
1732873915856833500,2.53583349609375,0.2583959996700287,-0.35552358627319336,0.2064724564552307
1732873915866864400,2.545864501953125,0.10262536257505417,-0.41233405470848083,-0.14844025671482086
1732873915876853000,2.55585302734375,0.0012217304902151227,-0.36529740691185,-0.35124751925468445
1732873915886853400,2.565853271484375,-0.10690141469240189,-0.2785545587539673,-0.5180137157440186
1732873915896842000,2.575842041015625,-0.21624629199504852,-0.18570303916931152,-0.6426302194595337
1732873915906872300,2.585872314453125,-0.3341432809829712,-0.0806342139840126,-0.7110471725463867
1732873915916831000,2.5958310546875,-0.49357911944389343,-0.04153883829712868,-0.7476990818977356
1732873915926862600,2.605862548828125,-0.5907067060470581,-0.04153883829712868,-0.7367035150527954
1732873915936850400,2.615850341796875,-0.5913175344467163,0.08979719132184982,-0.5516113042831421
1732873915946851600,2.6258515625,-0.5791002511978149,0.1973094791173935,-0.3793473243713379
1732873915956839700,2.635839599609375,-0.48747047781944275,0.3237585723400116,-0.1973094791173935
1732873915966871000,2.64587109375,-0.3585779070854187,0.2119702398777008,-0.09957103431224823
1732873915976828700,2.65582861328125,-0.30115658044815063,0.11056660860776901,-0.031154127791523933
1732873915986860300,2.6658603515625,-0.2431243658065796,0.21868975460529327,0.13255776464939117
1732873915996848000,2.67584814453125,-0.17409659922122955,0.19547687470912933,0.26939156651496887
1732873916006848000,2.685847900390625,-0.07880161702632904,0.0806342139840126,0.2687807083129883
1732873916016837000,2.695837158203125,-0.04337143152952194,0.033597588539123535,0.21930062770843506
1732873916026868000,2.705867919921875,-0.039095375686883926,-0.016493361443281174,0.15027284622192383
1732873916036826000,2.715826171875,-0.059864792972803116,-0.03787364438176155,0.06536258012056351
1732873916046857200,2.725857177734375,-0.10384709388017654,-0.02871066704392433,-0.02015855349600315
1732873916056845600,2.735845458984375,-0.14416420459747314,-0.015882495790719986,-0.10018189996480942
1732873916066876700,2.745876708984375,-0.1612684279680252,-0.00733038317412138,-0.15943582355976105
1732873916076834800,2.755834716796875,-0.1722639948129654,0.0354301854968071,-0.16859880089759827
1732873916086866400,2.765866455078125,-0.17348572611808777,0.13866640627384186,-0.1264491081237793
1732873916096854300,2.775854248046875,-0.1411098688840866,0.21013765037059784,-0.10567969083786011
1732873916106854100,2.785854248046875,-0.08002334833145142,0.2626720666885376,-0.10384709388017654
1732873916116843300,2.79584326171875,0.013439035043120384,0.27488934993743896,-0.11301007121801376
1732873916126873300,2.805873291015625,0.10690141469240189,0.251676470041275,-0.12828169763088226
1732873916136832300,2.815832275390625,0.17287486791610718,0.1869247704744339,-0.14966198801994324
1732873916146863900,2.82586376953125,0.21502456068992615,0.08246681094169617,-0.17470745742321014
1732873916156851700,2.835851806640625,0.21441370248794556,-0.02321287989616394,-0.13988813757896423
1732873916166852900,2.845852783203125,0.12339477986097336,-0.04642575979232788,-0.07391469180583954
1732873916176840700,2.8558408203125,0.06291911751031876,-0.0659734457731247,-0.04092797264456749
1732873916186872300,2.865872314453125,0.059864792972803116,-0.0757472887635231,-0.05253441259264946
1732873916196830000,2.875829833984375,0.08002334833145142,-0.10873401165008545,-0.0959058403968811
1732873916206861300,2.885861328125,0.0910189226269722,-0.1313360333442688,-0.14233160018920898
1732873916216849400,2.895849365234375,0.06108652427792549,-0.15332718193531036,-0.17470745742321014
1732873916226850300,2.905850341796875,-0.02076941914856434,-0.23335053026676178,-0.26083946228027344
1732873916236838100,2.915838134765625,-0.11423180252313614,-0.31459560990333557,-0.34697145223617554
1732873916246868700,2.92586865234375,-0.23151792585849762,-0.4404338300228119,-0.46303585171699524
1732873916256827400,2.935827392578125,-0.36590829491615295,-0.6010913848876953,-0.6065891981124878
1732873916266857500,2.945857421875,-0.513126790523529,-0.7360926270484924,-0.7385360598564148
1732873916276846800,2.955846923828125,-0.6609562039375305,-0.8631525635719299,-0.8478809595108032
1732873916286848000,2.965847900390625,-0.7733554244041443,-0.9773843884468079,-0.9108000993728638
1732873916296835800,2.9758359375,-0.8191702961921692,-1.056796908378601,-0.8497135639190674
1732873916306867500,2.985867431640625,-0.759916365146637,-0.9737191796302795,-0.6860016584396362
1732873916316855600,2.99585546875,-0.6359107494354248,-0.8014551997184753,-0.4282165467739105
1732873916326856400,3.0058564453125,-0.5277875661849976,-0.5687155723571777,-0.08368854224681854
1732873916336844300,3.01584423828125,-0.5320636034011841,-0.29993483424186707,0.26022860407829285
1732873916346876200,3.025876220703125,-0.5412266254425049,-0.05742133408784866,0.5174028873443604
1732873916356833500,3.03583349609375,-0.5345070958137512,0.152105450630188,0.665232241153717
1732873916366865000,3.045864990234375,-0.5180137157440186,0.2889392673969269,0.7250970602035522
1732873916376853000,3.05585302734375,-0.4593706727027893,0.3378084897994995,0.6597344875335693
1732873916386852600,3.0658525390625,-0.4282165467739105,0.28099802136421204,0.5100724697113037
1732873916396842000,3.075842041015625,-0.394008070230484,0.19303341209888458,0.29504790902137756
1732873916406872600,3.08587255859375,-0.34697145223617554,0.07941248267889023,0.05192354694008827
1732873916416831000,3.0958310546875,-0.30543261766433716,-0.0403171069920063,-0.1716531366109848
1732873916426862600,3.105862548828125,-0.2883284091949463,-0.1007927656173706,-0.35124751925468445
1732873916436850400,3.115850341796875,-0.30054569244384766,-0.11911872029304504,-0.46792277693748474
1732873916446851600,3.1258515625,-0.3390302062034607,-0.09407325088977814,-0.5021312236785889
1732873916456839400,3.13583935546875,-0.35246923565864563,-0.03848451003432274,-0.46303585171699524
1732873916466871000,3.14587109375,-0.3695734739303589,0.04642575979232788,-0.3885102868080139
1732873916476828700,3.15582861328125,-0.37201693654060364,0.16920967400074005,-0.28649580478668213
1732873916486860300,3.1658603515625,-0.342695415019989,0.2834414839744568,-0.16920967400074005
1732873916496848100,3.17584814453125,-0.2742784917354584,0.36713001132011414,-0.045204028487205505
1732873916506849000,3.18584912109375,-0.21502456068992615,0.39095374941825867,0.06902777403593063
1732873916516837000,3.195837158203125,-0.2223549485206604,0.3072652220726013,0.20036379992961884
1732873916526869000,3.205868896484375,-0.21868975460529327,0.28038713335990906,0.24984388053417206
1732873916536826000,3.215826171875,-0.20830504596233368,0.26083946228027344,0.2724458873271942
1732873916546857500,3.225857421875,-0.19792033731937408,0.23090706765651703,0.26633724570274353
1732873916556845800,3.235845703125,-0.16798794269561768,0.22418753802776337,0.242513507604599
1732873916566877200,3.245877197265625,-0.1215621829032898,0.23945917189121246,0.19608774781227112
1732873916576834800,3.255834716796875,-0.0659734457731247,0.251676470041275,0.11728613078594208
1732873916586866200,3.2658662109375,-0.0024434609804302454,0.24984388053417206,0.013439035043120384
1732873916596853200,3.275853271484375,0.09651670604944229,0.20830504596233368,-0.15577064454555511
1732873916606854700,3.285854736328125,0.16371189057826996,0.1466076523065567,-0.2321287989616394
1732873916616842800,3.2958427734375,0.2028072625398636,0.06475171446800232,-0.27061331272125244
1732873916626874000,3.3058740234375,0.2168571650981903,-0.012217304669320583,-0.27061331272125244
1732873916636831700,3.315831787109375,0.22113321721553802,-0.09834930300712585,-0.23518311977386475
1732873916646863400,3.32586328125,0.23884831368923187,-0.16859880089759827,-0.1667662113904953
1732873916656851500,3.3358515625,0.2687807083129883,-0.19853121042251587,-0.0757472887635231
1732873916666852400,3.345852294921875,0.3090978264808655,-0.20830504596233368,0.045204028487205505
1732873916676840400,3.35584033203125,0.3090978264808655,-0.15821409225463867,0.11423180252313614
1732873916686872000,3.3658720703125,0.29626965522766113,-0.0959058403968811,0.15760323405265808
1732873916696830000,3.375829833984375,0.2779437005519867,-0.03848451003432274,0.16371189057826996
1732873916706861600,3.385861572265625,0.2535090744495392,0.00855211354792118,0.13500121235847473
1732873916716849400,3.395849365234375,0.22663100063800812,0.04948008432984352,0.06536258012056351
1732873916726850600,3.4058505859375,0.20891591906547546,0.045204028487205505,-0.00366519158706069
1732873916736838100,3.415838134765625,0.21807889640331268,0.007941247895359993,-0.045204028487205505
1732873916746870000,3.4258701171875,0.22357667982578278,-0.03420845419168472,-0.05619960278272629
1732873916756827400,3.435827392578125,0.21502456068992615,-0.0861319974064827,-0.06169738993048668
1732873916766859000,3.44585888671875,0.20036379992961884,-0.1319468915462494,-0.06108652427792549
1732873916776846800,3.455846923828125,0.18875735998153687,-0.1765400618314743,-0.06169738993048668
1732873916786847700,3.46584765625,0.182648703455925,-0.20525072515010834,-0.07635815441608429
1732873916796835800,3.4758359375,0.16371189057826996,-0.20525072515010834,-0.10690141469240189
1732873916806867500,3.485867431640625,0.13377949595451355,-0.18875735998153687,-0.15821409225463867
1732873916816855300,3.495855224609375,0.06963863968849182,-0.16554448008537292,-0.24862214922904968
1732873916826856200,3.505856201171875,0.018325956538319588,-0.16554448008537292,-0.33169981837272644
1732873916836844300,3.51584423828125,-0.03298672288656235,-0.17470745742321014,-0.46364670991897583
1732873916846876000,3.5258759765625,-0.08002334833145142,-0.18814650177955627,-0.6236934065818787
1732873916856833500,3.53583349609375,-0.10873401165008545,-0.19425514340400696,-0.7098253965377808
1732873916866865000,3.545864990234375,-0.11056660860776901,-0.1270599663257599,-0.627358615398407
1732873916876853000,3.55585302734375,-0.024434609338641167,-0.007941247895359993,-0.42149701714515686
1732873916886852900,3.565852783203125,0.21013765037059784,0.09896016865968704,0.06780604273080826
1732873916896842200,3.57584228515625,0.3225368559360504,0.13927727937698364,0.4337143301963806
1732873916906872300,3.585872314453125,0.3982841372489929,0.14049901068210602,0.7324274182319641
1732873916916831000,3.5958310546875,0.44165557622909546,0.09224065393209457,0.8985827565193176
1732873916926861300,3.605861328125,0.4202753007411957,0.009773843921720982,0.9040805697441101
1732873916936850400,3.615850341796875,0.3390302062034607,-0.07391469180583954,0.7635815739631653
1732873916946850800,3.625850830078125,0.22113321721553802,-0.11911872029304504,0.5149593949317932
1732873916956839700,3.635839599609375,0.014049900695681572,-0.12828169763088226,0.054367005825042725
1732873916966870500,3.64587060546875,-0.1111774742603302,-0.13744467496871948,-0.23029619455337524
1732873916976828700,3.65582861328125,-0.20891591906547546,-0.15027284622192383,-0.43799036741256714
1732873916986860000,3.665860107421875,-0.2687807083129883,-0.1258382350206375,-0.5345070958137512
1732873916996848000,3.67584814453125,-0.27611109614372253,-0.0910189226269722,-0.5253441333770752
1732873917006849000,3.68584912109375,-0.23579397797584534,-0.06963863968849182,-0.4331034719944
1732873917016837000,3.695837158203125,-0.16310101747512817,-0.042760565876960754,-0.2626720666885376
1732873917026868700,3.70586865234375,-0.10262536257505417,-0.012217304669320583,-0.04703662544488907
1732873917036826000,3.715826171875,-0.0659734457731247,0.10323622822761536,0.24373523890972137
1732873917046857700,3.725857666015625,-0.06230825558304787,0.20402899384498596,0.35735616087913513
1732873917056845600,3.735845458984375,-0.07208210229873657,0.2822197377681732,0.3995058834552765
1732873917066877200,3.745877197265625,-0.09040805697441101,0.33292156457901,0.39645153284072876
1732873917076834800,3.755834716796875,-0.11423180252313614,0.35063666105270386,0.3744603991508484
1732873917086866200,3.7658662109375,-0.1319468915462494,0.34208452701568604,0.3500257730484009
1732873917096854300,3.775854248046875,-0.13988813757896423,0.30543261766433716,0.3280346393585205
1732873917106855200,3.785855224609375,-0.12522737681865692,0.23273965716362,0.3017674386501312
1732873917116843300,3.79584326171875,-0.10567969083786011,0.20402899384498596,0.2791654169559479
1732873917126874600,3.80587451171875,-0.08552113175392151,0.18631389737129211,0.22846360504627228
1732873917136832300,3.815832275390625,-0.07024950534105301,0.16249015927314758,0.15393804013729095
1732873917146863900,3.82586376953125,-0.07330382615327835,0.1258382350206375,0.06780604273080826
1732873917156851700,3.835851806640625,-0.09529497474431992,0.09773843735456467,-0.02076941914856434
1732873917166852900,3.845852783203125,-0.1270599663257599,0.08918632566928864,-0.10445795953273773
1732873917176840700,3.8558408203125,-0.17287486791610718,0.08124507963657379,-0.19425514340400696
1732873917186872300,3.865872314453125,-0.19058994948863983,0.06780604273080826,-0.19486601650714874
1732873917196830000,3.875829833984375,-0.19547687470912933,0.051312681287527084,-0.12034045159816742
1732873917206861600,3.885861572265625,-0.16737708449363708,0.06169738993048668,-0.03787364438176155
1732873917216849400,3.895849365234375,-0.13988813757896423,0.05314527451992035,0.042760565876960754
1732873917226850800,3.905850830078125,-0.13316862285137177,0.028099801391363144,0.10812314599752426
1732873917236838100,3.915838134765625,-0.14905111491680145,0.0012217304902151227,0.1466076523065567
1732873917246870000,3.9258701171875,-0.17409659922122955,-0.030543262138962746,0.14233160018920898
1732873917256827400,3.935827392578125,-0.2278527319431305,-0.0806342139840126,0.05742133408784866
1732873917266859000,3.94585888671875,-0.2791654169559479,-0.12950342893600464,-0.0403171069920063
1732873917276846800,3.955846923828125,-0.32681289315223694,-0.17470745742321014,-0.1466076523065567
1732873917286848000,3.965847900390625,-0.36163222789764404,-0.19486601650714874,-0.2382374405860901
1732873917296835800,3.9758359375,-0.3933972120285034,-0.18570303916931152,-0.2987131178379059
1732873917306867700,3.98586767578125,-0.4105014503002167,-0.18814650177955627,-0.303600013256073
1732873917316855300,3.995855224609375,-0.4153883755207062,-0.19608774781227112,-0.27488934993743896
1732873917326856700,4.005856689453125,-0.4245513379573822,-0.23640485107898712,-0.27611109614372253
1732873917336844300,4.01584423828125,-0.43127086758613586,-0.32498031854629517,-0.28649580478668213
1732873917346876200,4.025876220703125,-0.44287729263305664,-0.41661009192466736,-0.2926044464111328
1732873917356833500,4.03583349609375,-0.4605923891067505,-0.48685958981513977,-0.3127630054950714
1732873917366865000,4.045864990234375,-0.48380526900291443,-0.5363397002220154,-0.34758231043815613
1732873917376853000,4.05585302734375,-0.5088507533073425,-0.5876523852348328,-0.3903428912162781
1732873917386854000,4.06585400390625,-0.5583308339118958,-0.6322455406188965,-0.42760565876960754
1732873917396842200,4.07584228515625,-0.645684540271759,-0.6640105247497559,-0.3830125033855438
1732873917406873600,4.08587353515625,-0.588263213634491,-0.5546656250953674,-0.2278527319431305
1732873917416831000,4.0958310546875,-0.43615779280662537,-0.3292563557624817,0.01466076634824276
1732873917426861600,4.105861572265625,-0.22663100063800812,-0.0555887371301651,0.3243694305419922
1732873917436850400,4.115850341796875,-0.0012217304902151227,0.19853121042251587,0.6536257863044739
1732873917446850300,4.125850341796875,0.21441370248794556,0.3842342495918274,0.9340129494667053
1732873917456839700,4.135839599609375,0.3842342495918274,0.4856378734111786,1.1099421977996826
1732873917466870000,4.1458701171875,0.48319441080093384,0.4447098970413208,1.1398745775222778
1732873917476828700,4.15582861328125,0.46547931432724,0.2590068578720093,0.9260717034339905
1732873917486858800,4.165858642578125,0.29504790902137756,0.3066543638706207,0.6640105247497559
1732873917496848100,4.17584814453125,-0.033597588539123535,0.5076290369033813,0.36163222789764404
1732873917506849000,4.18584912109375,-0.3604104816913605,0.403781920671463,-0.039706241339445114
1732873917516837000,4.195837158203125,-0.5070181488990784,0.1270599663257599,-0.4098905920982361
1732873917526869000,4.205868896484375,-0.5277875661849976,0.02626720629632473,-0.6994407176971436
1732873917536826000,4.215826171875,-0.4905247986316681,0.04459316283464432,-0.8515461683273315
1732873917546858000,4.22585791015625,-0.3628539443016052,0.18387043476104736,-0.7440338730812073
1732873917556845600,4.235845458984375,-0.22907446324825287,0.3139847218990326,-0.48747047781944275
1732873917566876000,4.2458759765625,-0.04459316283464432,0.48747047781944275,-0.14905111491680145
1732873917576834800,4.255834716796875,0.14416420459747314,0.6249151229858398,0.19486601650714874
1732873917586866200,4.2658662109375,0.2822197377681732,0.6707300543785095,0.47219884395599365
1732873917596853500,4.275853515625,0.3536909818649292,0.6695083379745483,0.6591235995292664
1732873917606854700,4.285854736328125,0.3445279896259308,0.6151412725448608,0.7470881938934326
1732873917616842800,4.2958427734375,0.22602014243602753,0.4098905920982361,0.7079927921295166
1732873917626873900,4.305873779296875,0.1618792861700058,0.26633724570274353,0.5925393104553223
1732873917636831700,4.315831787109375,0.09651670604944229,0.11972958594560623,0.4184426963329315
1732873917646862800,4.32586279296875,0.05742133408784866,0.03848451003432274,0.22846360504627228
1732873917656851500,4.3358515625,0.03176499158143997,0.004886921960860491,0.0507018156349659
1732873917666852400,4.345852294921875,-0.015882495790719986,0.016493361443281174,-0.10690141469240189
1732873917676840200,4.355840087890625,-0.1111774742603302,0.17531833052635193,-0.20463985204696655
1732873917686871800,4.365871826171875,-0.2474004179239273,0.35124751925468445,-0.24373523890972137
1732873917696830000,4.375829833984375,-0.23457226157188416,0.13072516024112701,-0.3243694305419922
1732873917706861300,4.385861328125,-0.16554448008537292,0.04948008432984352,-0.33108896017074585
1732873917716849400,4.395849365234375,-0.1160643994808197,0.03848451003432274,-0.27122417092323303
1732873917726850000,4.40585009765625,-0.07635815441608429,0.0354301854968071,-0.14355333149433136
1732873917736838100,4.415838134765625,-0.036651913076639175,-0.018325956538319588,0.00733038317412138
1732873917746870300,4.425870361328125,-0.00733038317412138,-0.0910189226269722,0.1362229436635971
1732873917756827400,4.435827392578125,0,-0.09896016865968704,0.21624629199504852
1732873917766858800,4.445858642578125,0.006108652334660292,-0.06108652427792549,0.21624629199504852
1732873917776847000,4.45584716796875,0.0024434609804302454,-0.003054326167330146,0.14905111491680145
1732873917786847700,4.46584765625,-0.018325956538319588,0.022602014243602753,0.04581489413976669
1732873917796836000,4.475836181640625,-0.036041051149368286,0.028099801391363144,-0.05803219974040985
1732873917806867700,4.48586767578125,-0.042760565876960754,-0.012828170321881771,-0.13927727937698364
1732873917816855300,4.495855224609375,-0.048258353024721146,-0.08307767659425735,-0.17470745742321014
1732873917826856200,4.505856201171875,-0.03726277872920036,-0.2021963894367218,-0.17348572611808777
1732873917836844300,4.51584423828125,-0.00733038317412138,-0.3885102868080139,-0.1514945775270462
1732873917846904600,4.525904541015625,-0.019547687843441963,-0.455705463886261,-0.1111774742603302
1732873917856833500,4.53583349609375,-0.01771509274840355,-0.5259549617767334,-0.08368854224681854
1732873917866865000,4.545864990234375,0.00855211354792118,-0.5619960427284241,-0.07269296050071716
1732873917876853000,4.55585302734375,0.024434609338641167,-0.5302310585975647,-0.07941248267889023
1732873917886854000,4.56585400390625,0.030543262138962746,-0.47219884395599365,-0.10384709388017654
1732873917896842000,4.575842041015625,0.04886921867728233,-0.4434881806373596,-0.13988813757896423
1732873917906873300,4.585873291015625,0.0959058403968811,-0.45692721009254456,-0.20036379992961884
1732873917916831000,4.5958310546875,0.17959438264369965,-0.45265114307403564,-0.3481931984424591
1732873917926862600,4.605862548828125,0.17104226350784302,-0.4550946056842804,-0.46792277693748474
1732873917936850400,4.615850341796875,0.07330382615327835,-0.48685958981513977,-0.578489363193512
1732873917946851300,4.625851318359375,-0.06841690838336945,-0.598647952079773,-0.6640105247497559
1732873917956839700,4.635839599609375,-0.18631389737129211,-0.6957755088806152,-0.675616979598999
1732873917966871000,4.64587109375,-0.252287358045578,-0.7476990818977356,-0.5534439086914062
1732873917976828700,4.65582861328125,-0.23029619455337524,-0.7006624341011047,-0.25961771607398987
1732873917986860000,4.665860107421875,-0.0806342139840126,-0.44776421785354614,0.40256020426750183
1732873917996848000,4.67584814453125,0.08674286305904388,-0.17409659922122955,0.7574729323387146
1732873918006848000,4.685847900390625,0.33108896017074585,0.0959058403968811,0.9297369122505188
1732873918016837000,4.695837158203125,0.5662720799446106,0.33719760179519653,0.9755517840385437
1732873918026867500,4.705867431640625,0.7086036801338196,0.5112941861152649,0.9254608750343323
1732873918036826000,4.715826171875,0.7183775305747986,0.5845980644226074,0.7953465580940247
1732873918046859500,4.725859619140625,0.6059783101081848,0.5736024379730225,0.6041457056999207
1732873918056845600,4.735845458984375,0.27000242471694946,0.45142942667007446,0.17837265133857727
1732873918066876700,4.745876708984375,-0.02015855349600315,0.2638937830924988,-0.15821409225463867
1732873918076834800,4.755834716796875,-0.2791654169559479,0.0659734457731247,-0.46547931432724
1732873918086866200,4.7658662109375,-0.4550946056842804,-0.06414084881544113,-0.7000515460968018
1732873918096854300,4.775854248046875,-0.5418374538421631,-0.03726277872920036,-0.8185594081878662
1732873918106855200,4.785855224609375,-0.5907067060470581,0.3017674386501312,-0.7476990818977356
1732873918116843300,4.79584326171875,-0.5668829679489136,0.44287729263305664,-0.5992587804794312
1732873918126873600,4.80587353515625,-0.3897320330142975,0.3536909818649292,-0.4599815309047699
1732873918136832300,4.815832275390625,-0.06780604273080826,0.3139847218990326,-0.1368338167667389
1732873918146863900,4.82586376953125,0.05009094998240471,0.38728857040405273,0.1264491081237793
1732873918156851700,4.835851806640625,0.07757988572120667,0.3885102868080139,0.3628539443016052
1732873918166852600,4.8458525390625,0.08002334833145142,0.36590829491615295,0.5497786998748779
1732873918176840700,4.8558408203125,0.07208210229873657,0.3237585723400116,0.6481280326843262
1732873918186871800,4.865871826171875,0.03298672288656235,0.2724458873271942,0.6603453159332275
1732873918196830000,4.875829833984375,-0.03237585723400116,0.21563543379306793,0.5998696684837341
1732873918206860800,4.88586083984375,-0.1264491081237793,0.09651670604944229,0.41172316670417786
1732873918216849400,4.895849365234375,-0.14966198801994324,0.05375614017248154,0.24190263450145721
1732873918226849500,4.905849609375,-0.13377949595451355,0.09407325088977814,0.05009094998240471
1732873918236838100,4.915838134765625,-0.08979719132184982,0.15760323405265808,-0.12461651116609573
1732873918246869200,4.925869140625,-0.06230825558304787,0.19547687470912933,-0.2480112910270691
1732873918256827400,4.935827392578125,-0.06658431142568588,0.21013765037059784,-0.3127630054950714
1732873918266858800,4.945858642578125,-0.08307767659425735,0.2021963894367218,-0.34574973583221436
1732873918276846800,4.955846923828125,-0.1007927656173706,0.15271630883216858,-0.3396410644054413
1732873918286847700,4.96584765625,-0.09773843735456467,0.09407325088977814,-0.29016098380088806
1732873918296835800,4.9758359375,-0.08246681094169617,0.024434609338641167,-0.21013765037059784
1732873918306867500,4.985867431640625,-0.0507018156349659,-0.03481931984424591,-0.11178833991289139
1732873918316855600,4.99585546875,-0.006108652334660292,-0.06658431142568588,-0.006108652334660292
1732873918326856400,5.0058564453125,0.01466076634824276,-0.06536258012056351,0.08124507963657379
1732873918336844300,5.01584423828125,-0.00855211354792118,-0.00733038317412138,0.10995574295520782
1732873918346876000,5.0258759765625,-0.027488935738801956,0.06230825558304787,0.06291911751031876
1732873918356833300,5.035833251953125,0.005497787147760391,0.02932153269648552,-0.10262536257505417
1732873918366865000,5.045864990234375,0.04886921867728233,-0.04153883829712868,-0.1569923609495163
1732873918376853000,5.05585302734375,0.025656340643763542,-0.0659734457731247,-0.08979719132184982
1732873918386854000,5.06585400390625,-0.0403171069920063,-0.048258353024721146,-0.03237585723400116
1732873918396842000,5.075842041015625,-0.12217304855585098,-0.1264491081237793,-0.06352998316287994
1732873918406873900,5.085873779296875,-0.1618792861700058,-0.18875735998153687,-0.13255776464939117
1732873918416831000,5.0958310546875,-0.1765400618314743,-0.2541199326515198,-0.192422553896904
1732873918426862600,5.105862548828125,-0.21319197118282318,-0.4129449129104614,-0.24617868661880493
1732873918436850400,5.115850341796875,-0.24434609711170197,-0.5338962078094482,-0.27611109614372253
1732873918446851600,5.1258515625,-0.25595253705978394,-0.6499606370925903,-0.31031954288482666
1732873918456839400,5.13583935546875,-0.2626720666885376,-0.7391469478607178,-0.2981022298336029
1732873918466871000,5.14587109375,-0.2583959996700287,-0.7733554244041443,-0.2064724564552307
1732873918476828700,5.15582861328125,-0.27977627515792847,-0.8002334833145142,-0.016493361443281174
1732873918486860000,5.165860107421875,-0.31093040108680725,-0.8038986921310425,0.23457226157188416
1732873918496848100,5.17584814453125,-0.31520646810531616,-0.6243042945861816,0.5827654600143433
1732873918506847700,5.18584765625,-0.24434609711170197,-0.4288274049758911,0.7098253965377808
1732873918516837000,5.195837158203125,-0.16310101747512817,-0.2565633952617645,0.7806857824325562
1732873918526867500,5.205867431640625,-0.1215621829032898,-0.1264491081237793,0.817337691783905
1732873918536826000,5.215826171875,-0.13744467496871948,-0.0354301854968071,0.8289441466331482
1732873918546857700,5.225857666015625,-0.19547687470912933,0.02871066704392433,0.7745771408081055
1732873918556845800,5.235845703125,-0.24678955972194672,0.05009094998240471,0.6218608021736145
1732873918566876000,5.2458759765625,-0.26511552929878235,0.04948008432984352,0.413555771112442
1732873918576834800,5.255834716796875,-0.24495697021484375,0.03176499158143997,0.04642575979232788
1732873918586865000,5.265864990234375,-0.23151792585849762,0.08185594528913498,-0.17837265133857727
1732873918596853200,5.275853271484375,-0.18570303916931152,0.11911872029304504,-0.3090978264808655
1732873918606853600,5.285853515625,-0.11239920556545258,0.09834930300712585,-0.29504790902137756
1732873918616842800,5.2958427734375,-0.014049900695681572,0.14782938361167908,-0.25106561183929443
1732873918626874400,5.305874267578125,0.07147123664617538,0.21441370248794556,-0.2021963894367218
1732873918636831700,5.315831787109375,0.09407325088977814,0.29993483424186707,-0.13255776464939117
1732873918646863000,5.325863037109375,0.06475171446800232,0.4288274049758911,0.01771509274840355
1732873918656851500,5.3358515625,0.028099801391363144,0.4801400899887085,0.11301007121801376
1732873918666852400,5.345852294921875,-0.00427605677396059,0.5088507533073425,0.17898350954055786
1732873918676840400,5.35584033203125,-0.009773843921720982,0.5259549617767334,0.19792033731937408
1732873918686871000,5.36587109375,-0.00366519158706069,0.4966334402561188,0.17531833052635193
1732873918696830000,5.375829833984375,0.028099801391363144,0.4691445231437683,0.13988813757896423
1732873918706860800,5.38586083984375,0.08002334833145142,0.44837507605552673,0.08491026610136032
1732873918716849400,5.395849365234375,0.15515977144241333,0.39156460762023926,-0.022602014243602753
1732873918726850300,5.405850341796875,0.18814650177955627,0.35552358627319336,-0.08918632566928864
1732873918736838400,5.41583837890625,0.21013765037059784,0.3194825351238251,-0.14294247329235077
1732873918746870000,5.4258701171875,0.2223549485206604,0.2638937830924988,-0.19120082259178162
1732873918756827400,5.435827392578125,0.24678955972194672,0.19975294172763824,-0.23273965716362
1732873918766858800,5.445858642578125,0.28466320037841797,0.1459967941045761,-0.2577851414680481
1732873918776846800,5.455846923828125,0.32681289315223694,0.09346238523721695,-0.26083946228027344
1732873918786848000,5.465847900390625,0.3591887652873993,0.04214970022439957,-0.23884831368923187
1732873918796836000,5.475836181640625,0.3933972120285034,-0.021380282938480377,-0.15515977144241333
1732873918806867700,5.48586767578125,0.4245513379573822,-0.042760565876960754,-0.04703662544488907
1732873918816855300,5.495855224609375,0.4593706727027893,-0.0403171069920063,0.09224065393209457
1732873918826856700,5.505856689453125,0.49296826124191284,-0.03481931984424591,0.22846360504627228
1732873918836844300,5.51584423828125,0.5229006409645081,-0.0354301854968071,0.3286454975605011
1732873918846876000,5.5258759765625,0.5510004758834839,-0.036041051149368286,0.36529740691185
1732873918856833500,5.53583349609375,0.5668829679489136,-0.033597588539123535,0.3481931984424591
1732873918866865000,5.545864990234375,0.5650503635406494,-0.04642575979232788,0.25473082065582275
1732873918876853000,5.55585302734375,0.5424483418464661,-0.04092797264456749,0.1319468915462494
1732873918886854100,5.565854248046875,0.5283984541893005,-0.04642575979232788,-0.021991148591041565
1732873918896842000,5.575842041015625,0.4960225820541382,-0.0708603709936142,-0.1661553531885147
1732873918906873600,5.58587353515625,0.4697553813457489,-0.06414084881544113,-0.24373523890972137
1732873918916831000,5.5958310546875,0.45875978469848633,-0.0708603709936142,-0.24068090319633484
1732873918926862800,5.60586279296875,0.45875978469848633,-0.08307767659425735,-0.19853121042251587
1732873918936850400,5.615850341796875,0.4086688458919525,-0.09346238523721695,-0.13500121235847473
1732873918946851600,5.6258515625,0.3549126982688904,-0.0659734457731247,-0.11728613078594208
1732873918956839700,5.635839599609375,0.3170390725135803,-0.02382374368607998,-0.1215621829032898
1732873918966871000,5.64587109375,0.30604347586631775,0.060475658625364304,-0.15027284622192383
1732873918976828700,5.65582861328125,0.2938261926174164,0.1466076523065567,-0.21991148591041565
1732873918986860300,5.6658603515625,0.23396138846874237,0.18936823308467865,-0.33719760179519653
1732873918996848000,5.67584814453125,0.12278391420841217,0.13744467496871948,-0.485027015209198
1732873919006849000,5.68584912109375,-0.033597588539123535,-0.014049900695681572,-0.6212499737739563
1732873919016837000,5.695837158203125,-0.23396138846874237,-0.31093040108680725,-0.7024950385093689
1732873919026867500,5.705867431640625,-0.28588494658470154,-0.4153883755207062,-0.6047565937042236
1732873919036826000,5.715826171875,-0.23945917189121246,-0.3585779070854187,-0.3433062732219696
1732873919046856700,5.725856689453125,-0.07880161702632904,-0.2076941877603531,0.016493361443281174
1732873919056845600,5.735845458984375,0.14294247329235077,-0.07024950534105301,0.37690386176109314
1732873919066876000,5.7458759765625,0.35063666105270386,0.00855211354792118,0.6591235995292664
1732873919076834800,5.755834716796875,0.49296826124191284,0.0555887371301651,0.8313875794410706
1732873919086865000,5.765864990234375,0.5552765130996704,0.0959058403968811,0.8949176073074341
1732873919096854300,5.775854248046875,0.4990769028663635,0.08979719132184982,0.808174729347229
1732873919106856700,5.785856689453125,0.3799581825733185,0.03726277872920036,0.6212499737739563
1732873919116843300,5.79584326171875,0.22663100063800812,-0.029932396486401558,0.33292156457901
1732873919126875400,5.80587548828125,0.1362229436635971,-0.02321287989616394,-0.0403171069920063
1732873919136832300,5.815832275390625,0.11239920556545258,-0.07452555745840073,-0.3433062732219696
1732873919146863000,5.825863037109375,0.018325956538319588,-0.10567969083786011,-0.5198463201522827
1732873919156851700,5.835851806640625,-0.15943582355976105,-0.12217304855585098,-0.6835582256317139
1732873919166852600,5.8458525390625,-0.2168571650981903,-0.13011430203914642,-0.7959573864936829
1732873919176840700,5.8558408203125,-0.2223549485206604,-0.11545353382825851,-0.8918632864952087
1732873919186870800,5.865870849609375,-0.18448130786418915,-0.05375614017248154,-0.9193521738052368
1732873919196830000,5.875829833984375,-0.1264491081237793,0.028099801391363144,-0.8527678847312927
1732873919206861300,5.885861328125,-0.054367005825042725,0.10690141469240189,-0.6701191663742065
1732873919216849400,5.895849365234375,0.015271631069481373,0.19853121042251587,-0.38117989897727966
1732873919226849000,5.90584912109375,0.11423180252313614,0.30115658044815063,-0.031154127791523933
1732873919236838100,5.915838134765625,0.2840523421764374,0.4043927788734436,0.43799036741256714
1732873919246868500,5.925868408203125,0.39217549562454224,0.38667771220207214,0.6334672570228577
1732873919256827400,5.935827392578125,0.475253164768219,0.2993239760398865,0.7263187766075134
1732873919266858800,5.945858642578125,0.5051855444908142,0.21074850857257843,0.7305948138237
1732873919276846800,5.955846923828125,0.4862487316131592,0.15271630883216858,0.6475171446800232
1732873919286847500,5.965847412109375,0.44287729263305664,0.14049901068210602,0.4795292317867279
1732873919296835800,5.9758359375,0.4043927788734436,0.15454891324043274,0.23518311977386475
1732873919306867200,5.9858671875,0.37568211555480957,0.16737708449363708,-0.17409659922122955
1732873919316855600,5.99585546875,0.36102136969566345,0.1771509200334549,-0.40256020426750183
1732873919326855700,6.005855712890625,0.3628539443016052,0.1814269721508026,-0.5711590051651001
1732873919336844300,6.01584423828125,0.36529740691185,0.1771509200334549,-0.6774495840072632
1732873919346876000,6.0258759765625,0.3597996234893799,0.1569923609495163,-0.7189884185791016
1732873919356833500,6.03583349609375,0.35735616087913513,0.12767083942890167,-0.6988298296928406
1732873919366865000,6.045864990234375,0.3677408695220947,0.09651670604944229,-0.6212499737739563
1732873919376853000,6.05585302734375,0.3903428912162781,0.02687807008624077,-0.4282165467739105
1732873919386854000,6.06585400390625,0.41172316670417786,-0.012828170321881771,-0.2632829248905182
1732873919396842200,6.07584228515625,0.44837507605552673,-0.04153883829712868,-0.08796459436416626
1732873919406873600,6.08587353515625,0.47769662737846375,-0.05009094998240471,0.06414084881544113
1732873919416831000,6.0958310546875,0.485027015209198,-0.0507018156349659,0.17287486791610718
1732873919426862800,6.10586279296875,0.46303585171699524,-0.06169738993048668,0.22846360504627228
1732873919436850400,6.115850341796875,0.4105014503002167,-0.07941248267889023,0.24068090319633484
1732873919446851600,6.1258515625,0.3384193480014801,-0.09957103431224823,0.21930062770843506
1732873919456839400,6.13583935546875,0.21624629199504852,-0.13561208546161652,0.15821409225463867
1732873919466871000,6.14587109375,0.15515977144241333,-0.14233160018920898,0.11178833991289139
1732873919476828700,6.15582861328125,0.10751228034496307,-0.1368338167667389,0.06475171446800232
1732873919486860000,6.165860107421875,0.06841690838336945,-0.13866640627384186,-0.0006108652451075613
1732873919496848100,6.17584814453125,0.03726277872920036,-0.14905111491680145,-0.10690141469240189
1732873919506849000,6.18584912109375,-0.01038470957428217,-0.23335053026676178,-0.19853121042251587
1732873919516837000,6.195837158203125,-0.11667526513338089,-0.2974913716316223,-0.28649580478668213
1732873919526867500,6.205867431640625,-0.3646865487098694,-0.43676865100860596,-0.5161811113357544
1732873919536826000,6.215826171875,-0.5662720799446106,-0.588263213634491,-0.7214318513870239
1732873919546857200,6.225857177734375,-0.8093964457511902,-0.788627028465271,-0.8985827565193176
1732873919556845600,6.235845458984375,-1.0317513942718506,-0.940732479095459,-0.9608910083770752
1732873919566877000,6.245876953125,-1.1215485334396362,-0.969443142414093,-0.8240572214126587
1732873919576834800,6.255834716796875,-1.006095051765442,-0.7971791625022888,-0.46181413531303406
1732873919586865200,6.265865234375,-0.7098253965377808,-0.4856378734111786,0.06475171446800232
1732873919596853200,6.275853271484375,-0.13500121235847473,-0.03787364438176155,0.8704829812049866
1732873919606853400,6.285853271484375,0.12828169763088226,0.1918116807937622,1.2651019096374512
1732873919616842800,6.2958427734375,0.21991148591041565,0.304210901260376,1.4697418212890625
1732873919626873900,6.305873779296875,0.16493362188339233,0.2919935882091522,1.4477506875991821
1732873919636831700,6.315831787109375,-0.006108652334660292,0.16798794269561768,1.2064588069915771
1732873919646861800,6.32586181640625,-0.2528982162475586,0.03176499158143997,0.7745771408081055
1732873919656851500,6.3358515625,-0.48258355259895325,0.016493361443281174,0.20830504596233368
1732873919666851000,6.34585107421875,-0.608421802520752,0.07147123664617538,-0.4202753007411957
1732873919676840400,6.35584033203125,-0.5491678714752197,0.025045474991202354,-1.1740829944610596
1732873919686870500,6.36587060546875,-0.42149701714515686,-0.01160643994808197,-1.3200798034667969
1732873919696830000,6.375829833984375,-0.242513507604599,-0.06108652427792549,-1.1808024644851685
1732873919706860000,6.385860107421875,-0.02076941914856434,-0.06658431142568588,-0.8295549750328064
1732873919716849400,6.395849365234375,0.19486601650714874,-0.00427605677396059,-0.3744603991508484
1732873919726850300,6.405850341796875,0.34513887763023376,0.07452555745840073,0.07269296050071716
1732873919736838100,6.415838134765625,0.4294382631778717,0.16554448008537292,0.413555771112442
1732873919746869800,6.425869873046875,0.4593706727027893,0.2968805134296417,0.6530149579048157
1732873919756827400,6.435827392578125,0.43737950921058655,0.34513887763023376,0.656069278717041
1732873919766858800,6.445858642578125,0.41172316670417786,0.384845107793808,0.5821545720100403
1732873919776846800,6.455846923828125,0.384845107793808,0.36529740691185,0.45692721009254456
1732873919786847200,6.46584716796875,0.3628539443016052,0.29626965522766113,0.31520646810531616
1732873919796836000,6.475836181640625,0.35185837745666504,0.21624629199504852,0.1869247704744339
1732873919806867700,6.48586767578125,0.3335324227809906,0.14233160018920898,0.08735372871160507
1732873919816855300,6.495855224609375,0.3127630054950714,0.05742133408784866,0.02076941914856434
1732873919826856400,6.5058564453125,0.31031954288482666,0.036651913076639175,0.018936822190880775
1732873919836844300,6.51584423828125,0.313373863697052,0.05803219974040985,0.024434609338641167
1732873919846904600,6.525904541015625,0.32009339332580566,0.07757988572120667,0.04092797264456749
1732873919856833500,6.53583349609375,0.32986724376678467,0.08124507963657379,0.07452555745840073
1732873919866865000,6.545864990234375,0.3390302062034607,0.10018189996480942,0.1362229436635971
1732873919876853000,6.55585302734375,0.3390302062034607,0.12889257073402405,0.20341812074184418
1732873919886854100,6.565854248046875,0.32681289315223694,0.1563815027475357,0.2632829248905182
1732873919896842000,6.575842041015625,0.26939156651496887,0.17043140530586243,0.2993239760398865
1732873919906873600,6.58587353515625,0.22602014243602753,0.15760323405265808,0.2791654169559479
1732873919916831200,6.595831298828125,0.21441370248794556,0.14782938361167908,0.24007004499435425
1732873919926862600,6.605862548828125,0.2480112910270691,0.1716531366109848,0.21074850857257843
1732873919936850400,6.615850341796875,0.3090978264808655,0.21868975460529327,0.20525072515010834
1732873919946851600,6.6258515625,0.3732386529445648,0.26022860407829285,0.2125810980796814
1732873919956839400,6.63583935546875,0.43615779280662537,0.27977627515792847,0.22052235901355743
1732873919966871300,6.645871337890625,0.5222898125648499,0.23396138846874237,0.2028072625398636
1732873919976828700,6.65582861328125,0.5736024379730225,0.1661553531885147,0.17776179313659668
1732873919986860000,6.665860107421875,0.6328563690185547,0.07696902006864548,0.15393804013729095
1732873919996848000,6.67584814453125,0.7128797173500061,-0.031154127791523933,0.10690141469240189
1732873920006849300,6.685849365234375,0.7513642311096191,-0.051312681287527084,0.03176499158143997
1732873920016837000,6.695837158203125,0.778853178024292,-0.06108652427792549,-0.07819075137376785
1732873920026869000,6.705868896484375,0.749531626701355,-0.06963863968849182,-0.21074850857257843
1732873920036826000,6.715826171875,0.6407976150512695,0.048258353024721146,-0.3787364661693573
1732873920046858000,6.72585791015625,0.588874101638794,0.2064724564552307,-0.4740314185619354
1732873920056845600,6.735845458984375,0.5803219676017761,0.3274237811565399,-0.5797111392021179
1732873920066877000,6.745876953125,0.5742133259773254,0.33047810196876526,-0.7189884185791016
1732873920076834600,6.75583447265625,0.49357911944389343,0.2889392673969269,-0.8857545852661133
1732873920086866200,6.7658662109375,0.2974913716316223,0.13255776464939117,-1.0592403411865234
1732873920096854300,6.775854248046875,0.04642575979232788,-0.03176499158143997,-1.1966849565505981
1732873920106855200,6.785855224609375,-0.16920967400074005,-0.1160643994808197,-1.23394775390625
1732873920116843300,6.79584326171875,-0.34758231043815613,0.036651913076639175,-0.9346238374710083
1732873920126873300,6.805873291015625,-0.27977627515792847,0.21624629199504852,-0.48747047781944275
1732873920136832000,6.81583203125,-0.06169738993048668,0.3933972120285034,0.028099801391363144
1732873920146862600,6.825862548828125,0.22296582162380219,0.42699480056762695,0.4660901725292206
1732873920156851700,6.835851806640625,0.46853363513946533,0.3219259977340698,0.7464773058891296
1732873920166851600,6.8458515625,0.5516113042831421,0.22113321721553802,0.7513642311096191
1732873920176841000,6.855841064453125,0.5088507533073425,0.13011430203914642,0.5082398653030396
1732873920186871800,6.865871826171875,0.3695734739303589,-0.1007927656173706,-0.006719517521560192
1732873920196830000,6.875829833984375,0.2742784917354584,-0.25473082065582275,-0.2974913716316223
1732873920206861300,6.885861328125,0.19425514340400696,-0.33658674359321594,-0.37751471996307373
1732873920216849200,6.89584912109375,0.14782938361167908,-0.3830125033855438,-0.2932153046131134
1732873920226850300,6.905850341796875,0.1667662113904953,-0.38240164518356323,-0.11056660860776901
1732873920236838100,6.915838134765625,0.24556782841682434,-0.2889392673969269,0.10262536257505417
1732873920246868500,6.925868408203125,0.342695415019989,-0.1417207419872284,0.2834414839744568
1732873920256827400,6.935827392578125,0.4648684561252594,0.051312681287527084,0.4355469346046448
1732873920266858800,6.945858642578125,0.45204028487205505,0.15821409225463867,0.44226643443107605
1732873920276846800,6.955846923828125,0.3439171314239502,0.21868975460529327,0.3878994286060333
1732873920286847700,6.96584765625,0.1765400618314743,0.25473082065582275,0.31642818450927734
1732873920296835800,6.9758359375,-0.016493361443281174,0.1814269721508026,0.24129177629947662
1732873920306866000,6.985865966796875,-0.17776179313659668,0.028099801391363144,0.19058994948863983
1732873920316855300,6.995855224609375,-0.2474004179239273,-0.11789698898792267,0.2119702398777008
1732873920326855200,7.005855224609375,-0.24495697021484375,-0.29016098380088806,0.3781255781650543
1732873920336844300,7.01584423828125,-0.16065755486488342,-0.36651915311813354,0.5192354321479797
1732873920346875000,7.025875,-0.07941248267889023,-0.4196644127368927,0.6218608021736145
1732873920356833500,7.03583349609375,-0.01160643994808197,-0.42699480056762695,0.6542366743087769
1732873920366865000,7.045864990234375,0.012828170321881771,-0.3933972120285034,0.6163630485534668
1732873920376853000,7.05585302734375,-0.007941247895359993,-0.3170390725135803,0.5265658497810364
1732873920386854000,7.06585400390625,-0.04703662544488907,-0.25045475363731384,0.4642575979232788
1732873920396842200,7.07584228515625,-0.10445795953273773,-0.25534167885780334,0.4495968222618103
1732873920406873600,7.08587353515625,-0.18997909128665924,-0.27611109614372253,0.4795292317867279
1732873920416831000,7.0958310546875,-0.23579397797584534,-0.26083946228027344,0.5314527750015259
1732873920426861800,7.10586181640625,-0.3121521472930908,-0.2571742534637451,0.6102544069290161
1732873920436850400,7.115850341796875,-0.3952298164367676,-0.27000242471694946,0.6664539575576782
1732873920446850800,7.125850830078125,-0.47769662737846375,-0.2987131178379059,0.6701191663742065
1732873920456839700,7.135839599609375,-0.5308418869972229,-0.323147714138031,0.6035348773002625
1732873920466869800,7.145869873046875,-0.5393940210342407,-0.3072652220726013,0.44165557622909546
1732873920476828700,7.15582861328125,-0.48869219422340393,-0.1869247704744339,-0.030543262138962746
1732873920486859000,7.16585888671875,-0.46731191873550415,-0.19853121042251587,-0.3982841372489929
1732873920496848100,7.17584814453125,-0.47219884395599365,-0.15027284622192383,-0.7018841505050659
1732873920506848500,7.1858486328125,-0.5015203952789307,-0.009773843921720982,-0.9175195693969727
1732873920516837400,7.19583740234375,-0.5479460954666138,0.10995574295520782,-0.9914342761039734
1732873920526868700,7.20586865234375,-0.6010913848876953,0.19608774781227112,-0.9474520087242126
1732873920536826000,7.215826171875,-0.6194173693656921,0.20341812074184418,-0.8197811841964722
1732873920546856700,7.225856689453125,-0.5290092825889587,0.06536258012056351,-0.5186246037483215
1732873920556845600,7.235845458984375,-0.41722095012664795,-0.07819075137376785,-0.32131510972976685
1732873920566876200,7.245876220703125,-0.2987131178379059,-0.24068090319633484,-0.1661553531885147
1732873920576834800,7.255834716796875,-0.182648703455925,-0.38606682419776917,-0.0861319974064827
1732873920586865000,7.265864990234375,-0.0659734457731247,-0.44837507605552673,-0.07452555745840073
1732873920596853200,7.275853271484375,0.0403171069920063,-0.3805690407752991,-0.10384709388017654
1732873920606855000,7.28585498046875,0.13744467496871948,-0.19303341209888458,-0.14049901068210602
1732873920616842800,7.2958427734375,0.22907446324825287,0.07024950534105301,-0.14966198801994324
1732873920626874400,7.305874267578125,0.3530801236629486,0.40133845806121826,-0.07819075137376785
1732873920636831700,7.315831787109375,0.3995058834552765,0.4899139404296875,0.013439035043120384
1732873920646862800,7.32586279296875,0.40133845806121826,0.5241223573684692,0.10445795953273773
1732873920656851500,7.3358515625,0.37690386176109314,0.4862487316131592,0.16737708449363708
1732873920666851800,7.345851806640625,0.3445279896259308,0.38117989897727966,0.19608774781227112
1732873920676840400,7.35584033203125,0.3090978264808655,0.2571742534637451,0.19120082259178162
1732873920686871800,7.365871826171875,0.28099802136421204,0.14844025671482086,0.15393804013729095
1732873920696830000,7.375829833984375,0.23579397797584534,-0.006108652334660292,0.05925392732024193
1732873920706861000,7.385861083984375,0.2070833146572113,-0.039706241339445114,-0.012828170321881771
1732873920716849400,7.395849365234375,0.19792033731937408,0.036651913076639175,-0.06902777403593063
1732873920726849500,7.405849609375,0.1966986060142517,0.1667662113904953,-0.1062905490398407
1732873920736838100,7.415838134765625,0.22602014243602753,0.3280346393585205,-0.09773843735456467
1732873920746869800,7.425869873046875,0.2822197377681732,0.4593706727027893,-0.03848451003432274
1732873920756827400,7.435827392578125,0.3500257730484009,0.5424483418464661,0.03176499158143997
1732873920766858800,7.445858642578125,0.455705463886261,0.4404338300228119,0.1368338167667389
1732873920776846800,7.455846923828125,0.46731191873550415,0.26939156651496887,0.22663100063800812
1732873920786847500,7.465847412109375,0.42271876335144043,0.11667526513338089,0.3066543638706207
1732873920796835800,7.4758359375,0.36713001132011414,0.059864792972803116,0.3897320330142975
1732873920806867200,7.4858671875,0.3243694305419922,0.11423180252313614,0.4550946056842804
1732873920816855300,7.495855224609375,0.31031954288482666,0.20097467303276062,0.48319441080093384
1732873920826856000,7.50585595703125,0.31520646810531616,0.27977627515792847,0.48197266459465027
1732873920836844300,7.51584423828125,0.3017674386501312,0.38117989897727966,0.4709770977497101
1732873920846875400,7.52587548828125,0.28466320037841797,0.5277875661849976,0.394618958234787
1732873920856833300,7.535833251953125,0.2773328125476837,0.578489363193512,0.30115658044815063
1732873920866864400,7.545864501953125,0.23273965716362,0.5656611919403076,0.18875735998153687
1732873920876853000,7.55585302734375,0.13316862285137177,0.4795292317867279,0.06536258012056351
1732873920886853400,7.565853271484375,-0.02076941914856434,0.31459560990333557,-0.05497787147760391
1732873920896842000,7.575842041015625,-0.18875735998153687,0.1270599663257599,-0.15332718193531036
1732873920906873600,7.58587353515625,-0.32559117674827576,-0.09224065393209457,-0.21135938167572021
1732873920916831000,7.5958310546875,-0.3830125033855438,-0.4349360466003418,-0.23518311977386475
1732873920926862600,7.605862548828125,-0.3732386529445648,-0.6035348773002625,-0.20830504596233368
1732873920936850400,7.615850341796875,-0.35246923565864563,-0.7122688889503479,-0.15577064454555511
1732873920946851600,7.6258515625,-0.303600013256073,-0.7764097452163696,-0.10934487730264664
1732873920956839700,7.635839599609375,-0.2431243658065796,-0.7874053120613098,-0.09407325088977814
1732873920966871000,7.64587109375,-0.2028072625398636,-0.7507534027099609,-0.09224065393209457
1732873920976828700,7.65582861328125,-0.18570303916931152,-0.6914994716644287,-0.08002334833145142
1732873920986860000,7.665860107421875,-0.16310101747512817,-0.5473352670669556,0.0024434609804302454
1732873920996848000,7.67584814453125,-0.15393804013729095,-0.42760565876960754,0.0910189226269722
1732873921006849300,7.685849365234375,-0.17287486791610718,-0.3494149148464203,0.1820378452539444
1732873921016837000,7.695837158203125,-0.2223549485206604,-0.33292156457901,0.24068090319633484
1732873921026868700,7.70586865234375,-0.2779437005519867,-0.33719760179519653,0.23029619455337524
1732873921036826000,7.715826171875,-0.32559117674827576,-0.28466320037841797,0.15332718193531036
1732873921046858000,7.72585791015625,-0.36224308609962463,-0.16432274878025055,0.06352998316287994
1732873921056845600,7.735845458984375,-0.3836233615875244,0.018325956538319588,0.02382374368607998
1732873921066876200,7.745876220703125,-0.29993483424186707,0.2773328125476837,0.06841690838336945
1732873921076834800,7.755834716796875,-0.16554448008537292,0.4147774875164032,0.1765400618314743
1732873921086865000,7.765864990234375,-0.02382374368607998,0.42149701714515686,0.303600013256073
1732873921096854300,7.775854248046875,0.07941248267889023,0.2528982162475586,0.43188172578811646
1732873921106855200,7.785855224609375,0.11239920556545258,-0.04642575979232788,0.5827654600143433
1732873921116843300,7.79584326171875,0.05253441259264946,-0.3536909818649292,0.7293730974197388
1732873921126873300,7.805873291015625,-0.05497787147760391,-0.6059783101081848,0.7837401032447815
1732873921136832300,7.815832275390625,-0.19425514340400696,-0.7812966704368591,0.6053674817085266
1732873921146862600,7.825862548828125,-0.22296582162380219,-0.7312057018280029,0.3170390725135803
1732873921156851700,7.835851806640625,-0.21868975460529327,-0.5455026626586914,-0.05314527451992035
1732873921166851600,7.8458515625,-0.20525072515010834,-0.252287358045578,-0.4288274049758911
1732873921176840700,7.8558408203125,-0.18997909128665924,0.0757472887635231,-0.7446447610855103
1732873921186872300,7.865872314453125,-0.18509216606616974,0.34513887763023376,-0.9364564418792725
1732873921196830000,7.875829833984375,-0.18814650177955627,0.5125159621238708,-0.998153805732727
1732873921206861300,7.885861328125,-0.242513507604599,0.5051855444908142,-0.8191702961921692
1732873921216849700,7.895849609375,-0.30054569244384766,0.33475416898727417,-0.5522221922874451
1732873921226850600,7.9058505859375,-0.33475416898727417,0.1215621829032898,-0.22418753802776337
1732873921236838100,7.915838134765625,-0.31520646810531616,-0.04581489413976669,0.09346238523721695
1732873921246870000,7.9258701171875,-0.27122417092323303,-0.1569923609495163,0.33169981837272644
1732873921256827400,7.935827392578125,-0.23151792585849762,-0.21013765037059784,0.4544837474822998
1732873921266858200,7.945858154296875,-0.2015855312347412,-0.20830504596233368,0.4697553813457489
1732873921276846800,7.955846923828125,-0.19914206862449646,-0.18936823308467865,0.39767327904701233
1732873921286847500,7.965847412109375,-0.22846360504627228,-0.11850785464048386,0.21074850857257843
1732873921296836000,7.975836181640625,-0.2480112910270691,-0.08368854224681854,0.07696902006864548
1732873921306867200,7.9858671875,-0.2681698501110077,-0.05925392732024193,-0.05864306539297104
1732873921316855600,7.99585546875,-0.2718350291252136,-0.009162978269159794,-0.17776179313659668
1732873921326856000,8.00585595703125,-0.2535090744495392,0.05864306539297104,-0.2528982162475586
1732873921336844300,8.01584423828125,-0.23029619455337524,0.09773843735456467,-0.2724458873271942
1732873921346876200,8.025876220703125,-0.22479841113090515,0.09285151958465576,-0.24068090319633484
1732873921356833300,8.035833251953125,-0.182648703455925,0.08796459436416626,-0.10567969083786011
1732873921366865000,8.045864990234374,-0.14049901068210602,0.07208210229873657,-0.0006108652451075613
1732873921376853000,8.05585302734375,-0.10690141469240189,0.039706241339445114,0.07452555745840073
1732873921386854100,8.065854248046875,-0.08307767659425735,0.024434609338641167,0.10934487730264664
1732873921396842200,8.07584228515625,-0.06536258012056351,0.04459316283464432,0.11423180252313614
1732873921406873600,8.08587353515625,-0.039095375686883926,0.08246681094169617,0.1111774742603302
1732873921416831000,8.0958310546875,-0.009162978269159794,0.11301007121801376,0.11301007121801376
1732873921426862600,8.105862548828124,0.02687807008624077,0.16371189057826996,0.18020524084568024
1732873921436850400,8.115850341796875,0.04337143152952194,0.18631389737129211,0.26633724570274353
1732873921446851600,8.1258515625,0.03481931984424591,0.18081611394882202,0.36102136969566345
1732873921456839400,8.13583935546875,-0.010995574295520782,0.17470745742321014,0.43249258399009705
1732873921466871300,8.145871337890625,-0.06108652427792549,0.16310101747512817,0.46853363513946533
1732873921476828700,8.15582861328125,-0.09040805697441101,0.15027284622192383,0.45326200127601624
1732873921486860000,8.165860107421874,-0.08307767659425735,0.1563815027475357,0.39095374941825867
1732873921496848100,8.17584814453125,-0.059864792972803116,0.15454891324043274,0.29504790902137756
1732873921506849000,8.18584912109375,-0.03237585723400116,0.036651913076639175,0.09346238523721695
1732873921516837400,8.19583740234375,-0.004886921960860491,-0.0861319974064827,-0.04886921867728233
1732873921526868700,8.20586865234375,0.04764748737215996,-0.1918116807937622,-0.182648703455925
1732873921536826400,8.215826416015625,0.10384709388017654,-0.26083946228027344,-0.2883284091949463
1732873921546857700,8.225857666015624,0.16798794269561768,-0.304210901260376,-0.3530801236629486
1732873921556845600,8.235845458984375,0.252287358045578,-0.303600013256073,-0.37140607833862305
1732873921566877400,8.24587744140625,0.35613444447517395,-0.23457226157188416,-0.3280346393585205
1732873921576834800,8.255834716796874,0.44654250144958496,-0.12522737681865692,-0.20586158335208893
1732873921586866400,8.265866455078125,0.39706242084503174,-0.13805554807186127,-0.13316862285137177
1732873921596853200,8.275853271484374,0.2681698501110077,-0.23579397797584534,-0.08796459436416626
1732873921606855000,8.28585498046875,0.12522737681865692,-0.36713001132011414,-0.07696902006864548
1732873921616842800,8.2958427734375,0.01466076634824276,-0.4538728892803192,-0.08124507963657379
1732873921626874400,8.305874267578124,-0.03176499158143997,-0.4550946056842804,-0.060475658625364304
1732873921636831700,8.315831787109374,-0.01038470957428217,-0.3799581825733185,0.02932153269648552
1732873921646863000,8.325863037109375,0.11667526513338089,-0.20830504596233368,0.3488040566444397
1732873921656851500,8.3358515625,0.21380282938480377,-0.10323622822761536,0.6285803318023682
1732873921666852400,8.345852294921874,0.304210901260376,-0.039095375686883926,0.8772025108337402
1732873921676840400,8.35584033203125,0.37568211555480957,0.08368854224681854,1.047023057937622
1732873921686871800,8.365871826171874,0.4050036668777466,0.1215621829032898,1.1252137422561646
1732873921696830000,8.375829833984374,0.37568211555480957,0.036041051149368286,1.083064079284668
1732873921706860500,8.385860595703125,0.26572638750076294,-0.12034045159816742,0.931569516658783
1732873921716849200,8.39584912109375,0.08918632566928864,-0.28466320037841797,0.6976081132888794
1732873921726849500,8.405849609375,-0.15882496535778046,-0.3628539443016052,0.24495697021484375
1732873921736838400,8.41583837890625,-0.24373523890972137,-0.3225368559360504,-0.06780604273080826
1732873921746868200,8.4258681640625,-0.24617868661880493,-0.20586158335208893,-0.3182607889175415
1732873921756827400,8.435827392578124,-0.20525072515010834,-0.03237585723400116,-0.46364670991897583
1732873921766858800,8.445858642578125,-0.15760323405265808,0.07269296050071716,-0.5094616413116455
1732873921776846800,8.455846923828124,-0.11484266817569733,0.10018189996480942,-0.47342056035995483
1732873921786847700,8.46584765625,-0.07269296050071716,0.09773843735456467,-0.384845107793808
1732873921796836000,8.475836181640625,-0.0006108652451075613,0.05803219974040985,-0.2724458873271942
1732873921806867500,8.485867431640624,0.04459316283464432,0.02871066704392433,-0.2370157092809677
1732873921816855300,8.495855224609375,0.08368854224681854,0,-0.2376265823841095
1732873921826856400,8.5058564453125,0.11239920556545258,-0.02687807008624077,-0.2626720666885376
1732873921836844300,8.51584423828125,0.13866640627384186,-0.04092797264456749,-0.2919935882091522
1732873921846903600,8.525903564453126,0.1563815027475357,-0.030543262138962746,-0.3188716471195221
1732873921856833300,8.535833251953125,0.16432274878025055,-0.00427605677396059,-0.34147366881370544
1732873921866864400,8.545864501953124,0.15454891324043274,-0.003054326167330146,-0.37140607833862305
1732873921876853000,8.55585302734375,0.12767083942890167,-0.021991148591041565,-0.36529740691185
1732873921886853400,8.565853271484375,0.08857546001672745,-0.06536258012056351,-0.33536502718925476
1732873921896842000,8.575842041015624,0.04153883829712868,-0.13255776464939117,-0.2877175211906433
1732873921906872800,8.585872802734375,0.006108652334660292,-0.18875735998153687,-0.22968533635139465
1732873921916831000,8.5958310546875,-0.014049900695681572,-0.2076941877603531,-0.1722639948129654
1732873921926861800,8.60586181640625,-0.014049900695681572,-0.19914206862449646,-0.13988813757896423
1732873921936850400,8.615850341796875,-0.006719517521560192,-0.16859880089759827,-0.13866640627384186
1732873921946851600,8.6258515625,0.01771509274840355,-0.08491026610136032,-0.16920967400074005
1732873921956839400,8.63583935546875,0.04337143152952194,-0.006719517521560192,-0.16859880089759827
1732873921966871000,8.64587109375,0.08124507963657379,0.07819075137376785,-0.1313360333442688
1732873921976828700,8.65582861328125,0.12278391420841217,0.16737708449363708,-0.0555887371301651
1732873921986860000,8.665860107421874,0.15821409225463867,0.24129177629947662,0.039095375686883926
1732873921996848400,8.675848388671875,0.1869247704744339,0.28527405858039856,0.13255776464939117
1732873922006848500,8.6858486328125,0.19058994948863983,0.2889392673969269,0.19303341209888458
1732873922016837400,8.69583740234375,0.13011430203914642,0.24556782841682434,0.182648703455925
1732873922026868700,8.70586865234375,0.04214970022439957,0.1514945775270462,0.10323622822761536
1732873922036826000,8.715826171875,-0.054367005825042725,0.024434609338641167,-0.00733038317412138
1732873922046858000,8.72585791015625,-0.10262536257505417,-0.05314527451992035,-0.11484266817569733
1732873922056845600,8.735845458984375,-0.10384709388017654,-0.06475171446800232,-0.19486601650714874
1732873922066877200,8.745877197265624,-0.06719517707824707,-0.014049900695681572,-0.24190263450145721
1732873922076834600,8.75583447265625,-0.00427605677396059,0.06902777403593063,-0.251676470041275
1732873922086866200,8.7658662109375,0.07147123664617538,0.22907446324825287,-0.21135938167572021
1732873922096854300,8.775854248046874,0.07452555745840073,0.2681698501110077,-0.1765400618314743
1732873922106855200,8.785855224609374,0.028099801391363144,0.24129177629947662,-0.16371189057826996
1732873922116843300,8.79584326171875,-0.04764748737215996,0.16798794269561768,-0.16493362188339233
1732873922126874600,8.80587451171875,-0.12522737681865692,0.06291911751031876,-0.16798794269561768
1732873922136832300,8.815832275390624,-0.19058994948863983,-0.054367005825042725,-0.17104226350784302
1732873922146863900,8.82586376953125,-0.2583959996700287,-0.19608774781227112,-0.1918116807937622
1732873922156851700,8.835851806640624,-0.3292563557624817,-0.3488040566444397,-0.25045475363731384
1732873922166852600,8.8458525390625,-0.4092797040939331,-0.4184426963329315,-0.3597996234893799
1732873922176840700,8.8558408203125,-0.3787364661693573,-0.2883284091949463,-0.33658674359321594
1732873922186872300,8.865872314453124,-0.24556782841682434,-0.0012217304902151227,-0.1472185254096985
1732873922196830000,8.875829833984374,-0.09773843735456467,0.43799036741256714,0.18570303916931152
1732873922206861300,8.885861328125,0.048258353024721146,0.759916365146637,0.5766568183898926
1732873922216849400,8.895849365234374,0.13988813757896423,0.8063421249389648,0.9431759119033813
1732873922226850300,8.905850341796874,0.13561208546161652,0.5754350423812866,1.2192870378494263
1732873922236838100,8.915838134765625,-0.1215621829032898,0.10812314599752426,1.3878858089447021
1732873922246868500,8.925868408203126,-0.35552358627319336,-0.19547687470912933,1.2932016849517822
1732873922256827400,8.935827392578124,-0.5009095072746277,-0.5100724697113037,1.0476338863372803
1732873922266857500,8.945857421875,-0.5693264007568359,-0.7122688889503479,0.6914994716644287
1732873922276846800,8.955846923828124,-0.5699372887611389,-0.7409795522689819,0.2590068578720093
1732873922286847500,8.965847412109374,-0.5210680365562439,-0.5766568183898926,-0.20586158335208893
1732873922296836000,8.975836181640625,-0.42088615894317627,-0.26633724570274353,-0.6328563690185547
1732873922306867500,8.985867431640624,-0.1368338167667389,0.20586158335208893,-1.0286970138549805
1732873922316855600,8.99585546875,0.031154127791523933,0.43249258399009705,-1.0598511695861816
1732873922326856400,9.0058564453125,0.12217304855585098,0.5497786998748779,-0.9346238374710083
1732873922336844300,9.01584423828125,0.1270599663257599,0.5687155723571777,-0.7086036801338196
1732873922346876200,9.025876220703125,0.0659734457731247,0.5057964324951172,-0.4434881806373596
1732873922356833300,9.035833251953125,-0.00733038317412138,0.3543018400669098,-0.18936823308467865
1732873922366865000,9.045864990234374,-0.06780604273080826,0.1667662113904953,0.033597588539123535
1732873922376853000,9.05585302734375,-0.11789698898792267,0.024434609338641167,0.19853121042251587
1732873922386853400,9.065853271484375,-0.1472185254096985,-0.05314527451992035,0.28038713335990906
1732873922396842200,9.07584228515625,-0.1258382350206375,-0.04886921867728233,0.22540926933288574
1732873922406873000,9.085873046875,-0.08674286305904388,-0.036041051149368286,0.10567969083786011
1732873922416831000,9.0958310546875,-0.051312681287527084,-0.02076941914856434,-0.03237585723400116
1732873922426862300,9.1058623046875,-0.02932153269648552,-0.004886921960860491,-0.16982053220272064
1732873922436850700,9.1158505859375,-0.022602014243602753,0.003054326167330146,-0.2871066629886627
1732873922446851600,9.1258515625,-0.033597588539123535,0.00366519158706069,-0.375071257352829
1732873922456839400,9.13583935546875,-0.05864306539297104,-0.05619960278272629,-0.403781920671463
1732873922466871000,9.14587109375,-0.07391469180583954,-0.1111774742603302,-0.3585779070854187
1732873922476828700,9.15582861328125,-0.06352998316287994,-0.15760323405265808,-0.28527405858039856
1732873922486860000,9.165860107421874,-0.03481931984424591,-0.17531833052635193,-0.19792033731937408
1732873922496848100,9.17584814453125,-0.005497787147760391,-0.17837265133857727,-0.10384709388017654
1732873922506849000,9.18584912109375,0.021991148591041565,-0.14355333149433136,-0.019547687843441963
1732873922516837400,9.19583740234375,0.05497787147760391,-0.08796459436416626,0.05925392732024193
1732873922526868700,9.20586865234375,0.09407325088977814,0.05192354694008827,0.17531833052635193
1732873922536826000,9.215826171875,0.10567969083786011,0.13744467496871948,0.2528982162475586
1732873922546857700,9.225857666015624,0.10262536257505417,0.17776179313659668,0.32009339332580566
1732873922556845800,9.235845703125,0.08002334833145142,0.16798794269561768,0.35552358627319336
1732873922566876400,9.24587646484375,0.03481931984424591,0.11911872029304504,0.3439171314239502
1732873922576834800,9.255834716796874,-0.03726277872920036,0.00733038317412138,0.27122417092323303
1732873922586865700,9.26586572265625,-0.11484266817569733,-0.15332718193531036,0.14416420459747314
1732873922596853200,9.275853271484374,-0.21563543379306793,-0.26939156651496887,-0.02626720629632473
1732873922606855000,9.28585498046875,-0.3591887652873993,-0.3701843321323395,-0.3084869384765625
1732873922616842800,9.2958427734375,-0.38117989897727966,-0.37140607833862305,-0.4489859640598297
1732873922626874400,9.305874267578124,-0.30115658044815063,-0.32131510972976685,-0.5247332453727722
1732873922636831700,9.315831787109374,-0.11667526513338089,-0.20586158335208893,-0.5442809462547302
1732873922646863000,9.325863037109375,0.13439035415649414,-0.01466076634824276,-0.5112941861152649
1732873922656851500,9.3358515625,0.3927863538265228,0.18875735998153687,-0.423329621553421
1732873922666852400,9.345852294921874,0.5913175344467163,0.3378084897994995,-0.30054569244384766
1732873922676840400,9.35584033203125,0.6835582256317139,0.41172316670417786,-0.13072516024112701
1732873922686872000,9.3658720703125,0.6010913848876953,0.3188716471195221,-0.08429940044879913
1732873922696830000,9.375829833984374,0.4153883755207062,0.1014036312699318,-0.11056660860776901
1732873922706861300,9.385861328125,0.15943582355976105,-0.18448130786418915,-0.2064724564552307
1732873922716849400,9.395849365234374,-0.06963863968849182,-0.3927863538265228,-0.304210901260376
1732873922726849800,9.405849853515624,-0.15577064454555511,-0.44654250144958496,-0.27550023794174194
1732873922736838100,9.415838134765625,-0.06719517707824707,-0.3237585723400116,-0.02871066704392433
1732873922746868700,9.42586865234375,0.35674530267715454,0.025045474991202354,0.7397578358650208
1732873922756827400,9.435827392578124,0.6481280326843262,0.21807889640331268,1.320690631866455
1732873922766858800,9.445858642578125,0.7965682744979858,0.28099802136421204,1.7599027156829834
1732873922776847000,9.45584716796875,0.749531626701355,0.21441370248794556,1.9627100229263306
1732873922786846500,9.465846435546876,0.5650503635406494,0.06108652427792549,1.9089539051055908
1732873922796836000,9.475836181640625,0.29504790902137756,-0.13561208546161652,1.5931365489959717
1732873922806867200,9.4858671875,0.02015855349600315,-0.3341432809829712,1.0506882667541504
1732873922816507600,9.495507568359375,-0.1667662113904953,-0.42088615894317627,0.34208452701568604
1732873922826855200,9.505855224609375,-0.21380282938480377,-0.34758231043815613,-0.7812966704368591
1732873922836844300,9.51584423828125,-0.15760323405265808,-0.15393804013729095,-1.3213015794754028
1732873922846874600,9.52587451171875,-0.05497787147760391,0.05497787147760391,-1.5992451906204224
1732873922856833300,9.535833251953125,0.10384709388017654,0.12095131725072861,-1.607797384262085
1732873922866865000,9.545864990234374,0.2626720666885376,0.1014036312699318,-1.3744467496871948
1732873922876853000,9.55585302734375,0.3689626157283783,0.0910189226269722,-0.9914342761039734
1732873922886854000,9.56585400390625,0.4196644127368927,0.1062905490398407,-0.578489363193512
1732873922896842200,9.57584228515625,0.43249258399009705,0.11850785464048386,-0.07513642311096191
1732873922906873600,9.58587353515625,0.4141666293144226,0.11484266817569733,0.11728613078594208
1732873922916831000,9.5958310546875,0.3732386529445648,0.11178833991289139,0.18875735998153687
1732873922926862800,9.60586279296875,0.30482175946235657,0.11484266817569733,0.16737708449363708
1732873922936850700,9.6158505859375,0.23457226157188416,0.1014036312699318,0.09224065393209457
1732873922946851000,9.62585107421875,0.1771509200334549,0.056810468435287476,0.00733038317412138
1732873922956839400,9.63583935546875,0.1368338167667389,0.009773843921720982,-0.0555887371301651
1732873922966870500,9.64587060546875,0.10995574295520782,-0.039706241339445114,-0.07880161702632904
1732873922976828700,9.65582861328125,0.0959058403968811,-0.05803219974040985,-0.07513642311096191
1732873922986859500,9.665859619140624,0.08552113175392151,-0.07452555745840073,-0.08368854224681854
1732873922996848000,9.67584814453125,0.09162978827953339,-0.07757988572120667,-0.11850785464048386
1732873923006848500,9.6858486328125,0.11545353382825851,-0.05253441259264946,-0.1716531366109848
1732873923016837400,9.69583740234375,0.14782938361167908,-0.02015855349600315,-0.21380282938480377
1732873923026868700,9.70586865234375,0.17043140530586243,0.009773843921720982,-0.242513507604599
1732873923036826000,9.715826171875,0.17837265133857727,0.03787364438176155,-0.25473082065582275
1732873923046857500,9.725857421875,0.17348572611808777,0.0555887371301651,-0.2370157092809677
1732873923056845600,9.735845458984375,0.15760323405265808,0.056810468435287476,-0.2028072625398636
1732873923066877200,9.745877197265624,0.13561208546161652,0.04459316283464432,-0.15760323405265808
1732873923076834600,9.75583447265625,0.11423180252313614,0.021991148591041565,-0.10751228034496307
1732873923086866200,9.7658662109375,0.08735372871160507,-0.013439035043120384,-0.0507018156349659
1732873923096854300,9.775854248046874,0.060475658625364304,-0.05864306539297104,0
1732873923106855200,9.785855224609374,0.05314527451992035,-0.0861319974064827,0.03237585723400116
1732873923116843300,9.79584326171875,0.0861319974064827,-0.09040805697441101,0.04092797264456749
1732873923126875000,9.805875,0.1160643994808197,-0.07635815441608429,0.025045474991202354
1732873923136832300,9.815832275390624,0.13255776464939117,-0.039095375686883926,0.009162978269159794
1732873923146864000,9.825864013671875,0.1368338167667389,0.012828170321881771,0.007941247895359993
1732873923156851700,9.835851806640624,0.10873401165008545,0.04703662544488907,0.009773843921720982
1732873923166852900,9.845852783203124,0.05619960278272629,0.045204028487205505,-0.00427605677396059
1732873923176840700,9.8558408203125,-0.00855211354792118,0.036041051149368286,-0.039095375686883926
1732873923186872300,9.865872314453124,-0.10995574295520782,-0.00366519158706069,-0.048258353024721146
1732873923196830000,9.875829833984374,-0.1362229436635971,-0.02932153269648552,0.045204028487205505
1732873923206861600,9.885861572265625,-0.11545353382825851,-0.06352998316287994,0.2321287989616394
1732873923216849400,9.895849365234374,-0.07880161702632904,-0.14538592100143433,0.455705463886261
1732873923226850600,9.9058505859375,-0.06963863968849182,-0.26511552929878235,0.646295428276062
1732873923236838100,9.915838134765625,-0.09896016865968704,-0.3781255781650543,0.7556403279304504
1732873923246869800,9.925869873046874,-0.1319468915462494,-0.4098905920982361,0.7910705208778381
1732873923256827400,9.935827392578124,-0.1313360333442688,-0.3597996234893799,0.8057312369346619
1732873923266858800,9.945858642578125,-0.12461651116609573,-0.26145032048225403,0.8808676600456238
1732873923276846800,9.955846923828124,-0.15515977144241333,-0.22846360504627228,0.9657779335975647
1732873923286847700,9.96584765625,-0.20097467303276062,-0.24617868661880493,1.0348057746887207
1732873923296836000,9.975836181640625,-0.23640485107898712,-0.29565876722335815,1.035416603088379
1732873923306867500,9.985867431640624,-0.24434609711170197,-0.3433062732219696,0.9358455538749695
1732873923316855600,9.99585546875,-0.21807889640331268,-0.35735616087913513,0.7330383062362671
1732873923326855200,10.005855224609375,-0.15515977144241333,-0.32620203495025635,0.4502076804637909
1732873923336844300,10.01584423828125,-0.04764748737215996,-0.15943582355976105,-0.039706241339445114
1732873923346876200,10.025876220703125,0.01771509274840355,0.006108652334660292,-0.3378084897994995
1732873923356833300,10.035833251953125,0.08429940044879913,0.14966198801994324,-0.5546656250953674
1732873923366865000,10.045864990234374,0.13316862285137177,0.27488934993743896,-0.6707300543785095
1732873923376853000,10.05585302734375,0.14905111491680145,0.3500257730484009,-0.675006091594696
1732873923386854000,10.06585400390625,0.13439035415649414,0.4050036668777466,-0.5968153476715088
1732873923396842200,10.07584228515625,0.1014036312699318,0.4440990388393402,-0.4807509481906891
1732873923406873600,10.08587353515625,0.018936822190880775,0.4447098970413208,-0.304210901260376
1732873923416831000,10.0958310546875,-0.0507018156349659,0.4141666293144226,-0.20891591906547546
1732873923426862600,10.105862548828124,-0.11667526513338089,0.3793473243713379,-0.1362229436635971
1732873923436850700,10.1158505859375,-0.16249015927314758,0.3384193480014801,-0.09468411654233932
1732873923446851000,10.12585107421875,-0.17898350954055786,0.2993239760398865,-0.08674286305904388
1732873923456839400,10.13583935546875,-0.16065755486488342,0.2828305959701538,-0.10201449692249298
1732873923466870500,10.14587060546875,-0.12522737681865692,0.2779437005519867,-0.13744467496871948
1732873923476828700,10.15582861328125,-0.08979719132184982,0.2687807083129883,-0.19120082259178162
1732873923486859800,10.16585986328125,-0.06536258012056351,0.252287358045578,-0.2816088795661926
1732873923496848100,10.17584814453125,-0.06719517707824707,0.23457226157188416,-0.33597588539123535
1732873923506848500,10.1858486328125,-0.08674286305904388,0.19975294172763824,-0.3689626157283783
1732873923516837400,10.19583740234375,-0.12339477986097336,0.15760323405265808,-0.3799581825733185
1732873923526868700,10.20586865234375,-0.15821409225463867,0.11484266817569733,-0.36529740691185
1732873923536826400,10.215826416015625,-0.17531833052635193,0.08124507963657379,-0.3341432809829712
1732873923546858000,10.22585791015625,-0.17592918872833252,0.05192354694008827,-0.2938261926174164
1732873923556845800,10.235845703125,-0.14538592100143433,0.02321287989616394,-0.22602014243602753
1732873923566877000,10.245876953125,-0.10018189996480942,0.02382374368607998,-0.1612684279680252
1732873923576834800,10.255834716796874,-0.03420845419168472,0.03481931984424591,-0.07941248267889023
1732873923586866400,10.265866455078125,0.04948008432984352,0.060475658625364304,0.02382374368607998
1732873923596853200,10.275853271484374,0.12339477986097336,0.09346238523721695,0.14416420459747314
1732873923606855000,10.28585498046875,0.17043140530586243,0.11056660860776901,0.25045475363731384
1732873923616842800,10.2958427734375,0.17898350954055786,0.1014036312699318,0.3170390725135803
1732873923626873600,10.30587353515625,0.1062905490398407,0.04398229718208313,0.32070425152778625
1732873923636831700,10.315831787109374,0.029932396486401558,-0.02076941914856434,0.27061331272125244
1732873923646863000,10.325863037109375,-0.05925392732024193,-0.08552113175392151,0.1966986060142517
1732873923656851500,10.3358515625,-0.15760323405265808,-0.14782938361167908,0.11362093687057495
1732873923666852600,10.3458525390625,-0.25473082065582275,-0.2076941877603531,0.019547687843441963
1732873923676840400,10.35584033203125,-0.32498031854629517,-0.252287358045578,-0.07269296050071716
1732873923686872000,10.3658720703125,-0.33047810196876526,-0.2565633952617645,-0.13805554807186127
1732873923696830000,10.375829833984374,-0.25534167885780334,-0.21074850857257843,-0.16554448008537292
1732873923706861300,10.385861328125,-0.006108652334660292,-0.07452555745840073,-0.1270599663257599
1732873923716849400,10.395849365234374,0.2076941877603531,-0.014049900695681572,-0.07269296050071716
1732873923726850600,10.4058505859375,0.3903428912162781,0.05314527451992035,-0.009162978269159794
1732873923736838100,10.415838134765625,0.49785518646240234,0.1368338167667389,0.036651913076639175
1732873923746870000,10.4258701171875,0.5320636034011841,0.1918116807937622,0.05253441259264946
1732873923756827400,10.435827392578124,0.4996877610683441,0.2168571650981903,0.04581489413976669
1732873923766859000,10.44585888671875,0.40744712948799133,0.19792033731937408,0.02382374368607998
1732873923776846800,10.455846923828124,0.2223549485206604,0.07819075137376785,-0.02382374368607998
1732873923786848000,10.465847900390624,0.1264491081237793,-0.021991148591041565,-0.02321287989616394
1732873923796836000,10.475836181640625,0.10201449692249298,-0.07024950534105301,0.05619960278272629
1732873923806866200,10.4858662109375,0.1661553531885147,-0.05192354694008827,0.24190263450145721
1732873923816855300,10.495855224609375,0.2736676335334778,-0.021991148591041565,0.5271766781806946
1732873923826856400,10.5058564453125,0.375071257352829,-0.004886921960860491,0.8533787727355957
1732873923836844300,10.51584423828125,0.413555771112442,-0.03726277872920036,1.1368201971054077
1732873923846904300,10.525904296875,0.3683517575263977,-0.12400564551353455,1.3213015794754028
1732873923856833300,10.535833251953125,0.2889392673969269,-0.1667662113904953,1.2260065078735352
1732873923866864400,10.545864501953124,0.17776179313659668,-0.19120082259178162,0.9492846131324768
1732873923876853000,10.55585302734375,0.054367005825042725,-0.192422553896904,0.5192354321479797
1732873923886854000,10.56585400390625,-0.04948008432984352,-0.14538592100143433,0.01160643994808197
1732873923896842000,10.575842041015624,-0.11545353382825851,-0.07696902006864548,-0.4746423065662384
1732873923906873600,10.58587353515625,-0.14355333149433136,-0.02076941914856434,-0.8283332586288452
1732873923916831000,10.5958310546875,-0.1411098688840866,-0.014049900695681572,-0.9920451641082764
1732873923926862600,10.605862548828124,-0.08185594528913498,-0.08552113175392151,-0.931569516658783
1732873923936850700,10.6158505859375,-0.012828170321881771,-0.15760323405265808,-0.7660250067710876
1732873923946851600,10.6258515625,0.07941248267889023,-0.20036379992961884,-0.5754350423812866
1732873923956839400,10.63583935546875,0.1814269721508026,-0.2070833146572113,-0.4105014503002167
1732873923966871000,10.64587109375,0.2736676335334778,-0.17959438264369965,-0.29565876722335815
1732873923976828700,10.65582861328125,0.3378084897994995,-0.1270599663257599,-0.22602014243602753
1732873923986860300,10.6658603515625,0.3738495409488678,-0.07208210229873657,-0.19364428520202637
1732873923996848000,10.67584814453125,0.38240164518356323,-0.0006108652451075613,-0.18631389737129211
1732873924006848800,10.685848876953125,0.3628539443016052,0.02076941914856434,-0.20036379992961884
1732873924016837400,10.69583740234375,0.32620203495025635,0.02932153269648552,-0.2125810980796814
1732873924026868200,10.7058681640625,0.27122417092323303,0.031154127791523933,-0.21502456068992615
1732873924036826000,10.715826171875,0.20097467303276062,0.004886921960860491,-0.2064724564552307
1732873924046857200,10.725857177734374,0.1270599663257599,-0.036651913076639175,-0.18509216606616974
1732873924056845600,10.735845458984375,0.05314527451992035,-0.07819075137376785,-0.16249015927314758
1732873924066876700,10.745876708984374,-0.022602014243602753,-0.12522737681865692,-0.14966198801994324
1732873924076834600,10.75583447265625,-0.0555887371301651,-0.13561208546161652,-0.16982053220272064
1732873924086865700,10.76586572265625,-0.0861319974064827,-0.12400564551353455,-0.21807889640331268
1732873924096854300,10.775854248046874,-0.10934487730264664,-0.1007927656173706,-0.27122417092323303
1732873924106855200,10.785855224609374,-0.12217304855585098,-0.07208210229873657,-0.30482175946235657
1732873924116843300,10.79584326171875,-0.12339477986097336,-0.03298672288656235,-0.29626965522766113
1732873924126875000,10.805875,-0.11545353382825851,0.015882495790719986,-0.23945917189121246
1732873924136832300,10.815832275390624,-0.10384709388017654,0.07269296050071716,-0.14049901068210602
1732873924146863900,10.82586376953125,-0.07696902006864548,0.13927727937698364,0.07696902006864548
1732873924156851700,10.835851806640624,-0.05375614017248154,0.15454891324043274,0.23396138846874237
1732873924166852600,10.8458525390625,-0.04214970022439957,0.1258382350206375,0.36713001132011414
1732873924176840700,10.8558408203125,-0.045204028487205505,0.0708603709936142,0.4495968222618103
1732873924186872300,10.865872314453124,-0.04459316283464432,0.01771509274840355,0.4703662395477295
1732873924196830000,10.875829833984374,-0.03298672288656235,-0.007941247895359993,0.4282165467739105
1732873924206860500,10.885860595703125,0.0006108652451075613,0.014049900695681572,0.34758231043815613
1732873924216849400,10.895849365234374,0.07513642311096191,0.1362229436635971,0.23335053026676178
1732873924226850600,10.9058505859375,0.11972958594560623,0.2076941877603531,0.17348572611808777
1732873924236838100,10.915838134765625,0.13500121235847473,0.24862214922904968,0.10873401165008545
1732873924246869800,10.925869873046874,0.10201449692249298,0.2626720666885376,0.0354301854968071
1732873924256827400,10.935827392578124,0.02015855349600315,0.2528982162475586,-0.03481931984424591
1732873924266858800,10.945858642578125,-0.09957103431224823,0.21563543379306793,-0.07513642311096191
1732873924276846800,10.955846923828124,-0.2321287989616394,0.14477506279945374,-0.07452555745840073
1732873924286848000,10.965847900390624,-0.37751471996307373,-0.03726277872920036,-0.036651913076639175
1732873924296836000,10.975836181640625,-0.4343251883983612,-0.18875735998153687,-0.0555887371301651
1732873924306867700,10.98586767578125,-0.45875978469848633,-0.28527405858039856,-0.13988813757896423
1732873924316855600,10.99585546875,-0.41233405470848083,-0.2571742534637451,-0.23335053026676178
1732873924326856700,11.005856689453125,-0.27000242471694946,-0.1007927656173706,-0.2376265823841095
1732873924336844300,11.01584423828125,-0.07452555745840073,0.13927727937698364,-0.08979719132184982
1732873924346876200,11.025876220703125,0.08307767659425735,0.3634648323059082,0.19486601650714874
1732873924356833300,11.035833251953125,0.1258382350206375,0.4544837474822998,0.5607742667198181
1732873924366865000,11.045864990234374,-0.006719517521560192,0.313373863697052,1.0555751323699951
1732873924376853000,11.05585302734375,-0.15271630883216858,0.08307767659425735,1.2125675678253174
1732873924386852900,11.065852783203125,-0.32620203495025635,-0.16859880089759827,1.1606439352035522
1732873924396842200,11.07584228515625,-0.4911356568336487,-0.38240164518356323,0.8936958312988281
1732873924406874400,11.085874267578125,-0.607810914516449,-0.5161811113357544,0.44715335965156555
1732873924416831000,11.0958310546875,-0.646906316280365,-0.5192354321479797,-0.09468411654233932
1732873924426862800,11.10586279296875,-0.6004805564880371,-0.36529740691185,-0.6188064813613892
1732873924436850700,11.1158505859375,-0.40744712948799133,0.012828170321881771,-1.129489779472351
1732873924446851800,11.125851806640625,-0.25106561183929443,0.2272418737411499,-1.188132882118225
1732873924456839700,11.135839599609374,-0.13377949595451355,0.36102136969566345,-1.0335839986801147
1732873924466870800,11.145870849609375,-0.0708603709936142,0.4001167416572571,-0.7342600226402283
1732873924476828700,11.15582861328125,-0.06719517707824707,0.33719760179519653,-0.3781255781650543
1732873924486860000,11.165860107421874,-0.11301007121801376,0.21135938167572021,-0.04642575979232788
1732873924496848100,11.17584814453125,-0.19120082259178162,0.05864306539297104,0.192422553896904
1732873924506849300,11.185849365234375,-0.3243694305419922,-0.11423180252313614,0.32986724376678467
1732873924516837400,11.19583740234375,-0.3897320330142975,-0.16249015927314758,0.29016098380088806
1732873924526868200,11.2058681640625,-0.42577308416366577,-0.1508837193250656,0.18020524084568024
1732873924536826000,11.215826171875,-0.42699480056762695,-0.10934487730264664,0.039095375686883926
1732873924546857200,11.225857177734374,-0.3988949954509735,-0.05619960278272629,-0.09712757170200348
1732873924556845600,11.235845458984375,-0.3433062732219696,0.01160643994808197,-0.2021963894367218
1732873924566876700,11.245876708984374,-0.2767219543457031,0.08552113175392151,-0.2577851414680481
1732873924576834800,11.255834716796874,-0.2278527319431305,0.13744467496871948,-0.26145032048225403
1732873924586866400,11.265866455078125,-0.19364428520202637,0.1569923609495163,-0.192422553896904
1732873924596853200,11.275853271484374,-0.19120082259178162,0.14049901068210602,-0.13316862285137177
1732873924606855200,11.285855224609374,-0.18997909128665924,0.10995574295520782,-0.08185594528913498
1732873924616842800,11.2958427734375,-0.182648703455925,0.07941248267889023,-0.04642575979232788
1732873924626874600,11.30587451171875,-0.15760323405265808,0.059864792972803116,-0.019547687843441963
1732873924636831700,11.315831787109374,-0.11301007121801376,0.059864792972803116,0.0024434609804302454
1732873924646863600,11.325863525390625,-0.059864792972803116,0.06108652427792549,0.03420845419168472
1732873924656851500,11.3358515625,0.029932396486401558,0.06780604273080826,0.10384709388017654
1732873924666852400,11.345852294921874,0.07757988572120667,0.0708603709936142,0.15454891324043274
1732873924676840400,11.35584033203125,0.08979719132184982,0.060475658625364304,0.1973094791173935
1732873924686872000,11.3658720703125,0.0555887371301651,0.006719517521560192,0.23151792585849762
1732873924696830000,11.375829833984374,-0.009773843921720982,-0.08124507963657379,0.2571742534637451
1732873924706860800,11.38586083984375,-0.08979719132184982,-0.19425514340400696,0.2687807083129883
1732873924716849400,11.395849365234374,-0.17287486791610718,-0.2883284091949463,0.25106561183929443
1732873924726850300,11.405850341796874,-0.29993483424186707,-0.4001167416572571,0.13072516024112701
1732873924736838400,11.41583837890625,-0.3781255781650543,-0.42760565876960754,-0.0006108652451075613
1732873924746869800,11.425869873046874,-0.42577308416366577,-0.3842342495918274,-0.1472185254096985
1732873924756827400,11.435827392578124,-0.4288274049758911,-0.32681289315223694,-0.294437050819397
1732873924766858800,11.445858642578125,-0.3781255781650543,-0.25595253705978394,-0.40683624148368835
1732873924776846800,11.455846923828124,-0.24984388053417206,-0.17104226350784302,-0.46303585171699524
1732873924786847700,11.46584765625,-0.05192354694008827,-0.07819075137376785,-0.4697553813457489
1732873924796836000,11.475836181640625,0.17776179313659668,0.028099801391363144,-0.44226643443107605
1732873924806867500,11.485867431640624,0.44104471802711487,0.15027284622192383,-0.34147366881370544
1732873924816855300,11.495855224609375,0.494189977645874,0.17898350954055786,-0.24068090319633484
1732873924826856700,11.505856689453125,0.4550946056842804,0.15515977144241333,-0.14233160018920898
1732873924836844300,11.51584423828125,0.3543018400669098,0.07452555745840073,-0.09285151958465576
1732873924846876200,11.525876220703125,0.21502456068992615,-0.04703662544488907,-0.10934487730264664
1732873924856833300,11.535833251953125,0.08246681094169617,-0.1459967941045761,-0.14538592100143433
1732873924866864400,11.545864501953124,0.024434609338641167,-0.15271630883216858,-0.10995574295520782
1732873924876853000,11.55585302734375,0.1417207419872284,-0.013439035043120384,0.27550023794174194
1732873924886852600,11.5658525390625,0.32131510972976685,0.06902777403593063,0.778853178024292
1732873924896842200,11.57584228515625,0.5021312236785889,0.07513642311096191,1.3542882204055786
1732873924906873600,11.58587353515625,0.6230825781822205,0.030543262138962746,1.870469331741333
1732873924916831200,11.595831298828125,0.66584312915802,-0.02382374368607998,2.199725866317749
1732873924926861800,11.60586181640625,0.607200026512146,-0.05009094998240471,2.252260208129883
1732873924936850700,11.6158505859375,0.47708576917648315,-0.07757988572120667,2.001805305480957
1732873924946850300,11.625850341796875,0.2883284091949463,-0.17898350954055786,1.1838568449020386
1732873924956766500,11.635766357421875,0.14049901068210602,-0.18387043476104736,0.44776421785354614
1732873924966903300,11.6459033203125,-0.007941247895359993,-0.08857546001672745,-0.30604347586631775
1732873924976828700,11.65582861328125,-0.12034045159816742,0.04092797264456749,-0.9615018963813782
1732873924986858800,11.665858642578126,-0.12950342893600464,0.09529497474431992,-1.4135421514511108
1732873924996848000,11.67584814453125,-0.04214970022439957,0.06902777403593063,-1.5961909294128418
1732873925006849000,11.68584912109375,0.0806342139840126,0.03481931984424591,-1.5149458646774292
1732873925016837400,11.69583740234375,0.19058994948863983,0.012828170321881771,-1.2315043210983276
1732873925026868700,11.70586865234375,0.3225368559360504,0.0006108652451075613,-0.6194173693656921
1732873925036826000,11.715826171875,0.38240164518356323,-0.006719517521560192,-0.21502456068992615
1732873925046858000,11.72585791015625,0.40194934606552124,-0.025045474991202354,0.0910189226269722
1732873925056845600,11.735845458984375,0.38240164518356323,-0.031154127791523933,0.26083946228027344
1732873925066877200,11.745877197265624,0.33292156457901,-0.015882495790719986,0.2877175211906433
1732873925076834600,11.75583447265625,0.26939156651496887,-0.0006108652451075613,0.21624629199504852
1732873925086865700,11.76586572265625,0.21135938167572021,0.0024434609804302454,0.11056660860776901
1732873925096854300,11.775854248046874,0.13744467496871948,-0.006719517521560192,-0.048258353024721146
1732873925106855000,11.78585498046875,0.10384709388017654,-0.01466076634824276,-0.12217304855585098
1732873925116843500,11.795843505859375,0.0959058403968811,-0.014049900695681572,-0.15943582355976105
1732873925126874000,11.8058740234375,0.1014036312699318,-0.01038470957428217,-0.1771509200334549
1732873925136832300,11.815832275390624,0.10018189996480942,-0.014049900695681572,-0.19425514340400696
1732873925146863000,11.825863037109375,0.08491026610136032,-0.02382374368607998,-0.23090706765651703
1732873925156851700,11.835851806640624,0.07024950534105301,-0.04153883829712868,-0.27488934993743896
1732873925166852600,11.8458525390625,0.021380282938480377,-0.06780604273080826,-0.31031954288482666
1732873925176840700,11.8558408203125,-0.009162978269159794,-0.06841690838336945,-0.2926044464111328
1732873925186872300,11.865872314453124,-0.018936822190880775,-0.04337143152952194,-0.24434609711170197
1732873925196830000,11.875829833984374,-0.018936822190880775,-0.005497787147760391,-0.17470745742321014
1732873925206861300,11.885861328125,-0.018325956538319588,0.030543262138962746,-0.08735372871160507
1732873925216849400,11.895849365234374,-0.02626720629632473,0.04153883829712868,0.01466076634824276
1732873925226850600,11.9058505859375,-0.04886921867728233,0.018325956538319588,0.11301007121801376
1732873925236838100,11.915838134765625,-0.08429940044879913,-0.03298672288656235,0.1765400618314743
1732873925246869000,11.925868896484374,-0.14782938361167908,-0.10690141469240189,0.16798794269561768
1732873925256827400,11.935827392578124,-0.1765400618314743,-0.13744467496871948,0.08796459436416626
1732873925266858200,11.945858154296875,-0.18936823308467865,-0.14294247329235077,-0.02687807008624077
1732873925276846800,11.955846923828124,-0.18936823308467865,-0.10751228034496307,-0.13866640627384186
1732873925286847500,11.965847412109374,-0.19364428520202637,-0.04153883829712868,-0.22418753802776337
1732873925296836000,11.975836181640625,-0.2021963894367218,0.015271631069481373,-0.28466320037841797
1732873925306867500,11.985867431640624,-0.22540926933288574,0.024434609338641167,-0.33536502718925476
1732873925316855300,11.995855224609375,-0.3078760802745819,-0.05253441259264946,-0.43676865100860596
1732873925326856400,12.0058564453125,-0.4098905920982361,-0.12522737681865692,-0.5057964324951172
1732873925336844300,12.01584423828125,-0.5119050741195679,-0.19608774781227112,-0.5314527750015259
1732873925346876200,12.025876220703125,-0.5699372887611389,-0.252287358045578,-0.48685958981513977
1732873925356833300,12.035833251953125,-0.5473352670669556,-0.30115658044815063,-0.36529740691185
1732873925366865200,12.045865234375,-0.45692721009254456,-0.32070425152778625,-0.20525072515010834
1732873925376853000,12.05585302734375,-0.323147714138031,-0.28588494658470154,-0.03726277872920036
1732873925386854100,12.065854248046875,-0.0959058403968811,-0.1459967941045761,0.19975294172763824
1732873925396842200,12.07584228515625,0.05497787147760391,-0.031154127791523933,0.375071257352829
1732873925406873300,12.085873291015625,0.1966986060142517,0.09896016865968704,0.5699372887611389
1732873925416831200,12.095831298828125,0.2724458873271942,0.19303341209888458,0.7202101349830627
1732873925426861300,12.105861328125,0.22602014243602753,0.19975294172763824,0.7776314616203308
1732873925436850700,12.1158505859375,0.05009094998240471,0.09040805697441101,0.7183775305747986
1732873925446850300,12.125850341796875,-0.2028072625398636,-0.07513642311096191,0.5412266254425049
1732873925456839400,12.13583935546875,-0.43127086758613586,-0.2626720666885376,0.2822197377681732
1732873925466870300,12.145870361328125,-0.5674937963485718,-0.3579670190811157,-0.09468411654233932
1732873925476828700,12.15582861328125,-0.523511528968811,-0.27122417092323303,-0.29993483424186707
1732873925486860300,12.1658603515625,-0.39645153284072876,-0.13255776464939117,-0.46670106053352356
1732873925496848100,12.17584814453125,-0.23457226157188416,0.012828170321881771,-0.5876523852348328
1732873925506849300,12.185849365234375,-0.08124507963657379,0.14905111491680145,-0.6530149579048157
1732873925516837400,12.19583740234375,0.02871066704392433,0.25534167885780334,-0.6530149579048157
1732873925526868700,12.20586865234375,0.08918632566928864,0.3188716471195221,-0.5998696684837341
1732873925536826400,12.215826416015625,0.09346238523721695,0.33719760179519653,-0.4331034719944
1732873925546857700,12.225857666015624,0.05497787147760391,0.30543261766433716,-0.28099802136421204
1732873925556845600,12.235845458984375,-0.005497787147760391,0.2480112910270691,-0.12278391420841217
1732873925566877200,12.245877197265624,-0.0757472887635231,0.17837265133857727,0.012828170321881771
1732873925576834800,12.255834716796874,-0.1466076523065567,0.1014036312699318,0.09285151958465576
1732873925586866400,12.265866455078125,-0.2119702398777008,0.0507018156349659,0.10384709388017654
1732873925596853200,12.275853271484374,-0.2577851414680481,0.03848451003432274,0.05009094998240471
1732873925606854400,12.2858544921875,-0.2718350291252136,0.05253441259264946,-0.10567969083786011
1732873925616842800,12.2958427734375,-0.24434609711170197,0.09712757170200348,-0.22602014243602753
1732873925626873900,12.305873779296874,-0.20036379992961884,0.16004669666290283,-0.33658674359321594
1732873925636831700,12.315831787109374,-0.15027284622192383,0.22052235901355743,-0.4129449129104614
1732873925646863000,12.325863037109375,-0.09712757170200348,0.2724458873271942,-0.44104471802711487
1732873925656851500,12.3358515625,-0.0555887371301651,0.29565876722335815,-0.4251621961593628
1732873925666852400,12.345852294921874,-0.036651913076639175,0.28466320037841797,-0.37262779474258423
1732873925676840400,12.35584033203125,-0.03726277872920036,0.24068090319633484,-0.29504790902137756
1732873925686871800,12.365871826171874,-0.04886921867728233,0.14905111491680145,-0.14905111491680145
1732873925696830000,12.375829833984374,-0.04337143152952194,0.10506882518529892,-0.051312681287527084
1732873925706861300,12.385861328125,-0.028099801391363144,0.07147123664617538,0.031154127791523933
1732873925716849200,12.39584912109375,-0.015882495790719986,0.042760565876960754,0.09224065393209457
