time,seconds_elapsed,z,y,x
1732873913496775400,0.175775390625,9.782708168029785,1.115697979927063,0.0071826050989329815
1732873913506754800,0.1857548828125,9.823410034179688,1.139639973640442,-0.090979665517807
1732873913516764700,0.1957646484375,9.93593692779541,1.1755530834197998,-0.06703764945268631
1732873913526774300,0.205774169921875,9.964667320251465,1.1348515748977661,-0.05506663769483566
1732873913536753700,0.215753662109375,10.005369186401367,1.1492167711257935,-0.05985504388809204
1732873913546763300,0.22576318359375,9.962273597717285,1.1348515748977661,-0.05506663769483566
1732873913556773000,0.235773193359375,9.854534149169922,1.1540051698684692,-0.028730420395731926
1732873913566782700,0.24578271484375,9.770736694335938,1.1635819673538208,-0.06224924325942993
1732873913576762000,0.25576220703125,9.679757118225098,1.1516109704971313,-0.09576806426048279
1732873913586772000,0.26577197265625,9.588777542114258,1.1492167711257935,-0.1388636976480484
1732873913596781600,0.275781494140625,9.5624418258667,1.1875240802764893,-0.08619125932455063
1732873913606761000,0.285760986328125,9.619902610778809,1.2306196689605713,0.026336219161748886
1732873913616770600,0.2957705078125,9.646238327026367,1.1994950771331787,0.07661445438861847
1732873913626780400,0.305780517578125,9.605537414550781,1.1755530834197998,0.038307227194309235
1732873913636759800,0.315759765625,9.57201862335205,1.1827356815338135,-0.023942016065120697
1732873913646769700,0.325769775390625,9.619902610778809,1.161187767982483,0.009576806798577309
1732873913656779300,0.335779296875,9.691728591918945,1.139639973640442,0.10055647045373917
1732873913666758400,0.34575830078125,9.876082420349121,1.1085153818130493,0.15322890877723694
1732873913676768300,0.355768310546875,10.022128105163574,1.048660397529602,0.1173158809542656
1732873913686777900,0.36577783203125,10.141838073730469,1.0558429956436157,0.06703764945268631
1732873913696757200,0.37575732421875,10.225635528564453,1.0654197931289673,0.05746084079146385
1732873913706767000,0.38576708984375,10.283096313476562,1.0654197931289673,0.1173158809542656
1732873913716776700,0.395776611328125,10.24000072479248,1.091755986213684,0.0694318488240242
1732873913726756000,0.405756103515625,10.072406768798828,1.1420341730117798,0
1732873913736766000,0.415765869140625,9.830592155456543,1.1827356815338135,-0.0071826050989329815
1732873913746775800,0.42577587890625,9.615114212036133,1.2306196689605713,0.033518824726343155
1732873913756754700,0.435754638671875,9.466673851013184,1.2665326595306396,0.043095629662275314
1732873913766764500,0.4457646484375,9.394847869873047,1.2521674633026123,0.10773907601833344
1732873913776774400,0.4557744140625,9.469067573547363,1.2473790645599365,0.1628057211637497
1732873913786753500,0.46575341796875,9.57201862335205,1.2066776752471924,0.14604631066322327
1732873913796763400,0.475763427734375,9.677363395690918,1.115697979927063,0.13168109953403473
1732873913806773000,0.48577294921875,9.864110946655273,1.0845733880996704,0.15083470940589905
1732873913816782800,0.495782958984375,9.967061996459961,1.0821791887283325,0.06224924325942993
1732873913826762200,0.50576220703125,10.019734382629395,1.0965443849563599,0.019153613597154617
1732873913836772000,0.515772216796875,10.02691650390625,1.0773907899856567,-0.033518824726343155
1732873913846781700,0.52578173828125,9.938331604003906,1.0845733880996704,-0.028730420395731926
1732873913856760800,0.5357607421875,9.835380554199219,1.0989385843276978,-0.033518824726343155
1732873913866770700,0.545770751953125,9.765948295593262,1.115697979927063,0.05985504388809204
1732873913876780300,0.5557802734375,9.739612579345703,1.1204863786697388,0.16998831927776337
1732873913886759700,0.565759765625,9.655815124511719,1.0678139925003052,0.30885201692581177
1732873913896769500,0.57576953125,9.610325813293457,1.0797849893569946,0.3734954595565796
1732873913906779100,0.585779052734375,9.560047149658203,1.015141487121582,0.35673606395721436
1732873913916758500,0.595758544921875,9.526528358459473,1.0055646896362305,0.2992752194404602
1732873913926768400,0.605768310546875,9.567230224609375,1.0295066833496094,0.2753331959247589
1732873913936778000,0.615778076171875,9.634267807006836,1.048660397529602,0.3208230137825012
1732873913946757000,0.625757080078125,9.641449928283691,1.0462661981582642,0.2777273952960968
1732873913956767000,0.63576708984375,9.68694019317627,1.0821791887283325,0.2106897532939911
1732873913966776600,0.645776611328125,9.773131370544434,1.1420341730117798,0.14844051003456116
1732873913976756000,0.655755859375,9.749189376831055,1.115697979927063,0.22505496442317963
1732873913986765800,0.665765869140625,9.670180320739746,1.0462661981582642,0.3758896589279175
1732873913996775400,0.675775390625,9.63187313079834,0.9481038451194763,0.6033388376235962
1732873914006754800,0.6857548828125,9.696516990661621,0.871489405632019,0.8307880163192749
1732873914016764700,0.6957646484375,9.828198432922363,0.8451532125473022,0.9792284965515137
1732873914026774300,0.705774169921875,10.034099578857422,0.828393816947937,0.9433154463768005
1732873914036753700,0.715753662109375,10.225635528564453,0.8212111592292786,0.9648633003234863
1732873914046763300,0.72576318359375,10.38844108581543,0.8188169598579407,1.0462661981582642
1732873914056773000,0.735773193359375,10.448296546936035,0.8212111592292786,1.113303780555725
1732873914066783000,0.745782958984375,10.467450141906738,0.8523358106613159,1.2665326595306396
1732873914076762000,0.75576220703125,10.376470565795898,0.9169792532920837,1.4676456451416016
1732873914086772000,0.76577197265625,10.230423927307129,1.0031704902648926,1.6184803247451782
1732873914096781600,0.775781494140625,10.06043529510498,1.0558429956436157,1.7477672100067139
1732873914106761000,0.785760986328125,9.825803756713867,1.0989385843276978,1.7884687185287476
1732873914116770600,0.7957705078125,9.634267807006836,1.1803414821624756,1.6112977266311646
1732873914126780400,0.805780517578125,9.440337181091309,1.2090718746185303,1.4508862495422363
1732873914136759800,0.815759765625,9.26795482635498,1.2306196689605713,1.3646949529647827
1732873914146769400,0.825769287109375,9.186552047729492,1.2641384601593018,1.37906014919281
1732873914156779300,0.835779296875,9.277531623840332,1.259350061416626,1.4987702369689941
1732873914166758400,0.84575830078125,9.478644371032715,1.2761094570159912,1.625662922859192
1732873914176768300,0.855768310546875,9.821015357971191,1.314416766166687,1.6855180263519287
1732873914186777900,0.86577783203125,10.11550235748291,1.335964560508728,1.7262194156646729
1732873914196757200,0.87575732421875,10.35252857208252,1.3024457693099976,1.6136919260025024
1732873914206767000,0.88576708984375,10.395624160766602,1.2114660739898682,1.2258312702178955
1732873914216776700,0.895776611328125,10.271124839782715,0.993593692779541,0.8068459630012512
1732873914226756000,0.905756103515625,10.182539939880371,0.8595184087753296,0.586579442024231
1732873914236766000,0.915765869140625,10.079588890075684,0.811634361743927,0.4908113479614258
1732873914246775600,0.925775634765625,10.007762908935547,0.7876923680305481,0.4644751250743866
1732873914256754700,0.935754638671875,9.981427192687988,0.7829039692878723,0.5027823448181152
1732873914266764500,0.9457646484375,9.962273597717285,0.7996633648872375,0.5770025849342346
1732873914276774100,0.955774169921875,9.950302124023438,0.8164227604866028,0.6631938815116882
1732873914286753500,0.96575341796875,9.952696800231934,0.8236053586006165,0.7709329724311829
1732873914296763400,0.975763427734375,9.86889934539795,0.828393816947937,0.8331822156906128
1732873914306773000,0.98577294921875,9.660603523254395,0.8643068075180054,0.8403648138046265
1732873914316782800,0.995782958984375,9.440337181091309,0.8403648138046265,0.7876923680305481
1732873914326762200,1.00576220703125,9.30386734008789,0.8523358106613159,0.8643068075180054
1732873914336772000,1.015772216796875,9.337387084960938,0.8954314589500427,0.9959878921508789
1732873914346781700,1.02578173828125,9.217676162719727,0.9217676520347595,0.6727706789970398
1732873914356760800,1.0357607421875,9.433155059814453,0.6655880808830261,0.9983820915222168
1732873914366770700,1.045770751953125,9.658209800720215,0.8427590131759644,1.0893617868423462
1732873914376780300,1.0557802734375,9.99100399017334,0.9983820915222168,1.2713210582733154
1732873914386759700,1.065759765625,10.280701637268066,1.0414776802062988,1.5083470344543457
1732873914396769500,1.07576953125,10.47942066192627,1.1085153818130493,1.702277421951294
1732873914406779100,1.085779052734375,10.529699325561523,1.1324573755264282,1.7836803197860718
1732873914416758500,1.095758544921875,10.462661743164062,1.1444283723831177,1.802833914756775
1732873914426768400,1.105768310546875,10.323798179626465,1.192312479019165,1.721431016921997
1732873914436778000,1.115778076171875,10.077195167541504,1.216254472732544,1.6065093278884888
1732873914446757000,1.125757080078125,9.775525093078613,1.1899182796478271,1.522712230682373
1732873914456767000,1.13576708984375,9.536105155944824,1.1755530834197998,1.5298948287963867
1732873914466776600,1.145776611328125,9.461885452270508,1.139639973640442,1.5490485429763794
1732873914476756000,1.155755859375,9.57201862335205,1.0271124839782715,1.6519991159439087
1732873914486765800,1.165765869140625,9.832986831665039,0.9241618514060974,1.6663644313812256
1732873914496775400,1.175775390625,10.110713958740234,0.9097966551780701,1.5538369417190552
1732873914506754800,1.1857548828125,10.333374977111816,0.9026140570640564,1.335964560508728
1732873914516764700,1.1957646484375,10.395624160766602,0.8834604024887085,1.039083480834961
1732873914526774300,1.205774169921875,10.15141487121582,0.7948749661445618,0.6919242739677429
1732873914536753700,1.215753662109375,9.947908401489258,0.6847416758537292,0.42377370595932007
1732873914546763300,1.22576318359375,9.873687744140625,0.608127236366272,0.2346317619085312
1732873914556773000,1.235773193359375,9.955090522766113,0.6416460275650024,0.9050082564353943
1732873914566783000,1.245782958984375,10.24239444732666,0.9768342971801758,0.9169792532920837
1732873914576762000,1.25576220703125,10.201693534851074,1.0773907899856567,1.0295066833496094
1732873914586771700,1.265771728515625,10.046070098876953,1.3287819623947144,0.9026140570640564
1732873914596781600,1.275781494140625,9.90241813659668,1.6184803247451782,0.6272808313369751
1732873914606761000,1.285760986328125,9.703699111938477,1.6759412288665771,0.6440402865409851
1732873914616770600,1.2957705078125,9.567230224609375,1.7046716213226318,0.7038952708244324
1732873914626780400,1.305780517578125,9.493009567260742,1.6376339197158813,0.8259995579719543
1732873914636759800,1.315759765625,9.528923034667969,1.4700398445129395,0.7613561153411865
1732873914646769400,1.325769287109375,9.643844604492188,1.2856862545013428,0.47644615173339844
1732873914656779300,1.335779296875,9.816226959228516,1.0558429956436157,0.08858546614646912
1732873914666758400,1.34575830078125,9.895236015319824,0.9911994934082031,-0.33279404044151306
1732873914676768300,1.355768310546875,9.940725326538086,1.1468225717544556,-0.7852981686592102
1732873914686777900,1.36577783203125,9.859322547912598,1.4628572463989258,-1.1204863786697388
1732873914696757200,1.37575732421875,9.545681953430176,1.7381904125213623,-1.1252747774124146
1732873914706767000,1.38576708984375,9.105149269104004,2.1068975925445557,-0.9888052940368652
1732873914716776700,1.395776611328125,8.892065048217773,2.5234885215759277,-1.0007762908935547
1732873914726756000,1.405756103515625,8.530540466308594,2.693476915359497,-0.8834604024887085
1732873914736766000,1.415765869140625,8.305485725402832,2.7485435009002686,-0.7829039692878723
1732873914746775600,1.425775634765625,8.51138687133789,2.7748796939849854,-0.4141969084739685
1732873914756754700,1.435754638671875,8.93037223815918,2.6431987285614014,-0.5051765441894531
1732873914766764500,1.4457646484375,9.5624418258667,2.432508945465088,-0.629675030708313
1732873914776774100,1.455774169921875,10.249577522277832,2.233790159225464,-1.2832920551300049
1732873914786753500,1.46575341796875,10.797849655151367,1.9560627937316895,-1.7094600200653076
1732873914796763400,1.475763427734375,11.044452667236328,1.766920804977417,-1.8507179021835327
1732873914806773000,1.48577294921875,10.955866813659668,1.6543933153152466,-1.7764976024627686
1732873914816782800,1.495782958984375,10.584765434265137,1.6759412288665771,-1.5203180313110352
1732873914826762200,1.50576220703125,10.022128105163574,1.6903064250946045,-1.237802267074585
1732873914836772000,1.515772216796875,9.289502143859863,1.6831238269805908,-1.0678139925003052
1732873914846781700,1.52578173828125,8.731653213500977,1.678335428237915,-1.1037269830703735
1732873914856760800,1.5357607421875,8.152256965637207,1.7741034030914307,-1.2617442607879639
1732873914866770700,1.545770751953125,7.95832633972168,1.7860745191574097,-0.8906430602073669
1732873914876780300,1.5557802734375,7.920019149780273,1.7741034030914307,-0.7206547260284424
1732873914886759700,1.565759765625,8.054094314575195,1.7621324062347412,-0.5099649429321289
1732873914896769500,1.57576953125,8.4108304977417,1.6160861253738403,-0.19153612852096558
1732873914906779100,1.585779052734375,8.860940933227539,1.4676456451416016,0.014365210197865963
1732873914916758500,1.595758544921875,9.117119789123535,1.3694833517074585,-0.16759411990642548
1732873914926768400,1.605768310546875,9.284713745117188,1.3096283674240112,-0.3447650372982025
1732873914936778000,1.615778076171875,9.265560150146484,1.3527239561080933,-0.6320692300796509
1732873914946757000,1.625757080078125,9.078812599182129,1.479616641998291,-0.8164227604866028
1732873914956767000,1.63576708984375,8.841787338256836,1.5753847360610962,-0.933738648891449
1732873914966776600,1.645776611328125,8.707711219787598,1.721431016921997,-0.7972691655158997
1732873914976756000,1.655755859375,8.815450668334961,1.8171991109848022,-0.5051765441894531
1732873914986765800,1.665765869140625,9.062053680419922,1.8602946996688843,-0.2585737705230713
1732873914996775400,1.675775390625,9.509769439697266,1.7980455160140991,-0.22026655077934265
1732873915006754800,1.6857548828125,9.943120002746582,1.7405846118927002,-0.3878606855869293
1732873915016764700,1.6957646484375,10.426748275756836,1.7334020137786865,-0.5626373887062073
1732873915026774300,1.705774169921875,10.912771224975586,1.6927006244659424,-0.7134721279144287
1732873915036753700,1.715753662109375,11.463438034057617,1.6759412288665771,-0.6703764796257019
1732873915046763300,1.72576318359375,11.70046329498291,1.5514427423477173,-0.7637503147125244
1732873915056773000,1.735773193359375,11.815385818481445,1.4053963422775269,-0.7038952708244324
1732873915066783000,1.745782958984375,11.779472351074219,1.2497732639312744,-0.8690952062606812
1732873915076762000,1.75576220703125,11.604695320129395,1.0438719987869263,-1.237802267074585
1732873915086771700,1.765771728515625,11.544840812683105,0.9169792532920837,-1.2832920551300049
1732873915096781600,1.775781494140625,11.611878395080566,0.9409212470054626,-1.2521674633026123
1732873915106761000,1.785760986328125,11.51850414276123,1.0342950820922852,-0.9481038451194763
1732873915116770600,1.7957705078125,11.159374237060547,1.3048399686813354,-0.8667010068893433
1732873915126780400,1.805780517578125,10.740388870239258,1.4484920501708984,-0.6991068720817566
1732873915136759800,1.815759765625,9.847352027893066,1.4437036514282227,-0.3734954595565796
1732873915146769400,1.825769287109375,9.318233489990234,1.5921441316604614,0.040701430290937424
1732873915156779300,1.835779296875,9.263166427612305,1.821987509727478,0.6033388376235962
1732873915166758400,1.84575830078125,9.344569206237793,1.9752163887023926,0.6943184733390808
1732873915176768300,1.855768310546875,9.593565940856934,1.8579005002975464,0.6991068720817566
1732873915186777900,1.86577783203125,10.278307914733887,1.4748282432556152,0.9696516990661621
1732873915196757200,1.87575732421875,10.769119262695312,1.1755530834197998,1.1300631761550903
1732873915206767000,1.88576708984375,11.049241065979004,0.7852981686592102,1.2401964664459229
1732873915216776700,1.895776611328125,11.185709953308105,0.5602431893348694,1.0606313943862915
1732873915226756000,1.905756103515625,11.322179794311523,0.5602431893348694,0.5027823448181152
1732873915236766000,1.915765869140625,11.453861236572266,0.790086567401886,-0.37828385829925537
1732873915246775600,1.925775634765625,11.568782806396484,1.0271124839782715,-1.192312479019165
1732873915256754700,1.935754638671875,11.185709953308105,1.2018892765045166,-2.099714994430542
1732873915266764500,1.9457646484375,10.359710693359375,1.3958195447921753,-2.607285737991333
1732873915276774400,1.9557744140625,9.102754592895508,1.6879122257232666,-2.875436305999756
1732873915286753500,1.96575341796875,7.6997528076171875,1.623268723487854,-2.406172752380371
1732873915296763400,1.975763427734375,6.375759124755859,1.4963760375976562,-1.723825216293335
1732873915306773000,1.98577294921875,5.56173038482666,1.2856862545013428,-1.0438719987869263
1732873915316782800,1.995782958984375,5.161899089813232,0.933738648891449,-0.38067805767059326
1732873915326762200,2.00576220703125,5.710171222686768,0.545877993106842,-0.21547815203666687
1732873915336772000,2.015772216796875,7.134721279144287,-0.0694318488240242,-0.002394201699644327
1732873915346781700,2.02578173828125,9.744400978088379,-0.4668693244457245,0.05027823522686958
1732873915356760800,2.0357607421875,12.251130104064941,-0.38067805767059326,-0.10295066982507706
1732873915366770700,2.045770751953125,14.499285697937012,-0.14844051003456116,-0.42856210470199585
1732873915376780300,2.0557802734375,15.507244110107422,-0.019153613597154617,-0.790086567401886
1732873915386759700,2.065759765625,15.222334861755371,-0.05985504388809204,-1.482010841369629
1732873915396769500,2.07576953125,14.171279907226562,0.19153612852096558,-2.0829553604125977
1732873915406779100,2.085779052734375,12.667720794677734,0.47165772318840027,-2.7078421115875244
1732873915416758500,2.095758544921875,11.314997673034668,0.4908113479614258,-2.829946517944336
1732873915426768400,2.105768310546875,9.967061996459961,0.6057330369949341,-2.535459518432617
1732873915436778000,2.115778076171875,9.035717010498047,0.7637503147125244,-1.9345149993896484
1732873915446757000,2.125757080078125,8.681375503540039,0.9457096457481384,-1.0414776802062988
1732873915456767000,2.13576708984375,8.494627952575684,1.2042834758758545,-0.22505496442317963
1732873915466776600,2.145776611328125,8.35336971282959,1.400607943534851,0.6799532771110535
1732873915476756000,2.155755859375,8.322244644165039,1.623268723487854,1.6376339197158813
1732873915486765800,2.165765869140625,8.346187591552734,1.6711528301239014,2.279279947280884
1732873915496775400,2.175775390625,8.274360656738281,1.623268723487854,2.535459518432617
1732873915506754800,2.1857548828125,8.267178535461426,1.5155296325683594,2.8658595085144043
1732873915516764700,2.1957646484375,8.710105895996094,1.1827356815338135,2.564189910888672
1732873915526774300,2.205774169921875,8.736441612243652,0.8667010068893433,1.764526605606079
1732873915536753700,2.215753662109375,8.789113998413086,0.5817909836769104,0.5363011956214905
1732873915546763300,2.22576318359375,8.166622161865234,0.47165772318840027,-0.5722141861915588
1732873915556773000,2.235773193359375,7.8314337730407715,0.07182604819536209,-0.33279404044151306
1732873915566783000,2.245782958984375,8.051700592041016,-0.06224924325942993,0.28969839215278625
1732873915576762000,2.25576220703125,8.719682693481445,-0.011971008032560349,0.9145850539207458
1732873915586771700,2.265771728515625,9.576807022094727,0.26096799969673157,1.8602946996688843
1732873915596781600,2.275781494140625,10.292673110961914,0.5506663918495178,3.3255462646484375
1732873915606761000,2.285760986328125,10.903194427490234,0.7134721279144287,4.223371982574463
1732873915616770600,2.2957705078125,11.077971458435059,0.8451532125473022,3.4739866256713867
1732873915626780400,2.305780517578125,10.975020408630371,0.5913678407669067,0.19153612852096558
1732873915636759800,2.315759765625,10.472238540649414,0.23942017555236816,-0.8307880163192749
1732873915646769400,2.325769287109375,10.376470565795898,0.033518824726343155,-0.8906430602073669
1732873915656779300,2.335779296875,10.625467300415039,0.4405331015586853,-0.9433154463768005
1732873915666758700,2.345758544921875,10.685321807861328,0.7158663272857666,-0.9409212470054626
1732873915676768300,2.355768310546875,10.515334129333496,0.5171475410461426,-1.0414776802062988
1732873915686777900,2.36577783203125,10.579977035522461,0.4381389021873474,-1.4508862495422363
1732873915696757200,2.37575732421875,10.453084945678711,0.5746083855628967,-1.1492167711257935
1732873915706767000,2.38576708984375,10.271124839782715,0.6799532771110535,-0.8547300100326538
1732873915716776700,2.395776611328125,10.280701637268066,0.38546648621559143,-0.2801215946674347
1732873915726756000,2.405756103515625,10.587160110473633,-0.11013327538967133,0.4213795065879822
1732873915736766000,2.415765869140625,11.204863548278809,-0.6607996821403503,0.524330198764801
1732873915746775600,2.425775634765625,12.179304122924805,-0.9552865028381348,-0.040701430290937424
1732873915756754700,2.435754638671875,13.225569725036621,-0.8906430602073669,-0.7757213711738586
1732873915766764500,2.4457646484375,13.639766693115234,-0.6248866319656372,-2.0925323963165283
1732873915776774100,2.455774169921875,12.902353286743164,-0.21547815203666687,-2.8371291160583496
1732873915786753500,2.46575341796875,11.161767959594727,0.2106897532939911,-3.4979286193847656
1732873915796763400,2.475763427734375,9.528923034667969,0.9241618514060974,-2.9496564865112305
1732873915806773000,2.48577294921875,7.967903137207031,1.5897499322891235,-2.1978771686553955
1732873915816782800,2.495782958984375,6.823474884033203,2.118868589401245,-1.625662922859192
1732873915826762200,2.50576220703125,6.098031520843506,2.6408045291900635,-1.2282254695892334
1732873915836772000,2.515772216796875,5.714959621429443,3.0095114707946777,-0.8690952062606812
1732873915846781700,2.52578173828125,5.784391403198242,3.1914708614349365,-0.5770025849342346
1732873915856760800,2.5357607421875,6.2392897605896,3.2106244564056396,-0.3902548849582672
1732873915866770700,2.545770751953125,6.981492042541504,3.0526070594787598,0.2346317619085312
1732873915876780300,2.5557802734375,7.943961143493652,2.8634653091430664,0.8834604024887085
1732873915886759700,2.565759765625,8.935160636901855,2.580949544906616,1.3239935636520386
1732873915896769500,2.57576953125,10.031704902648926,2.1356279850006104,1.5083470344543457
1732873915906779100,2.585779052734375,10.465055465698242,1.9273324012756348,2.207453966140747
1732873915916758500,2.595758544921875,10.900800704956055,1.680729627609253,1.381454348564148
1732873915926768400,2.605768310546875,11.585541725158691,1.4101848602294922,0.272938996553421
1732873915936778000,2.615778076171875,11.870451927185059,1.256955862045288,0.2106897532939911
1732873915946757000,2.625757080078125,11.702857971191406,1.1971008777618408,-0.6033388376235962
1732873915956767000,2.63576708984375,11.0300874710083,0.9911994934082031,-1.0749965906143188
1732873915966776600,2.645776611328125,9.799467086791992,1.280897855758667,-0.6368576288223267
1732873915976756000,2.655755859375,10.196905136108398,2.054224967956543,-1.1324573755264282
1732873915986765800,2.665765869140625,10.338163375854492,1.7094600200653076,-0.8259995579719543
1732873915996775400,2.675775390625,8.889671325683594,1.6352397203445435,-1.4437036514282227
1732873916006754800,2.6857548828125,8.219294548034668,1.8315643072128296,-1.5705963373184204
1732873916016764700,2.6957646484375,7.99184513092041,1.7717092037200928,-1.4484920501708984
1732873916026774300,2.705774169921875,7.577648162841797,1.8171991109848022,-1.335964560508728
1732873916036753700,2.715753662109375,7.556100368499756,1.7908629179000854,-1.1420341730117798
1732873916046763500,2.725763427734375,7.666234016418457,1.702277421951294,-1.1348515748977661
1732873916056773000,2.735773193359375,8.008605003356934,1.7405846118927002,-1.3694833517074585
1732873916066783000,2.745782958984375,8.616731643676758,1.699883222579956,-1.335964560508728
1732873916076762000,2.75576220703125,8.983044624328613,1.4772224426269531,-1.3862427473068237
1732873916086771700,2.765771728515625,9.01895809173584,1.316810965538025,-1.5849615335464478
1732873916096781600,2.775781494140625,9.129091262817383,1.1324573755264282,-1.7764976024627686
1732873916106761000,2.785760986328125,9.366117477416992,1.0558429956436157,-2.049436569213867
1732873916116770800,2.795770751953125,9.526528358459473,1.0007762908935547,-2.1787235736846924
1732873916126780400,2.805780517578125,9.607931137084961,0.9002198576927185,-1.9776105880737305
1732873916136759800,2.815759765625,9.607931137084961,0.7781155705451965,-1.7525556087493896
1732873916146769400,2.825769287109375,10.122684478759766,0.6057330369949341,-1.1037269830703735
1732873916156779300,2.835779296875,10.6709566116333,0.8834604024887085,-0.3280056416988373
1732873916166758400,2.84575830078125,10.709263801574707,0.7852981686592102,-0.40940847992897034
1732873916176768300,2.855768310546875,10.287884712219238,0.6775590777397156,-0.5578489899635315
1732873916186777900,2.86577783203125,9.739612579345703,0.8307880163192749,-0.9050082564353943
1732873916196757200,2.87575732421875,9.617507934570312,0.9241618514060974,-0.5291185975074768
1732873916206767000,2.88576708984375,9.861717224121094,1.0606313943862915,0.14844051003456116
1732873916216776700,2.895776611328125,10.000580787658691,1.0342950820922852,0.6105214357376099
1732873916226756000,2.905756103515625,10.204087257385254,1.0558429956436157,1.3623007535934448
1732873916236766000,2.915765869140625,10.467450141906738,0.7613561153411865,1.8171991109848022
1732873916246775600,2.925775634765625,10.771512985229492,0.22026655077934265,2.188300371170044
1732873916256755000,2.9357548828125,11.185709953308105,-0.27054479718208313,2.367865562438965
1732873916266764500,2.9457646484375,11.693281173706055,-1.0247182846069336,2.3367409706115723
1732873916276774400,2.9557744140625,12.253523826599121,-1.6831238269805908,2.1116859912872314
1732873916286753500,2.96575341796875,13.00051498413086,-2.094926595687866,1.7741034030914307
1732873916296763400,2.975763427734375,13.467384338378906,-2.0183119773864746,1.3527239561080933
1732873916306773000,2.98577294921875,13.709198951721191,-1.6089035272598267,0.7110779285430908
1732873916316782800,2.995782958984375,13.747506141662598,-0.8140285611152649,0.629675030708313
1732873916326762200,3.00576220703125,13.115436553955078,-0.11252748221158981,1.2330138683319092
1732873916336771800,3.015771728515625,11.623848915100098,0.7805097699165344,1.0534487962722778
1732873916346781700,3.02578173828125,10.223240852355957,1.1061211824417114,0.4572925269603729
1732873916356760800,3.0357607421875,9.148244857788086,1.2401964664459229,-0.4118026793003082
1732873916366770400,3.0457705078125,8.372523307800293,1.2832920551300049,-1.3934253454208374
1732873916376780300,3.0557802734375,7.60637903213501,1.2066776752471924,-1.946485996246338
1732873916386759700,3.065759765625,7.105990409851074,1.0869675874710083,-2.1092917919158936
1732873916396769500,3.07576953125,7.113173484802246,0.9864110946655273,-2.097320795059204
1732873916406779100,3.085779052734375,7.644686222076416,0.7086837291717529,-1.7142484188079834
1732873916416758500,3.095758544921875,8.429984092712402,0.2059013396501541,-1.280897855758667
1732873916426768400,3.105768310546875,9.430760383605957,-0.2753331959247589,-0.9145850539207458
1732873916436778000,3.115778076171875,10.393229484558105,-0.3758896589279175,-0.7206547260284424
1732873916446757400,3.12575732421875,10.991780281066895,-0.3208230137825012,-0.7757213711738586
1732873916456767000,3.13576708984375,11.101913452148438,-0.2059013396501541,-0.608127236366272
1732873916466776600,3.145776611328125,10.879252433776855,-0.1149216815829277,-0.5003881454467773
1732873916476756000,3.155755859375,10.575188636779785,-0.16519992053508759,-0.6416460275650024
1732873916486765800,3.165765869140625,10.376470565795898,-0.2992752194404602,-0.7661445140838623
1732873916496775400,3.175775390625,9.95748519897461,-0.11013327538967133,-0.6440402865409851
1732873916506754800,3.1857548828125,9.727641105651855,-0.10055647045373917,-0.20111294090747833
1732873916516764700,3.1957646484375,9.227252960205078,-0.17477671802043915,-0.13407529890537262
1732873916526774300,3.205774169921875,8.757989883422852,-0.009576806798577309,-0.17956513166427612
1732873916536753700,3.215753662109375,8.35097599029541,0.1149216815829277,-0.2346317619085312
1732873916546763500,3.225763427734375,8.015787124633789,0.2585737705230713,-0.43095630407333374
1732873916556773000,3.235773193359375,7.6351094245910645,0.44532153010368347,-0.5793967843055725
1732873916566783000,3.245782958984375,7.33583402633667,0.5770025849342346,-0.6320692300796509
1732873916576762000,3.25576220703125,7.206547260284424,0.6057330369949341,-0.6440402865409851
1732873916586772000,3.26577197265625,7.326257228851318,0.4357447028160095,-0.6560112833976746
1732873916596781600,3.275781494140625,8.078036308288574,0.16519992053508759,-0.790086567401886
1732873916606761000,3.285760986328125,8.877699851989746,-0.17477671802043915,-0.6105214357376099
1732873916616770800,3.295770751953125,9.641449928283691,-0.45250412821769714,-0.2968810200691223
1732873916626780400,3.305780517578125,10.409989356994629,-0.6200982332229614,-0.12689268589019775
1732873916636759800,3.315759765625,10.888829231262207,-0.7158663272857666,-0.19393034279346466
1732873916646769700,3.325769775390625,11.097125053405762,-0.7254431247711182,-0.040701430290937424
1732873916656779300,3.335779296875,10.986991882324219,-0.6631938815116882,0.033518824726343155
1732873916666758400,3.34575830078125,10.647014617919922,-0.727837324142456,0.42856210470199585
1732873916676768300,3.355768310546875,10.24000072479248,-0.6991068720817566,0.6751648783683777
1732873916686777900,3.36577783203125,9.737217903137207,-0.6440402865409851,0.7757213711738586
1732873916696757200,3.37575732421875,9.473855972290039,-0.608127236366272,0.8762778043746948
1732873916706767000,3.38576708984375,9.23682975769043,-0.5961562395095825,0.9193734526634216
1732873916716776700,3.395776611328125,9.5408935546875,-0.6560112833976746,0.6416460275650024
1732873916726756000,3.405756103515625,10.170568466186523,-0.751779317855835,0.033518824726343155
1732873916736766000,3.415765869140625,10.512939453125,-0.849941611289978,-0.3758896589279175
1732873916746775800,3.42577587890625,10.6925048828125,-0.849941611289978,-0.4213795065879822
1732873916756754700,3.435754638671875,10.769119262695312,-0.768538773059845,-0.17717093229293823
1732873916766764500,3.4457646484375,10.747570991516113,-0.5602431893348694,0.002394201699644327
1732873916776774100,3.455774169921875,10.551246643066406,-0.47405192255973816,0.22266076505184174
1732873916786753500,3.46575341796875,10.42195987701416,-0.38067805767059326,0.5506663918495178
1732873916796763400,3.475763427734375,10.424354553222656,-0.12689268589019775,0.9672574996948242
1732873916806773200,3.485773193359375,10.56800651550293,0.08858546614646912,1.256955862045288
1732873916816782800,3.495782958984375,10.685321807861328,0.23702596127986908,1.5634137392044067
1732873916826762200,3.50576220703125,10.606313705444336,0.2346317619085312,1.534683346748352
1732873916836772000,3.515772216796875,10.587160110473633,-0.19632454216480255,1.1994950771331787
1732873916846781700,3.52578173828125,11.453861236572266,-0.6033388376235962,0.45250412821769714
1732873916856760800,3.5357607421875,12.820950508117676,-0.7972691655158997,-0.6177040338516235
1732873916866770700,3.545770751953125,13.64216136932373,-0.8834604024887085,-2.300827741622925
1732873916876780300,3.5557802734375,13.843274116516113,-0.5913678407669067,-3.3016040325164795
1732873916886759700,3.565759765625,13.086706161499023,-0.10534487664699554,-3.2321722507476807
1732873916896769300,3.575769287109375,11.777078628540039,0.4189853072166443,-2.9328970909118652
1732873916906779100,3.585779052734375,9.840168952941895,1.2473790645599365,-2.7916390895843506
1732873916916758500,3.595758544921875,8.08043098449707,1.7693150043487549,-2.3989901542663574
1732873916926768400,3.605768310546875,6.40927791595459,2.4133553504943848,-1.843535304069519
1732873916936778000,3.615778076171875,5.56173038482666,2.8227639198303223,-1.3742717504501343
1732873916946757000,3.625757080078125,5.537788391113281,2.9951462745666504,-0.7350199222564697
1732873916956767000,3.63576708984375,6.457161903381348,2.7054479122161865,-0.15801730751991272
1732873916966776600,3.645776611328125,7.785943984985352,2.1739351749420166,0.10055647045373917
1732873916976756000,3.655755859375,9.299078941345215,1.3766659498214722,0.21787235140800476
1732873916986765800,3.665765869140625,10.690110206604004,0.8427590131759644,0.17477671802043915
1732873916996775400,3.675775390625,11.75792407989502,0.38546648621559143,-0.14844051003456116
1732873917006754800,3.6857548828125,12.342109680175781,0.3064578175544739,-0.4141969084739685
1732873917016764700,3.6957646484375,12.45703125,0.3208230137825012,-0.19871874153614044
1732873917026774300,3.705774169921875,11.784260749816895,0.48602294921875,0.11971008777618408
1732873917036753700,3.715753662109375,10.575188636779785,0.6751648783683777,0.2968810200691223
1732873917046763500,3.725763427734375,9.47146224975586,0.7924807667732239,0.33279404044151306
1732873917056773000,3.735773193359375,8.525752067565918,0.8643068075180054,0.21547815203666687
1732873917066783000,3.745782958984375,7.943961143493652,0.8762778043746948,0.10534487664699554
1732873917076762000,3.75576220703125,7.69735860824585,0.9361328482627869,-0.0933738648891449
1732873917086771700,3.765771728515625,7.513004779815674,0.9481038451194763,-0.31124621629714966
1732873917096781600,3.775781494140625,7.515398979187012,0.9624691009521484,-0.5123591423034668
1732873917106761000,3.785760986328125,7.484274387359619,1.070208191871643,-0.5961562395095825
1732873917116770600,3.7957705078125,7.393294811248779,1.113303780555725,-0.5817909836769104
1732873917126780400,3.805780517578125,7.419631004333496,1.1659762859344482,-0.5578489899635315
1732873917136759800,3.815759765625,7.544129371643066,1.1827356815338135,-0.44771572947502136
1732873917146769400,3.825769287109375,7.850587368011475,1.1085153818130493,-0.304063618183136
1732873917156779300,3.835779296875,8.147468566894531,0.9888052940368652,-0.2059013396501541
1732873917166758400,3.84575830078125,8.667010307312012,0.9026140570640564,-0.2346317619085312
1732873917176768300,3.855768310546875,9.418789863586426,0.7876923680305481,-0.30885201692581177
1732873917186777900,3.86577783203125,10.302249908447266,0.7350199222564697,-0.4189853072166443
1732873917196757200,3.87575732421875,10.6709566116333,0.6727706789970398,-0.6368576288223267
1732873917206767000,3.88576708984375,10.737994194030762,0.7613561153411865,-0.6967126727104187
1732873917216776700,3.895776611328125,10.615890502929688,0.9600749015808105,-0.4429273009300232
1732873917226756000,3.905756103515625,10.340557098388672,1.1683704853057861,-0.16759411990642548
1732873917236766000,3.915765869140625,9.981427192687988,1.3982137441635132,0.026336219161748886
1732873917246775600,3.925775634765625,9.653421401977539,1.5155296325683594,0.181959331035614
1732873917256755000,3.9357548828125,9.528923034667969,1.4939818382263184,0.40701428055763245
1732873917266764500,3.9457646484375,9.744400978088379,1.4939818382263184,0.4644751250743866
1732873917276774100,3.955774169921875,10.249577522277832,1.3766659498214722,0.3016694188117981
1732873917286753500,3.96575341796875,10.797849655151367,1.137245774269104,0.2537853717803955
1732873917296763400,3.975763427734375,11.4849853515625,0.8379706144332886,0.1149216815829277
1732873917306773000,3.98577294921875,11.951854705810547,0.5315127968788147,0.0454898327589035
1732873917316782800,3.995782958984375,11.865663528442383,0.2849099934101105,0.21787235140800476
1732873917326762200,4.00576220703125,11.923124313354492,0.004788403399288654,0.5363011956214905
1732873917336771800,4.015771728515625,12.167332649230957,-0.31124621629714966,0.7182605266571045
1732873917346781700,4.02578173828125,12.33253288269043,-0.5913678407669067,1.1228805780410767
1732873917356760800,4.0357607421875,12.500126838684082,-0.6153098344802856,1.4987702369689941
1732873917366770400,4.0457705078125,12.619836807250977,-0.6368576288223267,1.7573440074920654
1732873917376780300,4.0557802734375,12.67011547088623,-0.8834604024887085,2.0614075660705566
1732873917386759700,4.065759765625,12.923900604248047,-1.2832920551300049,1.944091796875
1732873917396769500,4.07576953125,13.505691528320312,-1.5298948287963867,0.3998316824436188
1732873917406779100,4.085779052734375,13.651738166809082,-1.6376339197158813,-1.2401964664459229
1732873917416758500,4.095758544921875,13.539210319519043,-1.4844050407409668,-2.564189910888672
1732873917426768400,4.105768310546875,12.962207794189453,-1.161187767982483,-3.19865345954895
1732873917436778000,4.115778076171875,11.743558883666992,-0.8092401623725891,-3.4955344200134277
1732873917446757000,4.125757080078125,10.065223693847656,-0.5506663918495178,-3.339911460876465
1732873917456767000,4.13576708984375,8.13789176940918,-0.15801730751991272,-2.6886885166168213
1732873917466776600,4.145776611328125,6.823474884033203,0.24420857429504395,-1.824381709098816
1732873917476756000,4.155755859375,5.985504150390625,0.730231523513794,-0.17238251864910126
1732873917486765800,4.165765869140625,6.466738700866699,1.0869675874710083,2.7222073078155518
1732873917496775400,4.175775390625,6.964732646942139,0.6943184733390808,3.3854012489318848
1732873917506754800,4.1857548828125,7.501033782958984,0.2346317619085312,0.8834604024887085
1732873917516764700,4.1957646484375,7.738059997558594,-0.6344634294509888,-0.730231523513794
1732873917526774500,4.2057744140625,9.02135181427002,-1.53707754611969,-1.4748282432556152
1732873917536753700,4.215753662109375,10.503362655639648,-1.7525556087493896,-1.7932571172714233
1732873917546763500,4.225763427734375,11.599906921386719,-1.5825673341751099,-1.9728221893310547
1732873917556773000,4.235773193359375,11.78904914855957,-1.3766659498214722,-2.207453966140747
1732873917566783000,4.245782958984375,11.288661003112793,-0.9457096457481384,-2.3918075561523438
1732873917576762000,4.25576220703125,10.350133895874023,-0.706289529800415,-1.843535304069519
1732873917586772000,4.26577197265625,8.899248123168945,-0.08858546614646912,-1.070208191871643
1732873917596781600,4.275781494140625,7.738059997558594,0.3734954595565796,-0.2513911724090576
1732873917606761000,4.285760986328125,6.67982292175293,0.8212111592292786,0.507570743560791
1732873917616770800,4.295770751953125,5.858611583709717,1.0989385843276978,0.20350714027881622
1732873917626780400,4.305780517578125,5.477933406829834,1.280897855758667,0.28730419278144836
1732873917636759800,4.315759765625,5.497087001800537,1.3766659498214722,-0.07182604819536209
1732873917646769700,4.325769775390625,5.889736175537109,1.3862427473068237,-0.1173158809542656
1732873917656779300,4.335779296875,6.564900875091553,1.3215993642807007,0.272938996553421
1732873917666758400,4.34575830078125,7.69735860824585,1.2761094570159912,1.1444283723831177
1732873917676768300,4.355768310546875,9.32541561126709,1.2952631711959839,2.2194249629974365
1732873917686777900,4.36577783203125,9.545681953430176,0.7086837291717529,0.2106897532939911
1732873917696757200,4.37575732421875,9.30386734008789,0.05506663769483566,-1.0247182846069336
1732873917706767000,4.38576708984375,9.931148529052734,-0.6320692300796509,-0.8379706144332886
1732873917716776700,4.395776611328125,11.015722274780273,-0.8978256583213806,-0.47165772318840027
1732873917726756000,4.405756103515625,11.602301597595215,-0.8930372595787048,-0.35913026332855225
1732873917736766000,4.415765869140625,11.374852180480957,-0.9576807022094727,-0.21308395266532898
1732873917746775600,4.425775634765625,10.613495826721191,-0.9313444495201111,0.10295066982507706
1732873917756754700,4.435754638671875,10.02452278137207,-0.7757213711738586,0.2585737705230713
1732873917766764500,4.4457646484375,9.315838813781738,-0.43335050344467163,0.1149216815829277
1732873917776774100,4.455774169921875,9.406818389892578,-0.4118026793003082,0.395043283700943
1732873917786753500,4.46575341796875,9.732429504394531,-0.21547815203666687,0.4429273009300232
1732873917796763400,4.475763427734375,10.309432983398438,-0.13407529890537262,0.12689268589019775
1732873917806773200,4.485773193359375,11.21204662322998,-0.21787235140800476,-0.0071826050989329815
1732873917816782800,4.495782958984375,11.796232223510742,-0.3280056416988373,-0.38067805767059326
1732873917826762200,4.50576220703125,11.805809020996094,-0.48602294921875,-1.1540051698684692
1732873917836772000,4.515772216796875,12.291831970214844,-0.4908113479614258,-0.5171475410461426
1732873917846781700,4.52578173828125,12.30859088897705,-0.44771572947502136,-0.3878606855869293
1732873917856760800,4.5357607421875,11.81299114227295,-0.40940847992897034,-0.48602294921875
1732873917866770700,4.545770751953125,11.544840812683105,-0.5003881454467773,-0.08858546614646912
1732873917876780300,4.5557802734375,11.51611042022705,-0.5674257874488831,0.3711012601852417
1732873917886759700,4.565759765625,11.578359603881836,-0.49799394607543945,0.4572925269603729
1732873917896769300,4.575769287109375,11.5065336227417,-0.3423708379268646,0.17238251864910126
1732873917906779100,4.585779052734375,10.989385604858398,-0.272938996553421,-0.09816227108240128
1732873917916758500,4.595758544921875,10.632649421691895,-0.2753331959247589,0.11971008777618408
1732873917926768400,4.605768310546875,10.795455932617188,-0.19632454216480255,1.3527239561080933
1732873917936778000,4.615778076171875,11.298237800598145,-0.5123591423034668,1.8148049116134644
1732873917946757000,4.625757080078125,11.851298332214355,-1.01753568649292,1.3623007535934448
1732873917956767000,4.63576708984375,12.662932395935059,-1.45806884765625,0.7086837291717529
1732873917966776800,4.64577685546875,13.438653945922852,-1.3694833517074585,-0.7733271718025208
1732873917976756000,4.655755859375,13.546393394470215,-0.6799532771110535,-1.338358759880066
1732873917986765800,4.665765869140625,12.050017356872559,0.26096799969673157,-1.6855180263519287
1732873917996775400,4.675775390625,9.670180320739746,1.237802267074585,-2.4229321479797363
1732873918006754800,4.6857548828125,7.663839817047119,2.03507137298584,-2.6192567348480225
1732873918016764700,4.6957646484375,6.325480937957764,2.604891538619995,-2.1475989818573
1732873918026774300,4.705774169921875,5.4228668212890625,3.1675288677215576,-1.434126853942871
1732873918036753700,4.715753662109375,5.097255229949951,3.550601005554199,-0.871489405632019
1732873918046763500,4.725763427734375,4.831499099731445,3.471592426300049,-0.7589619159698486
1732873918056773000,4.735773193359375,5.125985622406006,3.2632968425750732,-0.395043283700943
1732873918066783000,4.745782958984375,6.016628742218018,2.698265314102173,-0.5554547905921936
1732873918076762000,4.75576220703125,7.3669586181640625,1.7070658206939697,-0.8427590131759644
1732873918086771700,4.765771728515625,8.944737434387207,0.8978256583213806,-1.0797849893569946
1732873918096781600,4.775781494140625,11.918335914611816,0.304063618183136,-0.33518823981285095
1732873918106761000,4.785760986328125,13.670891761779785,-0.09576806426048279,-0.38546648621559143
1732873918116770600,4.7957705078125,13.022063255310059,-0.48602294921875,-2.6192567348480225
1732873918126780400,4.805780517578125,12.533645629882812,-0.545877993106842,-2.983175277709961
1732873918136759800,4.815759765625,12.014103889465332,-0.31124621629714966,-2.0901381969451904
1732873918146769400,4.825769287109375,11.362881660461426,-0.028730420395731926,-1.1204863786697388
1732873918156779300,4.835779296875,10.45547866821289,0.6105214357376099,-0.5913678407669067
1732873918166758400,4.84575830078125,9.045293807983398,1.173158884048462,-0.22266076505184174
1732873918176768300,4.855768310546875,7.773972988128662,1.314416766166687,0.181959331035614
1732873918186777900,4.86577783203125,6.610390663146973,1.5705963373184204,0.5195417404174805
1732873918196757200,4.87575732421875,5.947196960449219,1.7166426181793213,0.6224924325942993
1732873918206767000,4.88576708984375,5.750872611999512,1.7717092037200928,0.31603461503982544
1732873918216776700,4.895776611328125,5.614402770996094,1.6759412288665771,-0.002394201699644327
1732873918226756000,4.905756103515625,6.071695327758789,1.6136919260025024,-0.2992752194404602
1732873918236766000,4.915765869140625,6.967126846313477,1.5897499322891235,-0.2968810200691223
1732873918246775600,4.925775634765625,8.109161376953125,1.623268723487854,-0.12210428714752197
1732873918256754700,4.935754638671875,8.834604263305664,1.5753847360610962,-0.2825157940387726
1732873918266764500,4.9457646484375,9.564835548400879,1.4053963422775269,-0.48602294921875
1732873918276774400,4.9557744140625,10.299856185913086,1.2258312702178955,-0.8259995579719543
1732873918286753500,4.96575341796875,10.802638053894043,1.1180921792984009,-1.0558429956436157
1732873918296763400,4.975763427734375,11.24795913696289,1.0031704902648926,-1.1252747774124146
1732873918306773200,4.985773193359375,11.45146656036377,1.0606313943862915,-1.2713210582733154
1732873918316782800,4.995782958984375,11.267112731933594,0.9600749015808105,-0.7398083209991455
1732873918326762200,5.00576220703125,10.491392135620117,1.0199298858642578,0.1149216815829277
1732873918336771800,5.015771728515625,9.481039047241211,1.3407529592514038,0.22505496442317963
1732873918346781700,5.02578173828125,9.5624418258667,1.5825673341751099,-0.3902548849582672
1732873918356760800,5.0357607421875,10.034099578857422,0.6392518281936646,-1.577778935432434
1732873918366770400,5.0457705078125,11.990161895751953,1.094150185585022,0.06703764945268631
1732873918376780300,5.0557802734375,12.090718269348145,1.359906554222107,0.646434485912323
1732873918386759700,5.065759765625,11.322179794311523,1.1252747774124146,0.751779317855835
1732873918396769500,5.07576953125,11.025299072265625,0.8307880163192749,0.2801215946674347
1732873918406779100,5.085779052734375,11.365275382995605,0.5051765441894531,-0.06464344263076782
1732873918416758500,5.095758544921875,11.851298332214355,0.1173158809542656,-0.004788403399288654
1732873918426768400,5.105768310546875,12.18648624420166,-0.43095630407333374,0.2346317619085312
1732873918436778000,5.115778076171875,12.29662036895752,-0.8762778043746948,0.08858546614646912
1732873918446757000,5.125757080078125,12.844892501831055,-1.0247182846069336,0.2106897532939911
1732873918456767000,5.13576708984375,13.414711952209473,-1.1324573755264282,0.0694318488240242
1732873918466776800,5.14577685546875,14.056358337402344,-1.2449848651885986,0.2298433631658554
1732873918476756000,5.155755859375,14.125789642333984,-1.2713210582733154,0.10055647045373917
1732873918486765800,5.165765869140625,13.290213584899902,-1.2210428714752197,-0.3471592366695404
1732873918496775400,5.175775390625,11.57357120513916,-1.2306196689605713,-1.4173674583435059
1732873918506754800,5.1857548828125,10.433931350708008,-1.0295066833496094,-2.126051187515259
1732873918516764700,5.1957646484375,9.521739959716797,-0.6416460275650024,-2.2194249629974365
1732873918526774300,5.205774169921875,8.975862503051758,-0.2322375625371933,-1.7764976024627686
1732873918536753700,5.215753662109375,8.286332130432129,0.1843535304069519,-1.1635819673538208
1732873918546763500,5.225763427734375,7.539340972900391,0.33518823981285095,-1.0199298858642578
1732873918556773000,5.235773193359375,7.240066051483154,0.3208230137825012,-1.3000515699386597
1732873918566783000,5.245782958984375,7.223306655883789,0.1628057211637497,-1.5658079385757446
1732873918576762000,5.25576220703125,7.7428483963012695,-0.028730420395731926,-1.3646949529647827
1732873918586772000,5.26577197265625,8.69095230102539,-0.40701428055763245,-1.5849615335464478
1732873918596781600,5.275781494140625,10.182539939880371,-0.751779317855835,-2.169146776199341
1732873918606761000,5.285760986328125,10.02691650390625,-0.6991068720817566,-2.6001031398773193
1732873918616770800,5.295770751953125,9.658209800720215,-0.5722141861915588,-2.4372973442077637
1732873918626780400,5.305780517578125,9.334992408752441,-0.2082955539226532,-1.335964560508728
1732873918636759800,5.315759765625,9.114726066589355,0.2082955539226532,-0.7996633648872375
1732873918646769700,5.325769775390625,8.69334602355957,0.6272808313369751,-0.3495534360408783
1732873918656779300,5.335779296875,8.190564155578613,0.871489405632019,-0.18914192914962769
1732873918666758400,5.34575830078125,7.465120792388916,1.0821791887283325,-0.3974374830722809
1732873918676768300,5.355768310546875,7.12035608291626,1.2713210582733154,-0.3519476354122162
1732873918686777900,5.36577783203125,7.005434036254883,1.434126853942871,-0.4668693244457245
1732873918696757200,5.37575732421875,7.000645637512207,1.5322890281677246,-0.608127236366272
1732873918706767000,5.38576708984375,7.12035608291626,1.5610195398330688,-0.5363011956214905
1732873918716776700,5.395776611328125,7.503427982330322,1.5179238319396973,-0.3423708379268646
1732873918726756000,5.405756103515625,7.931990146636963,1.3646949529647827,-0.2585737705230713
1732873918736766000,5.415765869140625,8.38449478149414,1.1563993692398071,-0.22505496442317963
1732873918746775600,5.425775634765625,8.767566680908203,0.9409212470054626,-0.4141969084739685
1732873918756754700,5.435754638671875,9.188945770263672,0.6607996821403503,-0.689530074596405
1732873918766764500,5.4457646484375,9.643844604492188,0.42616790533065796,-0.7230489253997803
1732873918776774100,5.455774169921875,10.153809547424316,0.14604631066322327,-0.5817909836769104
1732873918786753500,5.46575341796875,10.591948509216309,-0.08140286058187485,-0.45489832758903503
1732873918796763400,5.475763427734375,11.125855445861816,-0.35673606395721436,-0.5171475410461426
1732873918806773200,5.485773193359375,11.41555404663086,-0.6057330369949341,-0.6009446382522583
1732873918816782800,5.495782958984375,11.408370971679688,-0.7733271718025208,-0.6871358752250671
1732873918826762200,5.50576220703125,10.910377502441406,-0.768538773059845,-0.6823474764823914
1732873918836772000,5.515772216796875,10.194510459899902,-0.569819986820221,-0.586579442024231
1732873918846781700,5.52578173828125,9.478644371032715,-0.31364041566848755,-0.2992752194404602
1732873918856760800,5.5357607421875,9.093177795410156,-0.0933738648891449,0.009576806798577309
1732873918866770700,5.545770751953125,8.65982723236084,0.15083470940589905,0.33518823981285095
1732873918876780300,5.5557802734375,8.564059257507324,0.24899697303771973,0.038307227194309235
1732873918886759700,5.565759765625,8.959102630615234,0.5339069962501526,0.3471592366695404
1732873918896769300,5.575769287109375,9.730035781860352,0.6200982332229614,0.28969839215278625
1732873918906779100,5.585779052734375,10.970232009887695,0.5434837937355042,0.06224924325942993
1732873918916758500,5.595758544921875,11.611878395080566,0.3232172429561615,-0.12689268589019775
1732873918926768400,5.605768310546875,11.745953559875488,0.18914192914962769,0.11971008777618408
1732873918936778000,5.615778076171875,11.75792407989502,0.2777273952960968,0.4668693244457245
1732873918946757000,5.625757080078125,11.724405288696289,0.272938996553421,0.5195417404174805
1732873918956767000,5.63576708984375,11.638214111328125,0.45250412821769714,0.33758243918418884
1732873918966776800,5.64577685546875,11.398794174194336,0.7086837291717529,0.3734954595565796
1732873918976756000,5.655755859375,11.183316230773926,0.8259995579719543,0.8475474119186401
1732873918986765800,5.665765869140625,11.233593940734863,0.6871358752250671,1.2258312702178955
1732873918996775400,5.675775390625,11.803414344787598,0.11013327538967133,1.3479355573654175
1732873919006754800,5.6857548828125,12.531251907348633,-0.7733271718025208,0.3471592366695404
1732873919016764700,5.6957646484375,13.563152313232422,-1.656787633895874,-1.2066776752471924
1732873919026774300,5.705774169921875,14.477737426757812,-2.054224967956543,-2.612074136734009
1732873919036753700,5.715753662109375,14.317326545715332,-1.946485996246338,-3.8283286094665527
1732873919046763500,5.725763427734375,12.916718482971191,-1.4197616577148438,-4.364629745483398
1732873919056773000,5.735773193359375,11.022904396057129,-0.5650315880775452,-3.950432777404785
1732873919066783000,5.745782958984375,8.712499618530273,0.6009446382522583,-2.9448680877685547
1732873919076762000,5.75576220703125,6.909666061401367,1.6927006244659424,-2.1140801906585693
1732873919086771700,5.765771728515625,5.276820659637451,2.7078421115875244,-1.4484920501708984
1732873919096781600,5.775781494140625,4.261679172515869,3.464409828186035,-1.072602391242981
1732873919106761000,5.785760986328125,3.6128504276275635,4.194641590118408,-0.9097966551780701
1732873919116770800,5.795770751953125,3.1244332790374756,4.501099109649658,-1.2425906658172607
1732873919126780400,5.805780517578125,4.469974517822266,4.2975921630859375,-1.9249382019042969
1732873919136759800,5.815759765625,6.2201361656188965,3.914519786834717,-0.8451532125473022
1732873919146769400,5.825769287109375,8.006210327148438,3.1100680828094482,-0.3423708379268646
1732873919156779300,5.835779296875,9.23682975769043,1.9560627937316895,-0.8810662031173706
1732873919166758400,5.84575830078125,10.249577522277832,0.7733271718025208,-1.5490485429763794
1732873919176768300,5.855768310546875,11.623848915100098,-0.2513911724090576,-2.1045033931732178
1732873919186777900,5.86577783203125,12.871228218078613,-0.8523358106613159,-2.3750481605529785
1732873919196757200,5.87575732421875,13.864822387695312,-1.070208191871643,-2.6144683361053467
1732873919206767000,5.88576708984375,14.281413078308105,-0.8690952062606812,-2.432508945465088
1732873919216776700,5.895776611328125,13.88158130645752,-0.507570743560791,-2.4444799423217773
1732873919226756000,5.905756103515625,12.595894813537598,-0.4405331015586853,-2.31758713722229
1732873919236766000,5.915765869140625,10.769119262695312,-0.2322375625371933,-2.164358377456665
1732873919246775600,5.925775634765625,9.090784072875977,0.1843535304069519,-1.7741034030914307
1732873919256754700,5.935754638671875,7.797914981842041,0.6320692300796509,-1.0630255937576294
1732873919266764500,5.9457646484375,6.564900875091553,1.0462661981582642,-0.2585737705230713
1732873919276774100,5.955774169921875,5.652710437774658,1.4484920501708984,0.23942017555236816
1732873919286753500,5.96575341796875,4.833893299102783,1.8363527059555054,0.2825157940387726
1732873919296763400,5.975763427734375,4.67827033996582,2.0614075660705566,0.13407529890537262
1732873919306773000,5.98577294921875,5.195417881011963,2.097320795059204,0.011971008032560349
1732873919316782800,5.995782958984375,6.14831018447876,2.0039467811584473,-0.16998831927776337
1732873919326762200,6.00576220703125,7.467514991760254,1.7717092037200928,-0.4668693244457245
1732873919336771800,6.015771728515625,8.702922821044922,1.5394717454910278,-0.629675030708313
1732873919346781700,6.02578173828125,9.962273597717285,1.1516109704971313,-0.8164227604866028
1732873919356760800,6.0357607421875,10.99896240234375,0.8882488012313843,-1.0438719987869263
1732873919366770400,6.0457705078125,11.695674896240234,0.646434485912323,-1.1324573755264282
1732873919376780300,6.0557802734375,12.179304122924805,0.5099649429321289,-1.1420341730117798
1732873919386759700,6.065759765625,12.337321281433105,0.45010992884635925,-1.216254472732544
1732873919396769500,6.07576953125,12.100295066833496,0.49799394607543945,-1.036689281463623
1732873919406779100,6.085779052734375,11.611878395080566,0.629675030708313,-0.6440402865409851
1732873919416758500,6.095758544921875,10.96544361114502,0.7972691655158997,-0.17956513166427612
1732873919426768400,6.105768310546875,10.517727851867676,0.8786720037460327,0.21547815203666687
1732873919436778000,6.115778076171875,10.158597946166992,0.9193734526634216,0.5363011956214905
1732873919446757000,6.125757080078125,10.062829971313477,0.9097966551780701,0.5722141861915588
1732873919456767000,6.13576708984375,10.086771965026855,0.811634361743927,0.37828385829925537
1732873919466776800,6.14577685546875,10.192116737365723,0.6368576288223267,0.181959331035614
1732873919476756000,6.155755859375,10.225635528564453,0.5410895943641663,0.05267243832349777
1732873919486765800,6.165765869140625,10.04846477508545,0.47165772318840027,-0.06224924325942993
1732873919496775400,6.175775390625,10.493785858154297,0.5913678407669067,0.09816227108240128
1732873919506754800,6.1857548828125,10.869675636291504,0.5363011956214905,0.9792284965515137
1732873919516764700,6.1957646484375,11.022904396057129,0.10295066982507706,1.8076223134994507
1732873919526774300,6.205774169921875,11.200075149536133,-0.8140285611152649,2.293645143508911
1732873919536753700,6.215753662109375,11.90157699584961,-2.0159177780151367,2.6024973392486572
1732873919546763500,6.225763427734375,13.196839332580566,-3.4380736351013184,2.279279947280884
1732873919556773000,6.235773193359375,14.532804489135742,-4.094084739685059,0.7015010714530945
1732873919566783000,6.245782958984375,15.3731689453125,-3.9624037742614746,-1.6112977266311646
1732873919576762000,6.25576220703125,15.076288223266602,-3.2561142444610596,-3.667917013168335
1732873919586772000,6.26577197265625,13.69962215423584,-2.2816741466522217,-4.431667327880859
1732873919596781600,6.275781494140625,11.252747535705566,-1.161187767982483,-3.5649664402008057
1732873919606761000,6.285760986328125,9.188945770263672,-0.09816227108240128,-1.9512743949890137
1732873919616770800,6.295770751953125,6.904877662658691,1.0271124839782715,-0.5123591423034668
1732873919626780400,6.305780517578125,5.367800235748291,1.6903064250946045,0.4812345504760742
1732873919636759800,6.315759765625,4.393360137939453,2.1739351749420166,1.2976573705673218
1732873919646769700,6.325769775390625,4.23773717880249,2.300827741622925,1.2186486721038818
1732873919656779300,6.335779296875,4.90571928024292,1.3192051649093628,-0.13168109953403473
1732873919666758400,6.34575830078125,6.308721542358398,-0.033518824726343155,-2.188300371170044
1732873919676768300,6.355768310546875,9.29189682006836,-1.2210428714752197,-3.624821424484253
1732873919686777900,6.36577783203125,12.193669319152832,-2.0590133666992188,-4.333505153656006
1732873919696757200,6.37575732421875,13.826515197753906,-2.2601263523101807,-4.656722068786621
1732873919706767000,6.38576708984375,14.214375495910645,-2.0039467811584473,-4.316745758056641
1732873919716776700,6.395776611328125,13.697227478027344,-1.4628572463989258,-3.2297780513763428
1732873919726756000,6.405756103515625,12.006921768188477,-0.8571242094039917,-2.0254945755004883
1732873919736766000,6.415765869140625,10.20887565612793,-0.3471592366695404,-1.1683704853057861
1732873919746775600,6.425775634765625,8.592789649963379,0.22505496442317963,-0.4620809257030487
1732873919756754700,6.435754638671875,7.627926826477051,0.7876923680305481,-0.15801730751991272
1732873919766764500,6.4457646484375,7.048529624938965,1.2066776752471924,-0.10534487664699554
1732873919776774100,6.455774169921875,6.962338447570801,1.3766659498214722,-0.08379705995321274
1732873919786753500,6.46575341796875,7.196970462799072,1.3910311460494995,-0.10773907601833344
1732873919796763400,6.475763427734375,7.673416614532471,1.2737152576446533,-0.014365210197865963
1732873919806773200,6.485773193359375,8.33182144165039,1.1348515748977661,-0.13407529890537262
1732873919816782800,6.495782958984375,8.942343711853027,1.0103530883789062,-0.33518823981285095
1732873919826762200,6.50576220703125,9.169792175292969,0.8044517636299133,-0.5219359993934631
1732873919836772000,6.515772216796875,9.536105155944824,0.5770025849342346,-0.6775590777397156
1732873919846781700,6.52578173828125,9.830592155456543,0.28969839215278625,-0.7134721279144287
1732873919856760800,6.5357607421875,10.158597946166992,0.10773907601833344,-0.7445967197418213
1732873919866770700,6.545770751953125,10.342951774597168,-0.0933738648891449,-0.5841852426528931
1732873919876780300,6.5557802734375,10.376470565795898,-0.24181437492370605,-0.3711012601852417
1732873919886759700,6.565759765625,10.230423927307129,-0.23702596127986908,-0.2106897532939911
1732873919896769300,6.575769287109375,10.038887977600098,-0.3758896589279175,-0.2513911724090576
1732873919906779100,6.585779052734375,9.835380554199219,-0.49559974670410156,-0.586579442024231
1732873919916758500,6.595758544921875,9.737217903137207,-0.5793967843055725,-0.9433154463768005
1732873919926768400,6.605768310546875,9.792284965515137,-0.6129156351089478,-1.161187767982483
1732873919936778000,6.615778076171875,9.816226959228516,-0.6655880808830261,-1.0319008827209473
1732873919946757000,6.625757080078125,9.75397777557373,-0.7469909191131592,-0.8355764150619507
1732873919956767000,6.63576708984375,9.610325813293457,-0.6943184733390808,-0.7206547260284424
1732873919966776800,6.64577685546875,9.454702377319336,-0.38067805767059326,-0.5650315880775452
1732873919976756000,6.655755859375,9.368511199951172,0.004788403399288654,-0.545877993106842
1732873919986765800,6.665765869140625,9.227252960205078,-0.0071826050989329815,-0.40940847992897034
1732873919996775400,6.675775390625,8.798690795898438,0.13407529890537262,-0.26336219906806946
1732873920006754800,6.6857548828125,8.312667846679688,0.2825157940387726,0.10055647045373917
1732873920016764700,6.6957646484375,8.274360656738281,0.33518823981285095,0.7805097699165344
1732873920026774300,6.705774169921875,8.451532363891602,0.3926490843296051,1.1204863786697388
1732873920036753700,6.715753662109375,8.664615631103516,0.44532153010368347,0.9600749015808105
1732873920046763500,6.725763427734375,8.913613319396973,0.7015010714530945,0.2513911724090576
1732873920056773000,6.735773193359375,9.48343276977539,0.9864110946655273,-0.2513911724090576
1732873920066783000,6.745782958984375,9.718064308166504,1.0414776802062988,0.15322890877723694
1732873920076762000,6.75576220703125,10.589553833007812,0.5386953949928284,1.5298948287963867
1732873920086771700,6.765771728515625,11.714828491210938,-0.272938996553421,2.056619167327881
1732873920096781600,6.775781494140625,13.168108940124512,-1.556231141090393,1.094150185585022
1732873920106761000,6.785760986328125,14.45858383178711,-2.3558945655822754,-0.2968810200691223
1732873920116770600,6.7957705078125,15.2151517868042,-2.0015525817871094,-2.738966703414917
1732873920126780400,6.805780517578125,14.81771469116211,-1.2545616626739502,-4.642356872558594
1732873920136759800,6.815759765625,13.225569725036621,-0.7350199222564697,-5.494692802429199
1732873920146769400,6.825769287109375,10.912771224975586,0.009576806798577309,-5.238513469696045
1732873920156779300,6.835779296875,8.04930591583252,0.706289529800415,-3.823540210723877
1732873920166758400,6.84575830078125,6.057330131530762,1.558625340461731,-1.9129672050476074
1732873920176768300,6.855768310546875,5.999869346618652,2.2816741466522217,-1.2234370708465576
1732873920186777900,6.86577783203125,6.854599475860596,1.7405846118927002,-0.6751648783683777
1732873920196757200,6.87575732421875,8.868123054504395,0.8810662031173706,-0.5482721924781799
1732873920206767000,6.88576708984375,10.986991882324219,0.06464344263076782,-0.7493851184844971
1732873920216776700,6.895776611328125,11.980585098266602,-0.4118026793003082,-1.2282254695892334
1732873920226756000,6.905756103515625,12.057199478149414,-0.304063618183136,-1.7980455160140991
1732873920236766000,6.915765869140625,11.21444034576416,0.031124621629714966,-2.0877439975738525
1732873920246775600,6.925775634765625,10.369287490844727,0.3878606855869293,-2.1284453868865967
1732873920256754700,6.935754638671875,9.409213066101074,0.569819986820221,-1.7597382068634033
1732873920266764500,6.9457646484375,8.937555313110352,0.5770025849342346,-0.9816226959228516
1732873920276774100,6.955774169921875,8.774748802185059,0.6991068720817566,-0.7422025203704834
1732873920286753500,6.96575341796875,9.050082206726074,0.569819986820221,-0.8762778043746948
1732873920296763400,6.975763427734375,9.694122314453125,0.2513911724090576,-1.414973258972168
1732873920306773000,6.98577294921875,10.398017883300781,0.12449848651885986,-2.161964178085327
1732873920316782800,6.995782958984375,11.12346076965332,0.011971008032560349,-2.6144683361053467
1732873920326762200,7.00576220703125,11.319786071777344,-0.05267243832349777,-2.6647465229034424
1732873920336771800,7.015771728515625,10.78348445892334,0.08619125932455063,-2.5282769203186035
1732873920346781700,7.02578173828125,9.610325813293457,0.3423708379268646,-2.1332337856292725
1732873920356760800,7.0357607421875,8.437167167663574,0.646434485912323,-1.4939818382263184
1732873920366770400,7.0457705078125,7.343016624450684,0.9457096457481384,-0.7781155705451965
1732873920376780300,7.0557802734375,7.513004779815674,1.2018892765045166,-0.40701428055763245
1732873920386759700,7.065759765625,8.135497093200684,1.3862427473068237,-0.21787235140800476
1732873920396769500,7.07576953125,8.59997272491455,1.4245500564575195,-0.1843535304069519
1732873920406779100,7.085779052734375,8.951920509338379,1.5634137392044067,-0.3280056416988373
1732873920416758500,7.095758544921875,9.375694274902344,1.6184803247451782,-0.2585737705230713
1732873920426768400,7.105768310546875,9.30386734008789,1.6879122257232666,-0.21308395266532898
1732873920436778000,7.115778076171875,8.825027465820312,1.8171991109848022,-0.3663128614425659
1732873920446757400,7.12575732421875,7.996633529663086,1.9345149993896484,-0.727837324142456
1732873920456767000,7.13576708984375,6.631938934326172,1.9536685943603516,-1.335964560508728
1732873920466776800,7.14577685546875,4.795586109161377,1.946485996246338,-1.8531121015548706
1732873920476756000,7.155755859375,4.572925090789795,1.9393033981323242,-1.8267759084701538
1732873920486765800,7.165765869140625,5.34625244140625,1.968033790588379,-1.4987702369689941
1732873920496775400,7.175775390625,6.404489517211914,1.9033904075622559,-1.0247182846069336
1732873920506754800,7.1857548828125,8.20732307434082,1.8076223134994507,-0.9193734526634216
1732873920516764700,7.1957646484375,9.873687744140625,1.5945383310317993,-1.0127472877502441
1732873920526774300,7.205774169921875,11.094730377197266,1.4844050407409668,-1.6089035272598267
1732873920536753700,7.215753662109375,12.253523826599121,1.434126853942871,-2.6001031398773193
1732873920546763500,7.225763427734375,12.526463508605957,1.2761094570159912,-3.095702886581421
1732873920556773000,7.235773193359375,12.437877655029297,1.0773907899856567,-3.2537200450897217
1732873920566783000,7.245782958984375,12.078747749328613,0.8762778043746948,-3.0406360626220703
1732873920576762000,7.25576220703125,11.705251693725586,0.9409212470054626,-2.760514497756958
1732873920586772000,7.26577197265625,11.39400577545166,1.1348515748977661,-2.2002713680267334
1732873920596781600,7.275781494140625,11.288661003112793,1.2737152576446533,-1.7166426181793213
1732873920606761000,7.285760986328125,11.068394660949707,1.3718775510787964,-1.2042834758758545
1732873920616770800,7.295770751953125,10.881647109985352,1.4987702369689941,-1.1228805780410767
1732873920626780400,7.305780517578125,10.826580047607422,1.678335428237915,-1.1444283723831177
1732873920636759800,7.315759765625,10.201693534851074,1.9105730056762695,-0.8595184087753296
1732873920646769700,7.325769775390625,9.327810287475586,2.013523578643799,-0.8355764150619507
1732873920656779300,7.335779296875,8.683769226074219,2.0183119773864746,-0.9457096457481384
1732873920666758400,7.34575830078125,8.185775756835938,1.9967641830444336,-1.091755986213684
1732873920676768300,7.355768310546875,7.8960771560668945,2.078166961669922,-1.292868971824646
1732873920686777900,7.36577783203125,7.934384346008301,2.0829553604125977,-1.3215993642807007
1732873920696757200,7.37575732421875,8.130708694458008,1.9919757843017578,-1.1252747774124146
1732873920706767000,7.38576708984375,8.394071578979492,1.9752163887023926,-0.9816226959228516
1732873920716776700,7.395776611328125,8.860940933227539,1.9129672050476074,-0.8451532125473022
1732873920726756000,7.405756103515625,9.591172218322754,1.8267759084701538,-1.01753568649292
1732873920736766000,7.415765869140625,10.45547866821289,1.8842366933822632,-1.3527239561080933
1732873920746775600,7.425775634765625,10.589553833007812,1.7549498081207275,-1.6519991159439087
1732873920756754700,7.435754638671875,10.5344877243042,1.6400281190872192,-1.7884687185287476
1732873920766764500,7.4457646484375,10.527304649353027,1.821987509727478,-1.460463047027588
1732873920776774100,7.455774169921875,10.498574256896973,2.0853497982025146,-0.7733271718025208
1732873920786753500,7.46575341796875,10.618284225463867,2.425326347351074,-0.3878606855869293
1732873920796763400,7.475763427734375,10.54645824432373,2.760514497756958,-0.23702596127986908
1732873920806773200,7.485773193359375,10.57040023803711,2.8371291160583496,-0.5961562395095825
1732873920816782800,7.495782958984375,10.807426452636719,2.853888511657715,-0.7398083209991455
1732873920826762200,7.50576220703125,10.991780281066895,3.157952070236206,-0.40222588181495667
1732873920836772000,7.515772216796875,10.615890502929688,3.155557870864868,-0.22026655077934265
1732873920846781700,7.52578173828125,10.15141487121582,2.9759926795959473,-0.20111294090747833
1732873920856760800,7.5357607421875,9.80904483795166,2.8802247047424316,-0.3208230137825012
1732873920866770700,7.545770751953125,9.737217903137207,2.669534921646118,-0.3471592366695404
1732873920876780300,7.5557802734375,10.041281700134277,2.408566951751709,-0.17238251864910126
1732873920886759700,7.565759765625,10.448296546936035,2.2840683460235596,-0.35673606395721436
1732873920896769300,7.575769287109375,10.915165901184082,1.9105730056762695,-0.8259995579719543
1732873920906779100,7.585779052734375,11.319786071777344,1.7573440074920654,-1.436521053314209
1732873920916758500,7.595758544921875,11.817779541015625,1.8171991109848022,-1.7357962131500244
1732873920926768400,7.605768310546875,12.327744483947754,1.7956513166427612,-1.6328455209732056
1732873920936778000,7.615778076171875,12.583924293518066,1.7262194156646729,-1.8722656965255737
1732873920946757400,7.62575732421875,12.375628471374512,1.5945383310317993,-1.8842366933822632
1732873920956767000,7.63576708984375,12.085929870605469,1.292868971824646,-1.680729627609253
1732873920966776800,7.64577685546875,12.09311294555664,1.1468225717544556,-1.5538369417190552
1732873920976756200,7.655756103515625,12.282255172729492,1.1899182796478271,-1.6687586307525635
1732873920986765800,7.665765869140625,12.287043571472168,1.1803414821624756,-1.7860745191574097
1732873920996775400,7.675775390625,12.145785331726074,1.1252747774124146,-1.6160861253738403
1732873921006754800,7.6857548828125,11.674127578735352,1.0654197931289673,-1.2090718746185303
1732873921016764700,7.6957646484375,10.90558910369873,0.8858546018600464,-0.8930372595787048
1732873921026774300,7.705774169921875,9.99339771270752,0.43095630407333374,-0.6703764796257019
1732873921036753700,7.715753662109375,9.658209800720215,-0.026336219161748886,-0.5937620401382446
1732873921046763500,7.725763427734375,9.995792388916016,-0.5267243981361389,-0.7541735172271729
1732873921056773400,7.7357734375,10.249577522277832,-0.8690952062606812,-1.3263877630233765
1732873921066783000,7.745782958984375,10.14902114868164,-1.1324573755264282,-2.027888774871826
1732873921076762000,7.75576220703125,9.502586364746094,-1.2042834758758545,-2.2697031497955322
1732873921086771700,7.765771728515625,8.7484130859375,-1.2258312702178955,-1.9129672050476074
1732873921096781600,7.775781494140625,8.44195556640625,-0.8427590131759644,-0.8427590131759644
1732873921106761000,7.785760986328125,8.133103370666504,-0.21308395266532898,0.7134721279144287
1732873921116770600,7.7957705078125,7.1251444816589355,0.3232172429561615,2.0853497982025146
1732873921126780400,7.805780517578125,6.09324312210083,0.7422025203704834,2.5282769203186035
1732873921136759800,7.815759765625,5.063736438751221,1.0821791887283325,2.3989901542663574
1732873921146769400,7.825769287109375,4.553771495819092,1.1228805780410767,2.2697031497955322
1732873921156779300,7.835779296875,4.797980308532715,1.0582371950149536,2.1045033931732178
1732873921166758400,7.84575830078125,5.789179801940918,0.950498104095459,1.7860745191574097
1732873921176768300,7.855768310546875,7.467514991760254,0.7206547260284424,1.3024457693099976
1732873921186777900,7.86577783203125,8.947132110595703,0.40940847992897034,0.9648633003234863
1732873921196757200,7.87575732421875,10.651803016662598,0.19632454216480255,0.5985504388809204
1732873921206767000,7.88576708984375,11.982979774475098,0.026336219161748886,0.2585737705230713
1732873921216776700,7.895776611328125,12.722787857055664,0.011971008032560349,-0.12928688526153564
1732873921226756000,7.905756103515625,12.337321281433105,0.2944868206977844,-0.646434485912323
1732873921236766000,7.915765869140625,11.5065336227417,0.5770025849342346,-0.8403648138046265
1732873921246775600,7.925775634765625,10.20648193359375,0.871489405632019,-0.6991068720817566
1732873921256754700,7.935754638671875,9.01895809173584,1.2258312702178955,-0.6129156351089478
1732873921266764500,7.9457646484375,8.04930591583252,1.5131354331970215,-0.07182604819536209
1732873921276774100,7.955774169921875,7.481880187988281,1.7717092037200928,0.19153612852096558
1732873921286753500,7.96575341796875,7.182605266571045,1.9105730056762695,0.3256114423274994
1732873921296763400,7.975763427734375,7.115567684173584,1.9345149993896484,0.49799394607543945
1732873921306773000,7.98577294921875,7.33583402633667,1.8626888990402222,0.44532153010368347
1732873921316782800,7.995782958984375,7.848193168640137,1.7597382068634033,0.21547815203666687
1732873921326762200,8.00576220703125,8.576030731201172,1.6065093278884888,0.011971008032560349
1732873921336771800,8.015771728515626,9.411606788635254,1.558625340461731,0.12210428714752197
1732873921346781700,8.02578173828125,9.928754806518555,1.479616641998291,-0.026336219161748886
1732873921356760800,8.0357607421875,10.189722061157227,1.5275006294250488,-0.15801730751991272
1732873921366770400,8.0457705078125,10.127472877502441,1.599326729774475,-0.1173158809542656
1732873921376780300,8.0557802734375,9.823410034179688,1.6663644313812256,0.023942016065120697
1732873921386759700,8.065759765625,9.59596061706543,1.680729627609253,0.10295066982507706
1732873921396769300,8.075769287109376,9.648633003234863,1.625662922859192,0.031124621629714966
1732873921406779100,8.085779052734376,9.950302124023438,1.4628572463989258,0.009576806798577309
1732873921416758500,8.095758544921875,10.556035041809082,1.292868971824646,0.023942016065120697
1732873921426768400,8.105768310546875,11.104307174682617,1.2210428714752197,0.033518824726343155
1732873921436778000,8.115778076171875,11.42752456665039,1.357512354850769,0.26336219906806946
1732873921446757400,8.12575732421875,11.27190113067627,1.460463047027588,0.6655880808830261
1732873921456767000,8.13576708984375,10.951078414916992,1.5849615335464478,0.6560112833976746
1732873921466776800,8.14577685546875,10.522516250610352,1.7286136150360107,0.19153612852096558
1732873921476756000,8.155755859375,10.11789608001709,1.7381904125213623,-0.3447650372982025
1732873921486765800,8.165765869140625,9.909601211547852,1.7357962131500244,-0.790086567401886
1732873921496775400,8.175775390625,9.8784761428833,1.721431016921997,-0.8403648138046265
1732873921506754800,8.1857548828125,10.11550235748291,1.7286136150360107,-0.7972691655158997
1732873921516764700,8.1957646484375,10.539276123046875,1.742978811264038,-0.7350199222564697
1732873921526774300,8.205774169921876,11.310209274291992,1.6352397203445435,-0.6057330369949341
1732873921536753700,8.215753662109375,12.09550666809082,1.5155296325683594,-0.6177040338516235
1732873921546763500,8.225763427734375,12.904747009277344,1.5394717454910278,-0.7230489253997803
1732873921556773000,8.235773193359375,13.42668342590332,1.721431016921997,-0.8858546018600464
1732873921566783000,8.245782958984375,13.479355812072754,1.7980455160140991,-0.706289529800415
1732873921576762000,8.25576220703125,13.242329597473145,1.723825216293335,-0.2082955539226532
1732873921586771700,8.265771728515626,12.955025672912598,1.5682021379470825,0.22026655077934265
1732873921596781600,8.275781494140626,12.598289489746094,1.0295066833496094,0.43095630407333374
1732873921606761000,8.285760986328125,12.406753540039062,0.2537853717803955,0.42377370595932007
1732873921616770600,8.2957705078125,12.801796913146973,-0.6703764796257019,-0.033518824726343155
1732873921626780400,8.305780517578125,13.385981559753418,-1.4173674583435059,-0.5554547905921936
1732873921636759800,8.315759765625,13.828908920288086,-1.843535304069519,-1.0845733880996704
1732873921646769400,8.325769287109376,13.12261962890625,-1.6424223184585571,-1.173158884048462
1732873921656779300,8.335779296875,11.647790908813477,-0.8906430602073669,-1.1276689767837524
1732873921666758400,8.34575830078125,9.48343276977539,-0.3734954595565796,-0.950498104095459
1732873921676768300,8.355768310546875,7.726089000701904,0.31842881441116333,-0.9888052940368652
1732873921686777900,8.36577783203125,5.901707172393799,0.8475474119186401,-0.8858546018600464
1732873921696757200,8.37575732421875,4.596867084503174,1.2952631711959839,-0.49799394607543945
1732873921706767000,8.38576708984375,3.845088005065918,1.577778935432434,0.11971008777618408
1732873921716776700,8.395776611328126,3.576937437057495,1.4915876388549805,0.12928688526153564
1732873921726756000,8.405756103515625,3.9169139862060547,1.2306196689605713,-0.33758243918418884
1732873921736766000,8.415765869140625,4.9799394607543945,0.8667010068893433,-0.9457096457481384
1732873921746775600,8.425775634765625,6.636727333068848,0.689530074596405,-1.3048399686813354
1732873921756754700,8.435754638671876,8.17380428314209,0.49559974670410156,-0.9169792532920837
1732873921766764500,8.4457646484375,9.466673851013184,0.3878606855869293,-0.6153098344802856
1732873921776774100,8.455774169921876,9.983820915222168,0.4405331015586853,-0.24660277366638184
1732873921786753500,8.46575341796875,9.761159896850586,0.47644615173339844,-0.13168109953403473
1732873921796763400,8.475763427734375,9.275136947631836,0.5530605912208557,-0.10773907601833344
1732873921806773000,8.48577294921875,8.765172004699707,0.7230489253997803,-0.07661445438861847
1732873921816782800,8.495782958984375,8.348581314086914,0.8571242094039917,0.0454898327589035
1732873921826762200,8.50576220703125,8.195352554321289,1.139639973640442,0.14604631066322327
1732873921836771800,8.515771728515626,8.015787124633789,1.3934253454208374,0.2561795711517334
1732873921846781700,8.52578173828125,7.836222171783447,1.5634137392044067,0.26815059781074524
1732873921856760800,8.5357607421875,7.781155586242676,1.6639702320098877,0.27054479718208313
1732873921866770400,8.5457705078125,7.951143741607666,1.7405846118927002,0.1843535304069519
1732873921876780300,8.5557802734375,8.26239013671875,1.8267759084701538,0.0933738648891449
1732873921886759700,8.565759765625,8.585607528686523,1.8124107122421265,0.047884032130241394
1732873921896769300,8.575769287109376,8.83699893951416,1.8770540952682495,-0.16519992053508759
1732873921906779100,8.585779052734376,8.983044624328613,1.8483237028121948,-0.31603461503982544
1732873921916758500,8.595758544921875,8.987833023071289,1.7070658206939697,-0.5099649429321289
1732873921926768400,8.605768310546875,9.006986618041992,1.721431016921997,-0.706289529800415
1732873921936778000,8.615778076171875,9.157821655273438,1.7046716213226318,-0.7972691655158997
1732873921946757400,8.62575732421875,9.481039047241211,1.6400281190872192,-0.9361328482627869
1732873921956767000,8.63576708984375,9.928754806518555,1.6041151285171509,-1.0678139925003052
1732873921966776800,8.64577685546875,10.338163375854492,1.525106430053711,-1.2617442607879639
1732873921976756000,8.655755859375,10.620678901672363,1.5466543436050415,-1.3886369466781616
1732873921986765800,8.665765869140625,10.702081680297852,1.6376339197158813,-1.45806884765625
1732873921996775400,8.675775390625,10.558429718017578,1.8052281141281128,-1.338358759880066
1732873922006754800,8.6857548828125,10.256759643554688,1.900996208190918,-0.9744400978088379
1732873922016764700,8.6957646484375,9.890447616577148,1.8195933103561401,-0.45489832758903503
1732873922026774300,8.705774169921876,9.952696800231934,1.6711528301239014,-0.0694318488240242
1732873922036753700,8.715753662109375,10.383652687072754,1.6352397203445435,0.05027823522686958
1732873922046763500,8.725763427734375,10.888829231262207,1.6376339197158813,0.035913024097681046
1732873922056773000,8.735773193359375,11.480196952819824,1.6328455209732056,-0.12689268589019775
1732873922066783000,8.745782958984375,11.93509578704834,1.6400281190872192,-0.38067805767059326
1732873922076762000,8.75576220703125,12.131420135498047,1.460463047027588,-0.5554547905921936
1732873922086771700,8.765771728515626,12.196063041687012,1.173158884048462,-0.3495534360408783
1732873922096781600,8.775781494140626,12.088324546813965,0.8619126081466675,-0.05985504388809204
1732873922106761000,8.785760986328125,12.124237060546875,0.8092401623725891,0.06224924325942993
1732873922116770600,8.7957705078125,12.354081153869629,0.9600749015808105,0.08858546614646912
1732873922126780400,8.805780517578125,12.4785795211792,1.0797849893569946,0.26815059781074524
1732873922136759800,8.815759765625,12.447454452514648,1.0893617868423462,0.6871358752250671
1732873922146769400,8.825769287109376,12.282255172729492,0.6177040338516235,1.335964560508728
1732873922156779300,8.835779296875,12.121843338012695,-0.1388636976480484,1.5658079385757446
1732873922166758400,8.84575830078125,12.674903869628906,-1.1563993692398071,1.1228805780410767
1732873922176768300,8.855768310546875,13.292608261108398,-1.764526605606079,-0.40462008118629456
1732873922186777900,8.86577783203125,13.46020221710205,-1.7597382068634033,-1.1971008777618408
1732873922196757200,8.87575732421875,12.947842597961426,-1.9177556037902832,-1.7812861204147339
1732873922206767000,8.88576708984375,12.18409252166748,-1.7573440074920654,-1.7262194156646729
1732873922216776700,8.895776611328126,10.87446403503418,-1.3120225667953491,-1.0247182846069336
1732873922226756000,8.905756103515625,9.311050415039062,-0.5434837937355042,0.4692635238170624
1732873922236766000,8.915765869140625,7.383718013763428,0.011971008032560349,1.7142484188079834
1732873922246775600,8.925775634765625,5.9304375648498535,0.3758896589279175,1.4915876388549805
1732873922256754700,8.935754638671876,4.912901878356934,1.1180921792984009,1.0319008827209473
1732873922266764500,8.9457646484375,4.525041103363037,1.5825673341751099,0.9672574996948242
1732873922276774100,8.955774169921876,4.55616569519043,1.5897499322891235,1.0462661981582642
1732873922286753500,8.96575341796875,5.027823448181152,1.2473790645599365,0.7781155705451965
1732873922296763400,8.975763427734375,6.433219909667969,0.6440402865409851,-0.5985504388809204
1732873922306773000,8.98577294921875,8.274360656738281,0.2777273952960968,-1.1851298809051514
1732873922316782800,8.995782958984375,9.691728591918945,-0.12210428714752197,-0.9528923034667969
1732873922326762200,9.00576220703125,10.759542465209961,-0.29209262132644653,-0.5817909836769104
1732873922336771800,9.015771728515626,11.08754825592041,-0.27054479718208313,-0.16759411990642548
1732873922346781700,9.02578173828125,10.922348022460938,-0.20350714027881622,-0.22266076505184174
1732873922356760800,9.0357607421875,10.460267066955566,0.15562310814857483,-0.5578489899635315
1732873922366770700,9.045770751953125,9.62947940826416,0.706289529800415,-0.5434837937355042
1732873922376780300,9.0557802734375,8.71489429473877,1.1013327836990356,-0.5650315880775452
1732873922386759700,9.065759765625,7.682993412017822,1.5059528350830078,-0.8355764150619507
1732873922396769300,9.075769287109376,7.022193431854248,1.7477672100067139,-1.01753568649292
1732873922406779100,9.085779052734376,6.744466304779053,1.8818424940109253,-0.8978256583213806
1732873922416758500,9.095758544921875,6.789956092834473,1.944091796875,-0.6320692300796509
1732873922426768400,9.105768310546875,7.105990409851074,1.8315643072128296,-0.3280056416988373
1732873922436778000,9.115778076171875,7.709329605102539,1.6160861253738403,-0.10773907601833344
1732873922446757400,9.12575732421875,8.549694061279297,1.4460978507995605,-0.002394201699644327
1732873922456767000,9.13576708984375,9.44991397857666,1.2425906658172607,0.11013327538967133
1732873922466776800,9.14577685546875,9.99339771270752,1.173158884048462,0.07182604819536209
1732873922476756000,9.155755859375,10.371682167053223,1.1300631761550903,0.047884032130241394
1732873922486765800,9.165765869140625,10.606313705444336,1.1851298809051514,0.11013327538967133
1732873922496775400,9.175775390625,10.486603736877441,1.0582371950149536,0.1364694982767105
1732873922506754800,9.1857548828125,10.345345497131348,0.9481038451194763,0.09816227108240128
1732873922516764700,9.1957646484375,10.201693534851074,0.9193734526634216,0.05267243832349777
1732873922526774300,9.205774169921876,10.096348762512207,1.0558429956436157,0.090979665517807
1732873922536753700,9.215753662109375,9.95748519897461,1.259350061416626,0.16519992053508759
1732873922546763500,9.225763427734375,9.691728591918945,1.5729905366897583,0.26096799969673157
1732873922556773000,9.235773193359375,9.385271072387695,1.8148049116134644,0.40222588181495667
1732873922566783000,9.245782958984375,9.0859956741333,1.9129672050476074,0.6967126727104187
1732873922576762000,9.25576220703125,9.090784072875977,1.745373010635376,0.3878606855869293
1732873922586771700,9.265771728515626,9.315838813781738,1.6831238269805908,0.6272808313369751
1732873922596781600,9.275781494140626,9.90241813659668,1.3862427473068237,0.8212111592292786
1732873922606761000,9.285760986328125,10.845733642578125,1.0319008827209473,0.5985504388809204
1732873922616770800,9.295770751953125,11.801020622253418,0.8595184087753296,0.05267243832349777
1732873922626780400,9.305780517578125,12.686874389648438,0.7613561153411865,-0.48602294921875
1732873922636759800,9.315759765625,13.2710599899292,0.8403648138046265,-0.9911994934082031
1732873922646769400,9.325769287109376,13.740324020385742,0.9864110946655273,-1.4700398445129395
1732873922656779300,9.335779296875,13.977349281311035,1.292868971824646,-1.5897499322891235
1732873922666758400,9.34575830078125,13.776236534118652,1.5179238319396973,-1.2090718746185303
1732873922676768300,9.355768310546875,13.170503616333008,1.5945383310317993,-0.6129156351089478
1732873922686777900,9.36577783203125,12.54801082611084,1.0893617868423462,0.040701430290937424
1732873922696757200,9.37575732421875,11.954249382019043,-0.3663128614425659,0.629675030708313
1732873922706767000,9.38576708984375,11.949460983276367,-1.9129672050476074,0.44532153010368347
1732873922716776700,9.395776611328126,12.99812126159668,-3.002328872680664,-0.871489405632019
1732873922726756000,9.405756103515625,14.24071216583252,-3.117250680923462,-2.2673089504241943
1732873922736766000,9.415765869140625,14.992490768432617,-2.2601263523101807,-3.6846764087677
1732873922746775600,9.425775634765625,14.180856704711914,-1.0079588890075684,-3.8379054069519043
1732873922756754700,9.435754638671876,11.853693008422852,-0.3423708379268646,-2.8658595085144043
1732873922766764500,9.4457646484375,8.595184326171875,0.0933738648891449,-0.9289502501487732
1732873922776774100,9.455774169921876,5.758055210113525,0.5817909836769104,0.13407529890537262
1732873922786753500,9.46575341796875,2.8443117141723633,1.1228805780410767,0.6631938815116882
1732873922796763400,9.475763427734375,1.070208191871643,1.4389152526855469,0.5602431893348694
1732873922806773200,9.485773193359375,0.26815059781074524,1.434126853942871,-0.2082955539226532
1732873922816435200,9.495435302734375,0.9145850539207458,1.2449848651885986,-1.1420341730117798
1732873922826762200,9.50576220703125,3.287238836288452,0.7206547260284424,-1.623268723487854
1732873922836771800,9.515771728515626,6.165069580078125,0.17717093229293823,-1.5969325304031372
1732873922846781700,9.52578173828125,9.583989143371582,-0.22505496442317963,-2.011129379272461
1732873922856760800,9.5357607421875,12.378023147583008,-0.23702596127986908,-1.9057846069335938
1732873922866770700,9.545770751953125,13.663708686828613,-0.3423708379268646,-1.2425906658172607
1732873922876780300,9.5557802734375,13.759477615356445,-0.36152446269989014,-0.5841852426528931
1732873922886759700,9.565759765625,12.94066047668457,-0.18914192914962769,-0.3878606855869293
1732873922896769300,9.575769287109376,11.353304862976074,0.10534487664699554,-0.43095630407333374
1732873922906779100,9.585779052734376,9.909601211547852,0.4812345504760742,-0.36152446269989014
1732873922916758500,9.595758544921875,8.542511940002441,0.7948749661445618,-0.0933738648891449
1732873922926768400,9.605768310546875,7.797914981842041,1.072602391242981,-0.06224924325942993
1732873922936778000,9.615778076171875,7.560888767242432,1.3551181554794312,-0.12449848651885986
1732873922946757400,9.62575732421875,7.618350028991699,1.5083470344543457,-0.2059013396501541
1732873922956767000,9.63576708984375,7.833827972412109,1.623268723487854,-0.33039984107017517
1732873922966776800,9.64577685546875,7.948749542236328,1.6041151285171509,-0.272938996553421
1732873922976756000,9.655755859375,8.032546997070312,1.6089035272598267,-0.15083470940589905
1732873922986765800,9.665765869140625,8.022970199584961,1.5753847360610962,-0.21787235140800476
1732873922996775400,9.675775390625,8.056488990783691,1.525106430053711,-0.3926490843296051
1732873923006754800,9.6857548828125,8.334216117858887,1.5179238319396973,-0.629675030708313
1732873923016764700,9.6957646484375,8.664615631103516,1.4484920501708984,-0.7158663272857666
1732873923026774300,9.705774169921876,9.02135181427002,1.3215993642807007,-0.8164227604866028
1732873923036753700,9.715753662109375,9.404424667358398,1.2497732639312744,-0.9074024558067322
1732873923046763500,9.725763427734375,9.830592155456543,1.1827356815338135,-0.9672574996948242
1732873923056773000,9.735773193359375,10.177751541137695,1.158793568611145,-1.0342950820922852
1732873923066783000,9.745782958984375,10.5344877243042,1.1492167711257935,-1.0630255937576294
1732873923076762000,9.75576220703125,10.888829231262207,1.1563993692398071,-1.091755986213684
1732873923086771700,9.765771728515626,11.125855445861816,1.1803414821624756,-0.9792284965515137
1732873923096781600,9.775781494140626,11.319786071777344,1.2880805730819702,-0.9217676520347595
1732873923106761000,9.785760986328125,11.389217376708984,1.4532804489135742,-0.8954314589500427
1732873923116770600,9.7957705078125,11.5065336227417,1.479616641998291,-0.7038952708244324
1732873923126780400,9.805780517578125,11.635820388793945,1.4700398445129395,-0.45489832758903503
1732873923136759800,9.815759765625,12.009315490722656,1.556231141090393,-0.3902548849582672
1732873923146769400,9.825769287109376,12.255918502807617,1.4891934394836426,-0.19153612852096558
1732873923156779300,9.835779296875,12.258312225341797,0.9481038451194763,0.1412578970193863
1732873923166758400,9.84575830078125,12.33013916015625,0.2992752194404602,0.2825157940387726
1732873923176768300,9.855768310546875,12.926295280456543,-0.2753331959247589,0.3687070608139038
1732873923186777900,9.86577783203125,13.943830490112305,-0.3902548849582672,0.05506663769483566
1732873923196757200,9.87575732421875,14.700398445129395,-0.13168109953403473,-0.33758243918418884
1732873923206767000,9.88576708984375,14.803349494934082,0.18914192914962769,-0.38067805767059326
1732873923216776700,9.895776611328126,14.16409683227539,0.20111294090747833,0.08140286058187485
1732873923226756000,9.905756103515625,12.983756065368652,-0.20350714027881622,0.8236053586006165
1732873923236766000,9.915765869140625,11.956643104553223,-0.7613561153411865,1.0223240852355957
1732873923246775600,9.925775634765625,11.386823654174805,-1.0893617868423462,0.6057330369949341
1732873923256754700,9.935754638671876,11.219228744506836,-1.2713210582733154,0.35913026332855225
1732873923266764500,9.9457646484375,10.886435508728027,-1.37906014919281,0.44771572947502136
1732873923276774100,9.955774169921876,10.29746150970459,-1.280897855758667,0.6943184733390808
1732873923286753500,9.96575341796875,9.198522567749023,-1.0223240852355957,0.9193734526634216
1732873923296763400,9.975763427734375,7.872135162353516,-0.5123591423034668,1.015141487121582
1732873923306773200,9.985773193359375,6.715735912322998,-0.12210428714752197,0.9744400978088379
1732873923316782800,9.995782958984375,5.74129581451416,0.26096799969673157,0.9409212470054626
1732873923326762200,10.00576220703125,5.260061264038086,0.49559974670410156,1.137245774269104
1732873923336771800,10.015771728515626,5.3127336502075195,0.6799532771110535,1.2617442607879639
1732873923346781700,10.02578173828125,5.9519853591918945,0.5410895943641663,0.9169792532920837
1732873923356760800,10.0357607421875,7.046135425567627,0.4644751250743866,0.44532153010368347
1732873923366770700,10.045770751953125,8.197746276855469,0.395043283700943,0.2777273952960968
1732873923376780300,10.0557802734375,9.136273384094238,0.26575639843940735,0.17717093229293823
1732873923386759700,10.065759765625,9.425971984863281,0.17477671802043915,0.05267243832349777
1732873923396769300,10.075769287109376,9.361329078674316,0.19153612852096558,-0.08379705995321274
1732873923406779100,10.085779052734376,9.100360870361328,0.4118026793003082,-0.12210428714752197
1732873923416758500,10.095758544921875,8.78193187713623,0.6631938815116882,-0.15562310814857483
1732873923426768400,10.105768310546875,8.35336971282959,0.9552865028381348,-0.2992752194404602
1732873923436778000,10.115778076171875,7.999027729034424,1.2641384601593018,-0.5386953949928284
1732873923446757400,10.12575732421875,7.613561630249023,1.601720929145813,-0.7038952708244324
1732873923456767000,10.13576708984375,7.3669586181640625,1.8052281141281128,-0.8140285611152649
1732873923466776800,10.14577685546875,7.230489253997803,1.8914192914962769,-0.706289529800415
1732873923476756000,10.155755859375,7.271190643310547,1.9033904075622559,-0.507570743560791
1732873923486765800,10.165765869140625,7.474697589874268,1.8602946996688843,-0.2944868206977844
1732873923496775400,10.175775390625,7.773972988128662,1.745373010635376,-0.11971008777618408
1732873923506754800,10.1857548828125,8.271966934204102,1.5634137392044067,0.12689268589019775
1732873923516764700,10.1957646484375,8.87291145324707,1.3934253454208374,0.28730419278144836
1732873923526774300,10.205774169921876,9.301473617553711,1.235408067703247,0.30885201692581177
1732873923536753700,10.215753662109375,9.749189376831055,1.072602391242981,0.33758243918418884
1732873923546763500,10.225763427734375,10.070012092590332,0.8834604024887085,0.33039984107017517
1732873923556773400,10.2357734375,10.448296546936035,0.768538773059845,0.22266076505184174
1732873923566783000,10.245782958984375,10.742782592773438,0.7757213711738586,0.06703764945268631
1732873923576762000,10.25576220703125,10.867281913757324,0.9074024558067322,-0.0454898327589035
1732873923586771700,10.265771728515626,10.833763122558594,1.1348515748977661,0.0454898327589035
1732873923596781600,10.275781494140626,10.54645824432373,1.3646949529647827,0.19153612852096558
1732873923606761000,10.285760986328125,10.101137161254883,1.5394717454910278,0.43095630407333374
1732873923616770600,10.2957705078125,9.658209800720215,1.5873557329177856,0.6751648783683777
1732873923626780400,10.305780517578125,9.478644371032715,1.680729627609253,0.7326257228851318
1732873923636759800,10.315759765625,9.583989143371582,1.6352397203445435,0.6847416758537292
1732873923646769400,10.325769287109376,10.012551307678223,1.5490485429763794,0.6153098344802856
1732873923656779300,10.335779296875,10.500968933105469,1.3862427473068237,0.5530605912208557
1732873923666758400,10.34575830078125,11.257535934448242,1.1803414821624756,0.33997663855552673
1732873923676768300,10.355768310546875,11.942277908325195,1.0797849893569946,0.002394201699644327
1732873923686777900,10.36577783203125,12.627019882202148,1.1109095811843872,-0.545877993106842
1732873923696757200,10.37575732421875,13.048398971557617,1.3311761617660522,-1.0869675874710083
1732873923706767000,10.38576708984375,13.220781326293945,1.4891934394836426,-1.599326729774475
1732873923716776700,10.395776611328126,13.153743743896484,1.577778935432434,-1.5921441316604614
1732873923726756000,10.405756103515625,12.847286224365234,1.5729905366897583,-1.314416766166687
1732873923736766000,10.415765869140625,12.509703636169434,1.599326729774475,-1.0989385843276978
1732873923746775600,10.425775634765625,12.277466773986816,1.5490485429763794,-0.9313444495201111
1732873923756754700,10.435754638671876,12.11705493927002,1.3072341680526733,-0.6368576288223267
1732873923766764500,10.4457646484375,12.131420135498047,0.7206547260284424,-0.4884171485900879
1732873923776774100,10.455774169921876,12.502521514892578,-0.12210428714752197,-0.6991068720817566
1732873923786753500,10.46575341796875,13.129801750183105,-0.7876923680305481,-1.237802267074585
1732873923796763400,10.475763427734375,13.618219375610352,-0.9888052940368652,-2.169146776199341
1732873923806773200,10.485773193359375,13.565546989440918,-0.8858546018600464,-2.5282769203186035
1732873923816782800,10.495782958984375,12.722787857055664,-0.5027823448181152,-2.3127987384796143
1732873923826762200,10.50576220703125,11.293449401855469,-0.15562310814857483,-1.625662922859192
1732873923836771800,10.515771728515626,9.009381294250488,0.181959331035614,-1.0821791887283325
1732873923846781700,10.52578173828125,6.593631267547607,0.4908113479614258,-0.689530074596405
1732873923856760800,10.5357607421875,4.661510944366455,0.6919242739677429,-0.3663128614425659
1732873923866770700,10.545770751953125,3.1938650608062744,0.6943184733390808,-0.17956513166427612
1732873923876780300,10.5557802734375,2.7964274883270264,0.5578489899635315,-0.2801215946674347
1732873923886759700,10.565759765625,3.536235809326172,0.33758243918418884,-0.5770025849342346
1732873923896769300,10.575769287109376,5.252878665924072,0.09576806426048279,-0.828393816947937
1732873923906779100,10.585779052734376,7.522581577301025,-0.22744916379451752,-0.9959878921508789
1732873923916758500,10.595758544921875,9.217676162719727,-0.20111294090747833,-1.05105459690094
1732873923926768400,10.605768310546875,10.366893768310547,-0.07900865375995636,-0.950498104095459
1732873923936778000,10.615778076171875,10.623072624206543,0.05027823522686958,-0.8523358106613159
1732873923946757400,10.62575732421875,10.304644584655762,0.23702596127986908,-0.7829039692878723
1732873923956767000,10.63576708984375,9.588777542114258,0.47165772318840027,-0.6224924325942993
1732873923966776800,10.64577685546875,8.882488250732422,0.6320692300796509,-0.37828385829925537
1732873923976756200,10.655756103515625,8.243236541748047,0.828393816947937,-0.1173158809542656
1732873923986765800,10.665765869140625,7.841010570526123,1.0606313943862915,0.004788403399288654
1732873923996775400,10.675775390625,7.589619159698486,1.3048399686813354,0.17956513166427612
1732873924006754800,10.6857548828125,7.577648162841797,1.5490485429763794,0.29209262132644653
1732873924016764700,10.6957646484375,7.615955829620361,1.721431016921997,0.3734954595565796
1732873924026774300,10.705774169921876,7.7428483963012695,1.800439715385437,0.43095630407333374
1732873924036753700,10.715753662109375,7.977479934692383,1.9297266006469727,0.4165911078453064
1732873924046763500,10.725763427734375,8.13789176940918,2.0614075660705566,0.38067805767059326
1732873924056773400,10.7357734375,8.286332130432129,2.2026655673980713,0.22026655077934265
1732873924066783000,10.745782958984375,8.439560890197754,2.233790159225464,0.023942016065120697
1732873924076762000,10.75576220703125,8.628703117370605,2.118868589401245,-0.05985504388809204
1732873924086772000,10.76577197265625,9.023746490478516,1.9033904075622559,-0.1867477297782898
1732873924096781600,10.775781494140626,9.550470352172852,1.625662922859192,-0.33758243918418884
1732873924106761000,10.785760986328125,10.292673110961914,1.259350061416626,-0.5291185975074768
1732873924116770800,10.795770751953125,10.986991882324219,0.9816226959228516,-0.7350199222564697
1732873924126780400,10.805780517578125,11.66694450378418,0.8068459630012512,-0.912190854549408
1732873924136759800,10.815759765625,12.172121047973633,0.7661445140838623,-1.173158884048462
1732873924146769700,10.825769775390626,12.411541938781738,0.8858546018600464,-1.292868971824646
1732873924156779300,10.835779296875,12.346898078918457,1.0199298858642578,-1.1348515748977661
1732873924166758400,10.84575830078125,11.939884185791016,1.2425906658172607,-0.7829039692878723
1732873924176768300,10.855768310546875,11.30302619934082,1.4484920501708984,-0.4908113479614258
1732873924186777900,10.86577783203125,10.764330863952637,1.6376339197158813,-0.304063618183136
1732873924196757200,10.87575732421875,10.429142951965332,1.9488801956176758,-0.29209262132644653
1732873924206767000,10.88576708984375,10.378864288330078,2.2218191623687744,-0.3495534360408783
1732873924216776700,10.895776611328126,10.472238540649414,2.183511972427368,-0.40701428055763245
1732873924226756000,10.905756103515625,10.560823440551758,1.8339585065841675,-0.31842881441116333
1732873924236766000,10.915765869140625,10.807426452636719,1.2665326595306396,0.0454898327589035
1732873924246775600,10.925775634765625,11.257535934448242,0.871489405632019,0.3447650372982025
1732873924256754700,10.935754638671876,12.009315490722656,0.7254431247711182,0.5530605912208557
1732873924266764500,10.9457646484375,12.612654685974121,0.7709329724311829,0.5506663918495178
1732873924276774100,10.955774169921876,12.978967666625977,0.8571242094039917,0.43095630407333374
1732873924286753500,10.96575341796875,12.67250919342041,0.507570743560791,0.5841852426528931
1732873924296763400,10.975763427734375,12.021286964416504,-0.31124621629714966,0.9241618514060974
1732873924306773000,10.98577294921875,11.547234535217285,-1.3000515699386597,0.49559974670410156
1732873924316782800,10.995782958984375,11.781867027282715,-1.8914192914962769,-0.6392518281936646
1732873924326762200,11.00576220703125,12.466608047485352,-2.0398597717285156,-1.7190368175506592
1732873924336771800,11.015771728515626,13.005303382873535,-1.8052281141281128,-1.8579005002975464
1732873924346781700,11.02578173828125,12.971784591674805,-1.5634137392044067,-0.8906430602073669
1732873924356760800,11.0357607421875,11.78665542602539,-1.436521053314209,0.2082955539226532
1732873924366770700,11.045770751953125,9.758766174316406,-0.9576807022094727,1.1204863786697388
1732873924376780300,11.0557802734375,7.539340972900391,-0.26336219906806946,2.2146365642547607
1732873924386759700,11.065759765625,5.719748020172119,0.4429273009300232,2.964021682739258
1732873924396769500,11.07576953125,4.288015365600586,0.8307880163192749,3.184288263320923
1732873924406779100,11.085779052734376,3.7636849880218506,0.8978256583213806,2.7485435009002686
1732873924416758500,11.095758544921875,4.357447147369385,0.7350199222564697,1.7932571172714233
1732873924426768400,11.105768310546875,5.92325496673584,0.3926490843296051,0.751779317855835
1732873924436778000,11.115778076171875,8.35097599029541,0.08140286058187485,-0.4405331015586853
1732873924446757400,11.12575732421875,10.412383079528809,-0.05267243832349777,-1.0007762908935547
1732873924456767000,11.13576708984375,11.884817123413086,-0.181959331035614,-1.1540051698684692
1732873924466776800,11.14577685546875,12.313379287719727,-0.26336219906806946,-1.1300631761550903
1732873924476756000,11.155755859375,11.72201156616211,-0.24420857429504395,-1.0007762908935547
1732873924486765800,11.165765869140625,10.709263801574707,-0.016759412363171577,-0.7661445140838623
1732873924496775400,11.175775390625,9.306262016296387,0.38307225704193115,-0.4884171485900879
1732873924506754800,11.1857548828125,8.042123794555664,0.8164227604866028,-0.3447650372982025
1732873924516764700,11.1957646484375,7.16584587097168,1.256955862045288,-0.304063618183136
1732873924526774300,11.205774169921876,6.584054470062256,1.5610195398330688,-0.3758896589279175
1732873924536753700,11.215753662109375,6.538564682006836,1.7190368175506592,-0.5291185975074768
1732873924546763500,11.225763427734375,6.919242858886719,1.845929503440857,-0.6368576288223267
1732873924556773000,11.235773193359375,7.479485988616943,1.8507179021835327,-0.6727706789970398
1732873924566783000,11.245782958984375,8.248024940490723,1.7286136150360107,-0.4429273009300232
1732873924576762000,11.25576220703125,8.822632789611816,1.5658079385757446,-0.17477671802043915
1732873924586772000,11.26577197265625,9.23443603515625,1.41257905960083,0.1412578970193863
1732873924596781600,11.275781494140626,9.459490776062012,1.3335703611373901,0.31603461503982544
1732873924606761000,11.285760986328125,9.569623947143555,1.2066776752471924,0.363918662071228
1732873924616770600,11.2957705078125,9.648633003234863,1.1492167711257935,0.24181437492370605
1732873924626780400,11.305780517578125,9.684545516967773,1.1228805780410767,0.09576806426048279
1732873924636759800,11.315759765625,9.81143856048584,1.2066776752471924,-0.011971008032560349
1732873924646769400,11.325769287109376,9.830592155456543,1.2689268589019775,-0.043095629662275314
1732873924656779300,11.335779296875,9.715670585632324,1.290474772453308,0.0454898327589035
1732873924666758400,11.34575830078125,9.53849983215332,1.3287819623947144,0.2537853717803955
1732873924676768300,11.355768310546875,9.378087997436523,1.3958195447921753,0.6560112833976746
1732873924686777900,11.36577783203125,9.311050415039062,1.5442601442337036,0.9911994934082031
1732873924696757200,11.37575732421875,9.222464561462402,1.678335428237915,1.2330138683319092
1732873924706767000,11.38576708984375,9.10993766784668,1.7046716213226318,1.2976573705673218
1732873924716776700,11.395776611328126,9.105149269104004,1.647210717201233,1.2258312702178955
1732873924726756000,11.405756103515625,9.320627212524414,1.558625340461731,1.0773907899856567
1732873924736766000,11.415765869140625,9.77791976928711,1.4245500564575195,0.730231523513794
1732873924746775600,11.425775634765625,10.517727851867676,1.2761094570159912,0.24899697303771973
1732873924756754700,11.435754638671876,11.329362869262695,1.2090718746185303,-0.1173158809542656
1732873924766764500,11.4457646484375,12.313379287719727,1.237802267074585,-0.6991068720817566
1732873924776774100,11.455774169921876,13.019668579101562,1.292868971824646,-1.2449848651885986
1732873924786753500,11.46575341796875,13.623007774353027,1.4077905416488647,-1.867477297782898
1732873924796763400,11.475763427734375,14.178462028503418,1.556231141090393,-2.032677173614502
1732873924806773000,11.48577294921875,14.621389389038086,1.6663644313812256,-1.7573440074920654
1732873924816782800,11.495782958984375,14.741100311279297,1.656787633895874,-1.2449848651885986
1732873924826762200,11.50576220703125,14.444218635559082,1.1300631761550903,-0.8547300100326538
1732873924836772000,11.515772216796876,14.058752059936523,-0.22744916379451752,-0.5722141861915588
1732873924846781700,11.52578173828125,14.166491508483887,-1.5610195398330688,-0.7469909191131592
1732873924856760800,11.5357607421875,14.812926292419434,-2.609679937362671,-1.6687586307525635
1732873924866770700,11.545770751953125,15.500061988830566,-2.873042106628418,-2.7533318996429443
1732873924876780300,11.5557802734375,15.746665000915527,-2.161964178085327,-3.550601005554199
1732873924886759700,11.565759765625,14.956578254699707,-1.3120225667953491,-3.4404678344726562
1732873924896769300,11.575769287109376,12.823344230651855,-0.5219359993934631,-2.5737667083740234
1732873924906779100,11.585779052734376,9.99339771270752,-0.033518824726343155,-1.699883222579956
1732873924916758500,11.595758544921875,6.313509941101074,0.4884171485900879,-0.7422025203704834
1732873924926768400,11.605768310546875,3.004723072052002,0.8906430602073669,-0.17477671802043915
1732873924936778000,11.615778076171875,1.0438719987869263,1.1013327836990356,-0.5793967843055725
1732873924946757400,11.62575732421875,-0.11013327538967133,1.5873557329177856,-0.6057330369949341
1732873924956693800,11.63569384765625,0.14365209639072418,1.7286136150360107,-0.27054479718208313
1732873924966807300,11.645807373046875,1.7381904125213623,1.2641384601593018,0.1604115068912506
1732873924976756000,11.655755859375,4.19224739074707,0.5770025849342346,-0.5099649429321289
1732873924986765800,11.665765869140625,7.486668586730957,0.1412578970193863,-1.6208745241165161
1732873924996775400,11.675775390625,10.18493366241455,-0.11013327538967133,-1.8363527059555054
1732873925006754800,11.6857548828125,12.356474876403809,-0.304063618183136,-1.4700398445129395
1732873925016764700,11.6957646484375,13.306973457336426,-0.3232172429561615,-1.1540051698684692
1732873925026774300,11.705774169921876,13.239935874938965,-0.12210428714752197,-0.8092401623725891
1732873925036753700,11.715753662109375,12.06198787689209,0.07422025501728058,-0.3495534360408783
1732873925046763500,11.725763427734375,10.47942066192627,0.45489832758903503,0.031124621629714966
1732873925056773000,11.735773193359375,8.69334602355957,0.8140285611152649,0.45250412821769714
1732873925066783000,11.745782958984375,7.522581577301025,1.1444283723831177,0.6392518281936646
1732873925076762000,11.75576220703125,6.938396453857422,1.5873557329177856,0.6823474764823914
1732873925086771700,11.765771728515626,6.7708024978637695,1.9153614044189453,0.6177040338516235
1732873925096781600,11.775781494140626,6.912060260772705,2.123656988143921,0.5195417404174805
1732873925106761000,11.785760986328125,7.208941459655762,2.2146365642547607,0.2298433631658554
1732873925116770600,11.7957705078125,7.515398979187012,2.209848165512085,-0.12210428714752197
1732873925126780400,11.805780517578125,7.723694801330566,2.118868589401245,-0.23702596127986908
1732873925136759800,11.815759765625,7.905653953552246,1.987187385559082,-0.28730419278144836
1732873925146769400,11.825769287109376,8.236053466796875,1.886630892753601,-0.507570743560791
1732873925156779300,11.835779296875,8.698134422302246,1.6927006244659424,-0.5434837937355042
1732873925166758400,11.84575830078125,9.29189682006836,1.5418659448623657,-0.6991068720817566
1732873925176768300,11.855768310546875,9.768342971801758,1.4484920501708984,-0.9672574996948242
1732873925186777900,11.86577783203125,10.196905136108398,1.316810965538025,-1.1228805780410767
1732873925196757200,11.87575732421875,10.539276123046875,1.3120225667953491,-1.2497732639312744
1732873925206767000,11.88576708984375,10.84094524383545,1.4484920501708984,-1.3215993642807007
1732873925216776700,11.895776611328126,10.919954299926758,1.577778935432434,-1.1683704853057861
1732873925226756000,11.905756103515625,10.718840599060059,1.7166426181793213,-0.8164227604866028
1732873925236766000,11.915765869140625,10.378864288330078,1.7908629179000854,-0.6009446382522583
1732873925246775600,11.925775634765625,9.99339771270752,1.7836803197860718,-0.4118026793003082
1732873925256754700,11.935754638671876,9.849745750427246,1.821987509727478,-0.26096799969673157
1732873925266764500,11.9457646484375,10.08198356628418,1.9153614044189453,-0.20111294090747833
1732873925276774100,11.955774169921876,10.60391902923584,2.075772762298584,-0.17717093229293823
1732873925286753500,11.96575341796875,11.149797439575195,2.1954829692840576,-0.15322890877723694
1732873925296763400,11.975763427734375,11.57596492767334,1.8626888990402222,-0.021547814831137657
1732873925306773000,11.98577294921875,11.736376762390137,1.3024457693099976,0.20350714027881622
1732873925316782800,11.995782958984375,12.210428237915039,0.6727706789970398,0.7158663272857666
1732873925326762200,12.00576220703125,12.921506881713867,0.47405192255973816,0.7733271718025208
1732873925336771800,12.015771728515626,13.752294540405273,0.5841852426528931,0.3280056416988373
1732873925346781700,12.02578173828125,14.348450660705566,0.7110779285430908,-0.2322375625371933
1732873925356760800,12.0357607421875,14.36760425567627,0.31842881441116333,-0.6536170840263367
1732873925366770700,12.045770751953125,14.046781539916992,-0.4165911078453064,-0.6488286852836609
1732873925376780300,12.0557802734375,13.64455509185791,-0.9911994934082031,-0.6200982332229614
1732873925386759700,12.065759765625,13.105859756469727,-1.3766659498214722,-0.689530074596405
1732873925396769300,12.075769287109376,12.555193901062012,-1.3239935636520386,-0.9145850539207458
1732873925406779100,12.085779052734376,11.45146656036377,-1.3239935636520386,-0.7469909191131592
1732873925416758500,12.095758544921875,10.11550235748291,-1.3718775510787964,0.2992752194404602
1732873925426768400,12.105768310546875,8.635885238647461,-1.3072341680526733,1.7525556087493896
1732873925436778000,12.115778076171875,7.453149795532227,-1.194706678390503,2.5474305152893066
1732873925446757400,12.12575732421875,6.615179061889648,-1.0582371950149536,2.6862943172454834
1732873925456767200,12.135767333984376,6.440402507781982,-0.8954314589500427,2.2625205516815186
1732873925466776800,12.14577685546875,6.665457725524902,-0.6129156351089478,1.644816517829895
1732873925476756000,12.155755859375,6.998251438140869,-0.5482721924781799,0.9672574996948242
1732873925486765800,12.165765869140625,7.424419403076172,-0.5003881454467773,0.47884035110473633
1732873925496775400,12.175775390625,8.075642585754395,-0.5099649429321289,0.11013327538967133
1732873925506754800,12.1857548828125,8.719682693481445,-0.5410895943641663,-0.05985504388809204
1732873925516764700,12.1957646484375,9.394847869873047,-0.6967126727104187,-0.17477671802043915
1732873925526774300,12.205774169921876,9.813833236694336,-0.730231523513794,-0.2585737705230713
1732873925536753700,12.215753662109375,10.036493301391602,-0.6320692300796509,-0.3447650372982025
1732873925546763500,12.225763427734375,9.883264541625977,-0.5219359993934631,-0.33279404044151306
1732873925556773000,12.235773193359375,9.385271072387695,-0.2322375625371933,-0.28969839215278625
1732873925566783000,12.245782958984375,8.65982723236084,0.12928688526153564,-0.19871874153614044
1732873925576762000,12.25576220703125,7.6997528076171875,0.5650315880775452,-0.07182604819536209
1732873925586771700,12.265771728515626,6.909666061401367,1.0127472877502441,-0.12449848651885986
1732873925596781600,12.275781494140626,6.476315498352051,1.3096283674240112,-0.28730419278144836
1732873925606761000,12.285760986328125,6.380547523498535,1.4963760375976562,-0.49320554733276367
1732873925616770600,12.2957705078125,6.63433313369751,1.4915876388549805,-0.524330198764801
1732873925626780400,12.305780517578125,7.287950038909912,1.4053963422775269,-0.5171475410461426
1732873925636759800,12.315759765625,8.04691219329834,1.280897855758667,-0.6129156351089478
1732873925646769400,12.325769287109376,8.944737434387207,1.0965443849563599,-0.586579442024231
1732873925656779300,12.335779296875,9.583989143371582,0.9002198576927185,-0.5027823448181152
1732873925666758400,12.34575830078125,10.146626472473145,0.6775590777397156,-0.35673606395721436
1732873925676768300,12.355768310546875,10.445901870727539,0.5315127968788147,-0.26336219906806946
1732873925686777900,12.36577783203125,10.56800651550293,0.48602294921875,-0.272938996553421
1732873925696757200,12.37575732421875,10.433931350708008,0.5051765441894531,-0.2513911724090576
1732873925706767000,12.38576708984375,10.17296314239502,0.586579442024231,-0.15801730751991272
1732873925716776700,12.395776611328126,9.761159896850586,0.7086837291717529,0.11252748221158981
1732873925736303600,12.4153037109375,9.169792175292969,1.0271124839782715,0.5722141861915588
1732873925746313200,12.425313232421875,8.971074104309082,1.1180921792984009,0.7996633648872375
1732873925756292600,12.435292724609376,8.99740982055664,1.1492167711257935,0.8140285611152649
1732873925766302500,12.445302490234376,9.229647636413574,1.139639973640442,0.7350199222564697
1732873925776312000,12.45531201171875,9.694122314453125,1.1348515748977661,0.5626373887062073
1732873925786291200,12.465291259765625,10.20648193359375,1.1324573755264282,0.36152446269989014
1732873925796301000,12.475301025390625,10.752359390258789,1.1492167711257935,0.272938996553421
1732873925806310700,12.485310546875,11.15697956085205,1.1085153818130493,0.4118026793003082
1732873925816320500,12.495320556640625,11.362881660461426,1.0079588890075684,0.5650315880775452
1732873925826300000,12.5052998046875,11.563994407653809,0.8762778043746948,0.6105214357376099
1732873925836309500,12.5153095703125,11.738770484924316,0.7230489253997803,0.5051765441894531
1732873925846319400,12.5253193359375,12.0021333694458,0.6847416758537292,0.22744916379451752
1732873925856298800,12.535298828125,12.260706901550293,0.7996633648872375,-0.2992752194404602
1732873925866308400,12.545308349609375,12.550405502319336,1.0678139925003052,-1.115697979927063
1732873925876318200,12.555318115234375,12.801796913146973,1.290474772453308,-1.5610195398330688
1732873925886297300,12.56529736328125,13.019668579101562,1.4676456451416016,-1.534683346748352
1732873925896307200,12.57530712890625,13.048398971557617,1.656787633895874,-1.2210428714752197
1732873925906316800,12.58531689453125,12.90714168548584,1.9560627937316895,-0.6943184733390808
1732873925916296200,12.595296142578125,12.440272331237793,1.764526605606079,-0.1628057211637497
1732873925926306000,12.60530615234375,11.81299114227295,0.7972691655158997,0.3256114423274994
1732873925936315600,12.615315673828125,11.480196952819824,-0.8858546018600464,0.2513911724090576
1732873925946295000,12.625294921875,12.205639839172363,-2.2864625453948975,-0.7493851184844971
1732873925956305000,12.635304931640626,13.807361602783203,-3.043030261993408,-2.382230758666992
1732873925966314500,12.645314453125,15.389928817749023,-2.853888511657715,-3.5458126068115234
1732873925976294000,12.6552939453125,16.069881439208984,-2.3535003662109375,-3.734954595565796
1732873925986303500,12.665303466796875,15.04516315460205,-1.7357962131500244,-3.1675288677215576
1732873925996313300,12.675313232421875,12.507309913635254,-1.192312479019165,-2.0638017654418945
1732873926006292500,12.68529248046875,9.478644371032715,-0.5961562395095825,-1.2880805730819702
1732873926016302300,12.69530224609375,5.789179801940918,-0.13407529890537262,-1.0223240852355957
1732873926026312000,12.70531201171875,2.942473888397217,0.18914192914962769,-0.7805097699165344
1732873926036291300,12.715291259765625,1.292868971824646,0.3064578175544739,-0.7996633648872375
1732873926046301200,12.72530126953125,0.9720458984375,0.24660277366638184,-1.3096283674240112
1732873926056310800,12.735310791015625,2.030282974243164,0.06703764945268631,-1.7908629179000854
1732873926066320600,12.745320556640625,4.469974517822266,-0.31842881441116333,-2.078166961669922
1732873926076300000,12.755300048828126,6.897695064544678,-0.6009446382522583,-1.9345149993896484
1732873926086309600,12.7653095703125,9.332598686218262,-0.6440402865409851,-1.721431016921997
1732873926096319500,12.775319580078126,10.747570991516113,-0.5770025849342346,-1.5442601442337036
1732873926106298600,12.785298583984375,11.439496040344238,-0.3280056416988373,-1.0031704902648926
1732873926116308200,12.79530810546875,11.334151268005371,-0.12928688526153564,-0.5482721924781799
1732873926126318000,12.805318115234375,10.611102104187012,0.1173158809542656,-0.33279404044151306
1732873926136297500,12.81529736328125,9.428366661071777,0.40940847992897034,-0.19393034279346466
1732873926146307300,12.825307373046876,8.473079681396484,0.6943184733390808,-0.15322890877723694
1732873926156317000,12.83531689453125,7.714118003845215,0.9864110946655273,-0.05746084079146385
1732873926166296300,12.84529638671875,7.42681360244751,1.2497732639312744,0.18914192914962769
