time,seconds_elapsed,z,y,x
1732873717005564200,0.174564208984375,0.2637176513671875,0.03888058662414551,-0.016649305820465088
1732873717015104000,0.18410400390625,0.30477333068847656,0.06887602806091309,-0.07392197847366333
1732873717025083100,0.194083251953125,0.2571258544921875,0.09799027442932129,-0.06415784358978271
1732873717035062300,0.204062255859375,0.16428184509277344,0.09708881378173828,-0.0015881061553955078
1732873717045072100,0.214072021484375,0.047725677490234375,0.1007760763168335,0.04088163375854492
1732873717055051300,0.22405126953125,-0.09272575378417969,0.08113515377044678,-0.031230270862579346
1732873717065061000,0.23406103515625,-0.09986305236816406,0.07352781295776367,-0.08451420068740845
1732873717075071000,0.244071044921875,0.09656333923339844,0.10935091972351074,-0.10302847623825073
1732873717085050000,0.254050048828125,0.046509742736816406,0.01624917984008789,0.012698709964752197
1732873717095060000,0.26406005859375,-0.03454303741455078,-0.09465408325195312,0.14040911197662354
1732873717105069800,0.27406982421875,-0.057064056396484375,-0.20965337753295898,0.39182519912719727
1732873717115049000,0.284049072265625,-0.09754562377929688,-0.23089277744293213,0.5331924557685852
1732873717125058800,0.294058837890625,-0.20546531677246094,-0.23659014701843262,0.45455825328826904
1732873717135068400,0.304068359375,-0.13428306579589844,-0.13827729225158691,0.2845853567123413
1732873717145047800,0.3140478515625,0.13696670532226562,-0.038887619972229004,0.011002421379089355
1732873717155057400,0.324057373046875,0.3504323959350586,0.03584706783294678,-0.12013706564903259
1732873717165067300,0.3340673828125,0.4772958755493164,0.08971405029296875,-0.24563264846801758
1732873717175046400,0.34404638671875,0.5175619125366211,0.09780752658843994,-0.18513000011444092
1732873717185056300,0.35405615234375,0.37186241149902344,0.11768853664398193,-0.13920500874519348
1732873717195066000,0.364066162109375,0.2197103500366211,0.13115620613098145,-0.10333138704299927
1732873717205075700,0.37407568359375,0.12286090850830078,0.06680452823638916,0.005528151988983154
1732873717215055000,0.38405517578125,0.1364126205444336,0.02928149700164795,0.10256177186965942
1732873717225065000,0.39406494140625,0.12274456024169922,0.005123019218444824,0.1442505419254303
1732873717235074600,0.404074462890625,-0.001312255859375,-0.020308971405029297,0.172576904296875
1732873717245054000,0.414053955078125,-0.11818218231201172,-0.027992606163024902,0.21255722641944885
1732873717255063600,0.4240634765625,-0.1381826400756836,-0.008836507797241211,0.17224517464637756
1732873717265073200,0.4340732421875,0.19684314727783203,-0.018279552459716797,0.055744826793670654
1732873717275052500,0.444052490234375,0.3221616744995117,-0.03134274482727051,0.08675557374954224
1732873717285062400,0.4540625,0.16980266571044922,0.06104004383087158,-0.015573084354400635
1732873717295072000,0.464072021484375,0.20731639862060547,0.1163184642791748,-0.26831984519958496
1732873717305051400,0.474051513671875,0.32118797302246094,0.22778260707855225,-0.49971914291381836
1732873717315061200,0.484061279296875,0.34432315826416016,0.19712471961975098,-0.36103564500808716
1732873717325070800,0.49407080078125,0.3553333282470703,0.17577910423278809,-0.2146768569946289
1732873717335050200,0.50405029296875,0.26879215240478516,0.06578588485717773,-0.023723989725112915
1732873717345059800,0.514059814453125,0.11680030822753906,-0.06686484813690186,0.2832162082195282
1732873717355069700,0.524069580078125,0.05343437194824219,-0.12911224365234375,0.4202820360660553
1732873717365048800,0.534048828125,0.07169914245605469,-0.04859757423400879,0.1566077172756195
1732873717375058700,0.54405859375,0.13558578491210938,-0.01859140396118164,0.06254862248897552
1732873717385068500,0.554068603515625,-0.018156051635742188,0.026996970176696777,-0.013996779918670654
1732873717395047700,0.564047607421875,-0.22658157348632812,0.12374222278594971,-0.2343943566083908
1732873717405057500,0.5740576171875,-0.5179586410522461,0.20176565647125244,-0.11922958493232727
1732873717415067400,0.5840673828125,-0.8045749664306641,0.2533680200576782,-0.13262666761875153
1732873717425046500,0.594046630859375,-0.9451389312744141,0.2677288055419922,-0.02468864619731903
1732873717435056000,0.60405615234375,-0.8873939514160156,0.1991133689880371,0.22624912858009338
1732873717445066000,0.61406591796875,-0.7178211212158203,0.10144245624542236,0.43508440256118774
1732873717455075600,0.62407568359375,-0.6208992004394531,0.06838428974151611,0.43386131525039673
1732873717465055000,0.634054931640625,-0.40744972229003906,0.00611722469329834,0.3697529137134552
1732873717475064800,0.64406494140625,-0.1324024200439453,-0.019072413444519043,0.27192389965057373
1732873717485074700,0.65407470703125,0.14931201934814453,-0.04845309257507324,0.19729243218898773
1732873717495053800,0.6640537109375,0.3017606735229492,-0.10622787475585938,0.2628365457057953
1732873717505063700,0.674063720703125,0.22011661529541016,-0.0704883337020874,0.11075739562511444
1732873717515073500,0.684073486328125,0.02407360076904297,0.019564151763916016,0.020854495465755463
1732873717525052700,0.694052734375,-0.14508724212646484,0.10708761215209961,0.04283522814512253
1732873717535062300,0.704062255859375,-0.3977537155151367,0.06818890571594238,0.23290282487869263
1732873717545072000,0.714072021484375,-0.6647367477416992,0.06236708164215088,0.25856536626815796
1732873717555051300,0.72405126953125,-0.6187419891357422,0.09182655811309814,0.09594254940748215
1732873717565061000,0.73406103515625,-0.35199832916259766,0.05132627487182617,-0.006613865494728088
1732873717575071000,0.744071044921875,0.08480453491210938,0.11612915992736816,-0.26233285665512085
1732873717585050000,0.754050048828125,0.5026350021362305,-0.006193399429321289,-0.0409708209335804
1732873717595060000,0.76406005859375,0.5312309265136719,-0.040936946868896484,-0.019990501925349236
1732873717605069800,0.77406982421875,0.4464073181152344,-0.04412376880645752,0.05097447335720062
1732873717615049000,0.784049072265625,0.2671642303466797,-0.101249098777771,0.17525814473628998
1732873717625058800,0.794058837890625,0.040963172912597656,-0.09466052055358887,0.2771309018135071
1732873717635068400,0.804068359375,-0.11306285858154297,-0.07570993900299072,0.3005351424217224
1732873717645047800,0.8140478515625,-0.2195272445678711,-0.03793132305145264,0.27782121300697327
1732873717655057400,0.824057373046875,-0.3121786117553711,-0.0039473772048950195,0.24959692358970642
1732873717665067300,0.8340673828125,-0.3143148422241211,0.059159159660339355,0.1568337380886078
1732873717675046400,0.84404638671875,-0.19475936889648438,0.06249654293060303,0.14233055710792542
1732873717685056300,0.85405615234375,-0.06010723114013672,0.08061790466308594,0.08422770351171494
1732873717695066000,0.864066162109375,0.0048828125,0.05004584789276123,0.05665106326341629
1732873717705075700,0.87407568359375,-0.00409698486328125,0.06106829643249512,0.08731412142515182
1732873717715055000,0.88405517578125,0.0039081573486328125,0.06112468242645264,0.08338037133216858
1732873717725065000,0.89406494140625,0.026421546936035156,0.05550062656402588,0.07506085932254791
1732873717735074600,0.904074462890625,-0.0491943359375,0.0066269636154174805,0.12605412304401398
1732873717745054000,0.914053955078125,-0.11995792388916016,-0.003993034362792969,0.2389257401227951
1732873717755063600,0.9240634765625,-0.1332874298095703,0.045446157455444336,0.10638627409934998
1732873717765073200,0.9340732421875,-0.17069339752197266,-0.02344202995300293,0.2904459536075592
1732873717775052500,0.944052490234375,-0.15614032745361328,-0.050874948501586914,0.34064555168151855
1732873717785062400,0.9540625,-0.0077266693115234375,-0.07465660572052002,0.3429701030254364
1732873717795072000,0.964072021484375,0.2099008560180664,-0.06834232807159424,0.4276122748851776
1732873717805051400,0.974051513671875,0.3173036575317383,-0.020640850067138672,0.5098219513893127
1732873717815061200,0.984061279296875,0.2693643569946289,0.05910086631774902,0.4963616132736206
1732873717825070800,0.99407080078125,0.16224956512451172,0.26429426670074463,0.5026067495346069
1732873717835050000,1.004050048828125,0.1850576400756836,0.3988858461380005,0.6846678853034973
1732873717845059800,1.014059814453125,0.13890933990478516,0.4663975238800049,0.9285874366760254
1732873717855069700,1.024069580078125,0.04987144470214844,0.49996674060821533,1.0076534748077393
1732873717865048800,1.034048828125,0.19754981994628906,0.3900628089904785,0.9549416303634644
1732873717875058700,1.04405859375,0.722564697265625,0.2523449659347534,0.955608606338501
1732873717885068500,1.054068603515625,1.470759391784668,0.12061119079589844,0.766533374786377
1732873717895047700,1.064047607421875,2.422574043273926,0.1427309513092041,1.034490942955017
1732873717905057500,1.0740576171875,2.856313705444336,-0.18247699737548828,1.8408703804016113
1732873717915067400,1.0840673828125,2.505434989929199,-0.45396387577056885,2.7510440349578857
1732873717925046500,1.094046630859375,1.7606658935546875,-0.7240114212036133,3.4092931747436523
1732873717935056100,1.10405615234375,0.7485647201538086,-0.6873133182525635,3.8320231437683105
1732873717945066000,1.11406591796875,-0.29978275299072266,-0.5444645881652832,3.4351704120635986
1732873717955075600,1.12407568359375,-1.3980398178100586,-0.5753589868545532,2.9739279747009277
1732873717965055000,1.134054931640625,-2.0237464904785156,0.14215517044067383,2.0824403762817383
1732873717975064800,1.14406494140625,-2.576284408569336,-1.0738744735717773,2.7958409786224365
1732873717985074700,1.15407470703125,-1.8379497528076172,-1.5106303691864014,4.548458099365234
1732873717995053800,1.1640537109375,-0.33634090423583984,-1.4270354509353638,4.313464164733887
1732873718005063700,1.174063720703125,0.3080921173095703,-1.3451063632965088,3.619736671447754
1732873718015073500,1.184073486328125,0.7345962524414062,-1.0406328439712524,3.103254795074463
1732873718025052700,1.194052734375,0.9463186264038086,-0.5021451711654663,1.99680757522583
1732873718035062300,1.204062255859375,1.0946941375732422,-0.06730532646179199,1.2765758037567139
1732873718045072100,1.214072021484375,0.9648017883300781,0.23543405532836914,1.1033833026885986
1732873718055051300,1.22405126953125,0.5236015319824219,0.38342297077178955,1.3076751232147217
1732873718065061000,1.23406103515625,-0.441802978515625,0.3832850456237793,1.6583001613616943
1732873718075071000,1.244071044921875,-1.2404050827026367,0.17248821258544922,1.7521169185638428
1732873718085050000,1.254050048828125,-1.4367952346801758,-0.5881664752960205,1.7949942350387573
1732873718095060000,1.26406005859375,-1.039865493774414,-1.3725004196166992,1.6142849922180176
1732873718105069800,1.27406982421875,0.1916370391845703,-2.13061261177063,1.1786519289016724
1732873718115049000,1.284049072265625,1.6452445983886719,-2.502986192703247,0.6327342391014099
1732873718125058800,1.294058837890625,3.042616844177246,-2.3892440795898438,-0.43492966890335083
1732873718135068700,1.304068603515625,3.2639007568359375,-2.1313729286193848,-1.2493879795074463
1732873718145047800,1.3140478515625,2.4060144424438477,-1.9152271747589111,-1.287421703338623
1732873718155057400,1.324057373046875,0.6355857849121094,-1.750304937362671,-0.7908285856246948
1732873718165067300,1.3340673828125,-1.5710043907165527,-1.399221658706665,-0.7305085062980652
1732873718175046400,1.34404638671875,-3.619940757751465,-1.2873663902282715,-0.23308220505714417
1732873718185056300,1.35405615234375,-4.643630504608154,-1.3053598403930664,0.05427461862564087
1732873718195066000,1.364066162109375,-4.83784818649292,-1.1898760795593262,-0.25911474227905273
1732873718205075700,1.37407568359375,-4.054961681365967,-1.2241616249084473,-0.603502631187439
1732873718215055000,1.38405517578125,-2.239718437194824,-1.4381921291351318,-0.7518194913864136
1732873718225065000,1.39406494140625,-0.24399280548095703,-1.4308736324310303,-1.2489286661148071
1732873718235074600,1.404074462890625,1.9423713684082031,-1.5872595310211182,-1.2495677471160889
1732873718245054000,1.414053955078125,3.2074785232543945,-1.9691880941390991,-0.5216867327690125
1732873718255063600,1.4240634765625,3.3255367279052734,-1.9919660091400146,-0.3240935802459717
1732873718265073200,1.4340732421875,2.688656806945801,-1.9542927742004395,-0.46494260430336
1732873718275052500,1.444052490234375,1.848801612854004,-1.7885934114456177,-0.6785684823989868
1732873718285062400,1.4540625,1.1175689697265625,-1.630317211151123,-0.7784366607666016
1732873718295072000,1.464072021484375,0.638697624206543,-1.4725395441055298,-0.8452123999595642
1732873718305051400,1.474051513671875,0.1679983139038086,-1.2429074048995972,-0.969192624092102
1732873718315061200,1.484061279296875,-0.0916595458984375,-1.1739253997802734,-0.9168495535850525
1732873718325070800,1.49407080078125,-0.21782398223876953,-1.1909458637237549,-0.9951538443565369
1732873718335050200,1.50405029296875,-0.2966756820678711,-1.140331506729126,-1.2513794898986816
1732873718345059800,1.514059814453125,-0.26097774505615234,-1.1547207832336426,-1.4689123630523682
1732873718355069700,1.524069580078125,-0.28525447845458984,-1.2458206415176392,-1.5446430444717407
1732873718365048800,1.534048828125,-0.2594013214111328,-1.3641548156738281,-1.5584551095962524
1732873718375058700,1.54405859375,-0.011425971984863281,-1.5211567878723145,-1.462608814239502
1732873718385068500,1.554068603515625,0.3553285598754883,-1.6702450513839722,-1.3778725862503052
1732873718395047700,1.564047607421875,0.7478189468383789,-1.7607238292694092,-1.3251034021377563
1732873718405057500,1.5740576171875,0.9228305816650391,-1.7972960472106934,-1.3135061264038086
1732873718415067400,1.5840673828125,1.0292177200317383,-1.8204638957977295,-1.3301479816436768
1732873718425046500,1.594046630859375,0.966547966003418,-1.8478233814239502,-1.2185508012771606
1732873718435056000,1.60405615234375,0.821014404296875,-1.9202169179916382,-1.0525901317596436
1732873718445066000,1.61406591796875,0.5942440032958984,-1.4712156057357788,-0.6341635584831238
1732873718455075600,1.62407568359375,0.3266429901123047,-1.1201821565628052,-0.3300766348838806
1732873718465055000,1.634054931640625,0.052150726318359375,-0.812385082244873,-0.05206194519996643
1732873718475064800,1.64406494140625,-0.1961498260498047,-0.5543749928474426,0.14026916027069092
1732873718485074700,1.65407470703125,-0.5215187072753906,-0.22043494880199432,0.23166248202323914
1732873718495053800,1.6640537109375,-0.9050474166870117,-0.010921269655227661,0.24620184302330017
1732873718505063700,1.674063720703125,-1.531637191772461,0.14383316040039062,0.075457364320755
1732873718515073500,1.684073486328125,-1.7700462341308594,0.14532655477523804,0.061367303133010864
1732873718525052700,1.694052734375,-1.646780014038086,0.09529238939285278,0.12091252207756042
1732873718535062300,1.704062255859375,-1.2793378829956055,0.07769373059272766,0.10477355122566223
1732873718545072000,1.714072021484375,-0.5815954208374023,-0.020856067538261414,0.07048985362052917
1732873718555051300,1.72405126953125,0.13991260528564453,-0.10607108473777771,0.03460890054702759
1732873718565061000,1.73406103515625,0.8277072906494141,-0.05049099773168564,-0.14819008111953735
1732873718575070700,1.74407080078125,1.3263273239135742,0.10104530304670334,-0.4383190870285034
1732873718585050000,1.754050048828125,1.6981630325317383,0.26024436950683594,-0.599571168422699
1732873718595060000,1.76406005859375,1.857529640197754,0.4059962332248688,-0.8236623406410217
1732873718605069800,1.77406982421875,1.8498287200927734,0.5924474596977234,-0.9351284503936768
1732873718615049000,1.784049072265625,1.6438446044921875,0.8781923055648804,-1.1952452659606934
1732873718625058800,1.794058837890625,1.4907922744750977,1.1264715194702148,-1.356431245803833
1732873718635068700,1.804068603515625,1.258763313293457,1.2918974161148071,-1.2572282552719116
1732873718645047800,1.8140478515625,0.8182830810546875,1.4081274271011353,-1.2009482383728027
1732873718655057400,1.824057373046875,0.23868942260742188,1.5768461227416992,-1.2180840969085693
1732873718665067300,1.8340673828125,-0.22624492645263672,1.631593942642212,-1.1233952045440674
1732873718675046400,1.84404638671875,-0.7343053817749023,1.6948740482330322,-1.1925086975097656
1732873718685056300,1.85405615234375,-1.0940113067626953,1.796140193939209,-1.407727837562561
1732873718695066000,1.864066162109375,-1.2238283157348633,1.8787388801574707,-1.7031720876693726
1732873718705075700,1.87407568359375,-1.14764404296875,1.892542839050293,-1.9021804332733154
1732873718715055000,1.88405517578125,-0.9899301528930664,1.8694729804992676,-1.900167465209961
1732873718725065000,1.89406494140625,-0.7051982879638672,1.8366155624389648,-1.9773119688034058
1732873718735074600,1.904074462890625,-0.37961578369140625,1.7980625629425049,-1.998185157775879
1732873718745054000,1.914053955078125,-0.08030891418457031,1.7912507057189941,-1.9799914360046387
1732873718755063600,1.9240634765625,0.04182910919189453,1.7921061515808105,-2.0147037506103516
1732873718765073200,1.9340732421875,0.049042701721191406,1.8615822792053223,-2.127251386642456
1732873718775052500,1.944052490234375,-0.0155792236328125,1.9708099365234375,-2.3077311515808105
1732873718785062400,1.9540625,-0.020340919494628906,2.056593418121338,-2.329381227493286
1732873718795072000,1.964072021484375,-0.051407814025878906,2.161222457885742,-2.4100582599639893
1732873718805051400,1.974051513671875,-0.05128288269042969,2.3412375450134277,-2.4615256786346436
1732873718815061200,1.984061279296875,-0.007975578308105469,2.533174514770508,-2.4540205001831055
1732873718825070800,1.99407080078125,0.06177520751953125,2.6719508171081543,-2.46366810798645
1732873718835050200,2.00405029296875,0.0812835693359375,2.852968692779541,-2.3652689456939697
1732873718845059800,2.014059814453125,0.1102590560913086,2.838221788406372,-2.2177436351776123
1732873718855069700,2.024069580078125,0.07197284698486328,2.757485866546631,-1.9767261743545532
1732873718865048800,2.034048828125,-0.012040138244628906,2.5937469005584717,-1.7136809825897217
1732873718875058700,2.04405859375,0.01157379150390625,2.418494462966919,-1.5079388618469238
1732873718885068500,2.054068603515625,0.126251220703125,2.323822498321533,-1.337759017944336
1732873718895047700,2.064047607421875,0.3990774154663086,2.1829869747161865,-1.1279264688491821
1732873718905075000,2.074074951171875,0.6624345779418945,2.0987348556518555,-1.051865577697754
1732873718915084800,2.084084716796875,0.8540115356445312,2.1161816120147705,-1.0163531303405762
1732873718925064000,2.09406396484375,0.961787223815918,2.175502300262451,-0.9430522322654724
1732873718935073800,2.10407373046875,0.7414741516113281,2.323273181915283,-0.9185629487037659
1732873718945083600,2.114083740234375,0.2336721420288086,2.2021560668945312,-0.6134147047996521
1732873718955093200,2.12409326171875,-0.2374114990234375,1.9476380348205566,-0.10979488492012024
1732873718965072600,2.13407275390625,-0.5608692169189453,1.9825690984725952,0.39042341709136963
1732873718975082500,2.14408251953125,-0.6682977676391602,1.9026845693588257,0.909308671951294
1732873718985092000,2.154092041015625,-0.6483335494995117,1.8053810596466064,1.4225428104400635
1732873718995071200,2.1640712890625,-0.6088190078735352,1.8501989841461182,1.5167454481124878
1732873719005081000,2.1740810546875,-0.7054128646850586,1.7832920551300049,1.3215787410736084
1732873719015090700,2.184090576171875,-0.876312255859375,1.7499496936798096,0.9121785163879395
1732873719025070000,2.194070068359375,-0.8374443054199219,1.62553071975708,0.6688417196273804
1732873719035080000,2.204079833984375,-0.5122623443603516,1.3506739139556885,0.6059476137161255
1732873719045089800,2.21408984375,-0.042136192321777344,1.167729139328003,0.3476808965206146
1732873719055069000,2.22406884765625,0.7359018325805664,1.0200252532958984,0.07979431748390198
1732873719065078800,2.234078857421875,1.320857048034668,1.3147883415222168,-0.6290751099586487
1732873719075088600,2.244088623046875,1.6617403030395508,1.1366266012191772,-0.4497672915458679
1732873719085067800,2.25406787109375,1.6014461517333984,0.9494685530662537,0.030655384063720703
1732873719095077400,2.264077392578125,0.9413442611694336,0.9036184549331665,0.42123013734817505
1732873719105087200,2.274087158203125,0.1298208236694336,0.8996216654777527,0.7856074571609497
1732873719115066400,2.28406640625,-0.6500883102416992,0.979810357093811,1.0969187021255493
1732873719125076200,2.294076171875,-1.3362722396850586,1.0619146823883057,1.3252153396606445
1732873719135086000,2.304086181640625,-1.7614707946777344,1.4607102870941162,1.0365805625915527
1732873719145065200,2.314065185546875,-1.99055814743042,1.692525863647461,0.9186122417449951
1732873719155075000,2.324074951171875,-1.903487205505371,1.8512810468673706,1.1141918897628784
1732873719165085000,2.3340849609375,-1.936814785003662,2.001127004623413,1.4185926914215088
1732873719175064000,2.34406396484375,-2.10028076171875,2.083639621734619,1.6117606163024902
1732873719185073700,2.35407373046875,-2.425123691558838,2.112748622894287,1.4667927026748657
1732873719195083500,2.36408349609375,-2.6256537437438965,2.199009895324707,1.228546380996704
1732873719205093000,2.374093017578125,-2.609328269958496,2.153310775756836,1.108695149421692
1732873719215072500,2.384072509765625,-2.4052562713623047,2.160238265991211,0.9501007795333862
1732873719225082400,2.394082275390625,-2.032546043395996,2.2316389083862305,0.8306177854537964
1732873719235092000,2.404092041015625,-1.636826515197754,2.4150302410125732,0.6956674456596375
1732873719245071400,2.4140712890625,-1.2536516189575195,2.5024476051330566,0.8701555728912354
1732873719255081200,2.424081298828125,-1.4329862594604492,2.7944531440734863,1.3116527795791626
1732873719265090800,2.4340908203125,-1.495065689086914,2.798935890197754,2.2124648094177246
1732873719275070200,2.4440703125,-0.6209936141967773,3.2219858169555664,0.9066601395606995
1732873719285079800,2.454079833984375,0.2744941711425781,3.3279314041137695,0.5771694183349609
1732873719295089400,2.46408935546875,0.7812118530273438,3.3349053859710693,1.3147984743118286
1732873719305068800,2.47406884765625,1.0298576354980469,3.1248488426208496,1.5381181240081787
1732873719315078700,2.48407861328125,1.401535987854004,2.994373083114624,1.1787524223327637
1732873719325088300,2.494088134765625,1.7458419799804688,2.899649143218994,0.9741607904434204
1732873719335067600,2.504067626953125,1.9444389343261719,2.744258165359497,1.1889981031417847
1732873719345077500,2.514077392578125,1.9665699005126953,2.68149471282959,1.5026676654815674
1732873719355087400,2.52408740234375,1.5826387405395508,2.6866023540496826,1.627841830253601
1732873719365066500,2.53406640625,0.9749317169189453,2.67274808883667,1.6818782091140747
1732873719375076400,2.544076416015625,-0.009486198425292969,2.6807498931884766,1.8059067726135254
1732873719385086000,2.5540859375,-1.4325742721557617,2.7664401531219482,1.588515043258667
1732873719395065300,2.5640654296875,-2.4369421005249023,2.9232490062713623,1.5460338592529297
1732873719405075000,2.574074951171875,-3.260805606842041,3.0743942260742188,1.5305308103561401
1732873719415084800,2.584084716796875,-3.6871113777160645,3.1094095706939697,1.4901788234710693
1732873719425064000,2.59406396484375,-3.8723912239074707,2.882009506225586,1.295603632926941
1732873719435073800,2.60407373046875,-3.439340114593506,2.6401283740997314,1.156944751739502
1732873719445083600,2.614083740234375,-2.189971923828125,2.316226005554199,1.035886526107788
1732873719455093200,2.62409326171875,-0.8139877319335938,1.9798388481140137,0.7473669052124023
1732873719465072600,2.63407275390625,0.2549476623535156,1.7719182968139648,0.38644933700561523
1732873719475082500,2.64408251953125,1.1983966827392578,1.6889595985412598,0.02386520802974701
1732873719485092400,2.65409228515625,1.6244239807128906,1.7223734855651855,-0.2304690182209015
1732873719495071200,2.6640712890625,1.8185844421386719,1.9047194719314575,-0.4736166000366211
1732873719505081000,2.6740810546875,1.8872699737548828,2.091787815093994,-0.4578081965446472
1732873719515091000,2.684091064453125,1.8772850036621094,2.2778422832489014,-0.485949844121933
1732873719525070000,2.694070068359375,1.7050714492797852,2.4043471813201904,-0.5153629779815674
1732873719535080000,2.704079833984375,1.5025501251220703,2.5055482387542725,-0.4531332552433014
1732873719545089800,2.71408984375,1.3797616958618164,2.518338680267334,-0.3967735767364502
1732873719555069000,2.72406884765625,1.2906990051269531,2.4924864768981934,-0.43471238017082214
1732873719565078800,2.734078857421875,1.4122543334960938,2.2813546657562256,-0.5684126615524292
1732873719575088600,2.744088623046875,1.7297697067260742,1.9392937421798706,-0.663520097732544
1732873719585067800,2.75406787109375,2.329242706298828,1.5721704959869385,-0.8188588619232178
1732873719595077400,2.764077392578125,3.00960636138916,1.1838750839233398,-0.8894942402839661
1732873719605087000,2.7740869140625,3.900279998779297,0.6193336844444275,-0.7165968418121338
1732873719615066400,2.78406640625,4.558441162109375,0.16582342982292175,-0.4818442761898041
1732873719625076200,2.794076171875,5.109046936035156,-0.2833713889122009,-0.15619856119155884
1732873719635086000,2.804086181640625,5.09967041015625,-0.46850329637527466,0.048695191740989685
1732873719645065200,2.814065185546875,4.580721855163574,-0.3597521185874939,0.21179141104221344
1732873719655075000,2.824074951171875,3.4831418991088867,-0.030496031045913696,0.041760124266147614
1732873719665085000,2.8340849609375,1.850510597229004,0.4744439125061035,-0.29330354928970337
1732873719675064000,2.84406396484375,-0.055771827697753906,0.7476046681404114,-0.28833991289138794
1732873719685073700,2.85407373046875,-1.7033491134643555,0.8877969980239868,-0.17470696568489075
1732873719695083500,2.86408349609375,-3.313066005706787,1.0146853923797607,-0.3012212812900543
1732873719705093000,2.874093017578125,-4.329774379730225,1.1719908714294434,-0.7953904867172241
1732873719715072500,2.884072509765625,-4.87872838973999,1.2214174270629883,-1.5378001928329468
1732873719725082400,2.894082275390625,-4.822203159332275,1.085932731628418,-2.1703739166259766
1732873719735092000,2.904092041015625,-4.312602996826172,0.7804996967315674,-2.832429885864258
1732873719745071400,2.9140712890625,-3.2436537742614746,0.3803185224533081,-2.9036190509796143
1732873719755081200,2.924081298828125,-1.9753522872924805,-0.04821658134460449,-2.6730384826660156
1732873719765090800,2.9340908203125,-0.8822498321533203,-0.37202340364456177,-2.1037423610687256
1732873719775070200,2.9440703125,-0.30520057678222656,-0.5838000774383545,-1.665914535522461
1732873719785079800,2.954079833984375,0.08560943603515625,-0.43037745356559753,-1.2725270986557007
1732873719795089400,2.96408935546875,0.4276466369628906,-0.23007190227508545,-1.0485165119171143
1732873719805068800,2.97406884765625,0.9150638580322266,0.07021307945251465,-0.6922045350074768
1732873719815078700,2.98407861328125,1.0663766860961914,0.46075111627578735,-0.617490828037262
1732873719825088300,2.994088134765625,0.8336400985717773,1.0614454746246338,-0.8345916271209717
1732873719835067600,3.004067626953125,0.13608074188232422,1.4084196090698242,-0.8476210832595825
1732873719845077500,3.014077392578125,-0.7923603057861328,1.7095770835876465,-0.531416118144989
1732873719855087400,3.02408740234375,-1.7177419662475586,1.8704662322998047,-0.2490774691104889
1732873719865066500,3.03406640625,-2.682798385620117,1.8974151611328125,0.13447770476341248
1732873719875076400,3.044076416015625,-3.4795408248901367,1.8385262489318848,0.40145352482795715
1732873719885086000,3.0540859375,-4.074873924255371,1.7515366077423096,0.587255597114563
1732873719895065300,3.0640654296875,-4.299630641937256,1.7543376684188843,0.4682604968547821
1732873719905075000,3.074074951171875,-3.9950618743896484,1.7103805541992188,0.4202057421207428
1732873719915084800,3.084084716796875,-3.144052505493164,1.609701156616211,0.2607863247394562
1732873719925064000,3.09406396484375,-2.5673880577087402,1.5913370847702026,0.000743567943572998
1732873719935073800,3.10407373046875,-2.14943265914917,1.5576306581497192,-0.2811427116394043
1732873719945083600,3.114083740234375,-1.8227405548095703,1.5385068655014038,-0.5720679759979248
1732873719955093200,3.12409326171875,-1.414876937866211,1.5410456657409668,-0.9216991662979126
1732873719965072600,3.13407275390625,-0.99298095703125,1.5474493503570557,-1.2308602333068848
1732873719975082500,3.14408251953125,-0.5882406234741211,1.5680756568908691,-1.4637393951416016
1732873719985092400,3.15409228515625,-0.11705303192138672,1.5713253021240234,-1.5659894943237305
1732873719995071200,3.1640712890625,0.5074949264526367,1.547872543334961,-1.6113545894622803
1732873720005081000,3.1740810546875,1.2733659744262695,1.5584230422973633,-1.3702670335769653
1732873720015090700,3.184090576171875,1.8244695663452148,1.5578242540359497,-1.0829429626464844
1732873720025070000,3.194070068359375,2.1084518432617188,1.5444421768188477,-0.7194265723228455
1732873720035080000,3.204079833984375,2.02268123626709,1.355003833770752,-0.28326210379600525
1732873720045089800,3.21408984375,1.6105890274047852,1.51753830909729,0.02282536029815674
1732873720055069000,3.22406884765625,1.0771284103393555,1.64621102809906,0.32896140217781067
1732873720065078800,3.234078857421875,0.656275749206543,1.6338175535202026,0.6523239612579346
1732873720075088600,3.244088623046875,0.5727825164794922,1.5532687902450562,0.9507073760032654
1732873720085067800,3.25406787109375,0.8479518890380859,1.3522732257843018,1.187143325805664
1732873720095077400,3.264077392578125,1.4192705154418945,1.1433238983154297,1.4338442087173462
1732873720105087200,3.274087158203125,2.200674057006836,0.9611183404922485,1.6428108215332031
1732873720115066400,3.28406640625,2.658543586730957,1.0784566402435303,1.556554913520813
1732873720125076200,3.294076171875,2.729252815246582,0.9804426431655884,1.1856319904327393
1732873720135086000,3.304086181640625,2.784377098083496,0.5924757719039917,1.0344767570495605
1732873720145065200,3.314065185546875,2.747678756713867,0.23358845710754395,0.947138249874115
1732873720155075000,3.324074951171875,2.9160966873168945,-0.12195289134979248,0.8909447193145752
1732873720165085000,3.3340849609375,3.093216896057129,-0.19259285926818848,0.8155765533447266
1732873720175064000,3.34406396484375,3.171017646789551,-0.134812593460083,0.695960521697998
1732873720185073700,3.35407373046875,2.397890090942383,0.07060158252716064,0.45268064737319946
1732873720195083300,3.364083251953125,1.1117563247680664,0.40404438972473145,0.2064032256603241
1732873720205093000,3.374093017578125,0.15819835662841797,0.39462971687316895,0.31317993998527527
1732873720215072500,3.384072509765625,-0.629547119140625,0.18679773807525635,0.8353537917137146
1732873720225082400,3.394082275390625,-1.1349506378173828,-0.039365172386169434,1.5241345167160034
1732873720235092000,3.404092041015625,-1.3663005828857422,-0.13684046268463135,1.9317346811294556
1732873720245071400,3.4140712890625,-1.4377403259277344,-0.3276526927947998,2.1419870853424072
1732873720255081200,3.424081298828125,-1.3145380020141602,-0.6966840028762817,2.4087398052215576
1732873720265090800,3.4340908203125,-1.401860237121582,-1.113196849822998,2.258850336074829
1732873720275070200,3.4440703125,-1.5718870162963867,-1.3843483924865723,1.6298669576644897
1732873720285079800,3.454079833984375,-1.345703125,-1.7407299280166626,0.999355137348175
1732873720295089400,3.46408935546875,-0.6129293441772461,-2.105584144592285,0.7367839813232422
1732873720305068800,3.47406884765625,0.45539188385009766,-2.2228434085845947,0.4832683801651001
1732873720315078700,3.48407861328125,1.3163928985595703,-2.012179374694824,0.31842583417892456
1732873720325088300,3.494088134765625,1.6553926467895508,-1.602798342704773,0.2617456614971161
1732873720335067600,3.504067626953125,1.0915746688842773,-1.254125952720642,0.49613577127456665
1732873720345077500,3.514077392578125,-0.05181407928466797,-0.8431115746498108,0.5558755397796631
1732873720355087400,3.52408740234375,-1.3614311218261719,-0.3791769742965698,0.5005645155906677
1732873720365066500,3.53406640625,-2.3703665733337402,-0.05037510395050049,0.6959947347640991
1732873720375076400,3.544076416015625,-3.402973175048828,0.21498847007751465,0.9534580707550049
1732873720385086000,3.5540859375,-4.086859703063965,0.503045916557312,1.0358203649520874
1732873720395065300,3.5640654296875,-4.569640636444092,0.7180954217910767,1.0460158586502075
1732873720405075200,3.5740751953125,-4.819342136383057,0.9068541526794434,1.0506094694137573
1732873720415084800,3.584084716796875,-4.777400970458984,1.1023305654525757,1.0117950439453125
1732873720425064000,3.59406396484375,-4.4412150382995605,1.278869867324829,0.9245023131370544
1732873720435073800,3.60407373046875,-3.966426372528076,1.2974941730499268,0.6487116813659668
1732873720445083600,3.614083740234375,-3.3090295791625977,1.312246322631836,0.43333470821380615
1732873720455093200,3.62409326171875,-2.7935867309570312,1.1809871196746826,0.2666357457637787
1732873720465072600,3.63407275390625,-2.096444606781006,0.9297772645950317,0.16808131337165833
1732873720475082500,3.64408251953125,-1.2533445358276367,0.6367594003677368,0.3063581585884094
1732873720485092400,3.65409228515625,-0.16614818572998047,0.41316068172454834,0.3211800456047058
1732873720495071200,3.6640712890625,0.6342954635620117,0.2770882844924927,0.15628580749034882
1732873720505081000,3.6740810546875,1.4741134643554688,0.1723700761795044,0.06749525666236877
1732873720515091000,3.684091064453125,2.1691274642944336,0.07066357135772705,0.12646248936653137
1732873720525070000,3.694070068359375,2.7194738388061523,0.024103760719299316,0.3120141923427582
1732873720535080000,3.704079833984375,2.9026451110839844,0.06537216901779175,0.7265262603759766
1732873720545089800,3.71408984375,2.4455137252807617,0.20748943090438843,0.9623959064483643
1732873720555069000,3.72406884765625,1.4123125076293945,0.4565016031265259,1.131009578704834
1732873720565078800,3.734078857421875,0.5359249114990234,0.6484696865081787,1.089091420173645
1732873720575088600,3.744088623046875,0.08633232116699219,0.8548637628555298,0.9964230060577393
1732873720585067800,3.75406787109375,-0.14976215362548828,1.0031132698059082,1.0837538242340088
1732873720595077400,3.764077392578125,-0.016709327697753906,1.1022950410842896,1.3046077489852905
1732873720605087000,3.7740869140625,0.2218608856201172,1.130061388015747,1.449047565460205
1732873720615066400,3.78406640625,0.7021360397338867,1.215553879737854,1.4531551599502563
1732873720625076200,3.794076171875,1.1198539733886719,1.333606243133545,1.3427903652191162
1732873720635086000,3.804086181640625,1.1588878631591797,1.4913537502288818,0.950974702835083
1732873720645065200,3.814065185546875,1.055379867553711,1.6218132972717285,0.5000980496406555
1732873720655075000,3.824074951171875,0.96429443359375,1.6596275568008423,0.3710469603538513
1732873720665085000,3.8340849609375,0.9194107055664062,1.5019233226776123,0.2841647267341614
1732873720675064000,3.84406396484375,1.1587705612182617,1.3220549821853638,0.29697054624557495
1732873720685073700,3.85407373046875,1.7541122436523438,1.1756800413131714,0.4179205894470215
1732873720695083500,3.86408349609375,2.3055009841918945,1.0351954698562622,0.5736179351806641
1732873720705093000,3.874093017578125,2.8825769424438477,0.9588421583175659,0.6087210178375244
1732873720715072500,3.884072509765625,2.700289726257324,1.0763520002365112,0.20216700434684753
1732873720725082400,3.894082275390625,2.2140235900878906,1.0408625602722168,-0.5078892111778259
1732873720735092000,3.904092041015625,1.7663946151733398,0.5416991710662842,-0.9733004570007324
1732873720745071400,3.9140712890625,1.9388885498046875,-0.14500218629837036,-1.4686174392700195
1732873720755081200,3.924081298828125,2.8002328872680664,-0.8900602459907532,-1.5956364870071411
1732873720765090800,3.9340908203125,4.455327987670898,-1.663026213645935,-1.0431015491485596
1732873720775070200,3.9440703125,5.925503730773926,-2.137669563293457,-0.21058355271816254
1732873720785079800,3.954079833984375,6.169233322143555,-2.2110490798950195,0.32856184244155884
1732873720795089400,3.96408935546875,4.584771156311035,-1.8912286758422852,0.2712622284889221
1732873720805068800,3.97406884765625,2.521242141723633,-1.3889751434326172,0.09965144097805023
1732873720815078700,3.98407861328125,-0.3535594940185547,-0.9581108093261719,0.026529792696237564
1732873720825088300,3.994088134765625,-2.7413954734802246,-0.5276755690574646,-0.037736926227808
1732873720835067600,4.004067626953125,-5.071307182312012,-0.13718819618225098,-0.3115345239639282
1732873720845077500,4.014077392578125,-6.679050922393799,0.12372875213623047,-0.6439822316169739
1732873720855087400,4.02408740234375,-7.598661422729492,0.23925352096557617,-1.0051337480545044
1732873720865066500,4.03406640625,-7.581679821014404,-0.021712183952331543,-0.9541321992874146
1732873720875076400,4.044076416015625,-6.687042236328125,-0.4480222463607788,-0.7199710011482239
1732873720885086000,4.0540859375,-5.197309970855713,-0.8627252578735352,-0.5509350299835205
1732873720895065300,4.0640654296875,-3.611264705657959,-1.1271662712097168,-0.3789427578449249
1732873720905075200,4.0740751953125,-1.790414810180664,-1.2325983047485352,-0.12411436438560486
1732873720915084800,4.084084716796875,-0.5180149078369141,-1.0460954904556274,-0.27463021874427795
1732873720925064000,4.09406396484375,0.38577747344970703,-0.7497032880783081,-0.498472660779953
1732873720935073800,4.10407373046875,0.9910316467285156,-0.42522042989730835,-0.35099929571151733
1732873720945083600,4.114083740234375,1.427459716796875,-0.20212191343307495,0.08622997254133224
1732873720955093200,4.12409326171875,1.304408073425293,0.09824264049530029,0.43315863609313965
1732873720965072600,4.13407275390625,0.46035289764404297,0.5357865691184998,0.20564638078212738
1732873720975082500,4.14408251953125,-0.33953189849853516,0.920857310295105,0.07614561170339584
1732873720985092400,4.15409228515625,-1.2641267776489258,1.1935677528381348,0.05037926137447357
1732873720995071200,4.1640712890625,-1.572275161743164,1.3856792449951172,0.14038816094398499
1732873721005081000,4.1740810546875,-1.7635364532470703,1.372901201248169,0.3126824200153351
1732873721015091000,4.184091064453125,-1.6258125305175781,1.322577953338623,0.516909658908844
1732873721025070000,4.194070068359375,-1.291147232055664,1.2581191062927246,0.43822091817855835
1732873721035080000,4.204079833984375,-0.771367073059082,1.1970531940460205,0.19610713422298431
1732873721045089800,4.21408984375,-0.3387899398803711,1.1753551959991455,-0.12975703179836273
1732873721055069000,4.22406884765625,0.10096359252929688,1.0751643180847168,-0.33451059460639954
1732873721065078800,4.234078857421875,0.42411327362060547,1.012225866317749,-0.3092951774597168
1732873721075088400,4.24408837890625,0.4850292205810547,0.9410591721534729,-0.23462478816509247
1732873721085067800,4.25406787109375,0.35869312286376953,0.9340658783912659,-0.30392250418663025
1732873721095077400,4.264077392578125,0.17124462127685547,0.8651818037033081,-0.46357011795043945
1732873721105087200,4.274087158203125,0.03724384307861328,0.8081026077270508,-0.5795007944107056
1732873721115066400,4.28406640625,-0.041451454162597656,0.7274976372718811,-0.5631178021430969
1732873721125076200,4.294076171875,-0.03653144836425781,0.674910843372345,-0.4649201035499573
1732873721135086000,4.304086181640625,0.010957717895507812,0.6914804577827454,-0.31867337226867676
1732873721145065200,4.314065185546875,0.07222747802734375,0.7368915677070618,-0.26122307777404785
1732873721155075000,4.324074951171875,0.09729385375976562,0.7514420747756958,-0.20925921201705933
1732873721165085000,4.3340849609375,0.05318164825439453,0.7933822274208069,-0.2913270592689514
1732873721175064000,4.34406396484375,0.009314537048339844,0.7839152812957764,-0.2722693383693695
1732873721185073700,4.35407373046875,0.2502927780151367,0.7378675937652588,-0.11367081850767136
1732873721195083500,4.36408349609375,0.49078845977783203,0.7715362310409546,-0.14940965175628662
1732873721205093000,4.374093017578125,0.7330255508422852,0.6755516529083252,-0.23328512907028198
1732873721215072500,4.384072509765625,1.127737045288086,0.5203324556350708,-0.17437304556369781
1732873721225082400,4.394082275390625,1.6602210998535156,0.47743773460388184,-0.29077664017677307
1732873721235092000,4.404092041015625,2.5891618728637695,0.5283979177474976,-0.2155194729566574
1732873721245071400,4.4140712890625,3.6033735275268555,0.5424156785011292,0.20664261281490326
1732873721255081200,4.424081298828125,4.2097930908203125,0.45422273874282837,0.6947459578514099
1732873721265090800,4.4340908203125,4.040311813354492,0.31014859676361084,1.036790132522583
1732873721275070000,4.444070068359375,3.0169191360473633,-0.09873157739639282,1.331460952758789
1732873721285079800,4.454079833984375,2.497708320617676,-0.6823295950889587,1.6079233884811401
1732873721295089700,4.464089599609375,2.5016212463378906,-1.5668609142303467,1.8950728178024292
1732873721305068800,4.47406884765625,3.3034133911132812,-2.145348310470581,2.360548257827759
1732873721315078700,4.48407861328125,4.921751976013184,-2.3448596000671387,2.772190570831299
1732873721325088300,4.494088134765625,5.705170631408691,-2.0097413063049316,2.542710304260254
1732873721335067600,4.504067626953125,4.8386077880859375,-1.5478730201721191,2.2569446563720703
1732873721345077500,4.514077392578125,3.001084327697754,-0.9744012951850891,2.0254621505737305
1732873721355087400,4.52408740234375,0.7441854476928711,-0.5022778511047363,1.8780559301376343
1732873721365066500,4.53406640625,-2.089200496673584,-0.004072666168212891,1.6392621994018555
1732873721375076400,4.544076416015625,-4.464128017425537,0.22472035884857178,1.5879770517349243
1732873721385086000,4.5540859375,-6.5179243087768555,0.23689866065979004,1.7646154165267944
1732873721395065300,4.5640654296875,-7.54793643951416,0.0032196044921875,1.8747403621673584
1732873721405075200,4.5740751953125,-7.723074436187744,-0.5665216445922852,2.0886735916137695
1732873721415084800,4.584084716796875,-6.580045700073242,-1.1865755319595337,2.2222988605499268
1732873721425064000,4.59406396484375,-3.9269561767578125,-1.8121107816696167,2.0603909492492676
1732873721435073800,4.60407373046875,-1.5733146667480469,-1.943077564239502,1.2800368070602417
1732873721445083600,4.614083740234375,0.3071012496948242,-1.858664870262146,0.6287935972213745
1732873721455093200,4.62409326171875,1.8302249908447266,-1.667913556098938,0.1326257437467575
1732873721465072600,4.63407275390625,2.2688331604003906,-1.3505507707595825,-0.27645421028137207
1732873721475082500,4.64408251953125,1.8739290237426758,-0.8654347658157349,-0.7865777611732483
1732873721485092400,4.65409228515625,0.8228483200073242,-0.524849534034729,-1.0004734992980957
1732873721495071200,4.6640712890625,-0.4730558395385742,-0.2858778238296509,-0.7708995938301086
1732873721505081000,4.6740810546875,-1.4524002075195312,-0.051703453063964844,-0.6398414969444275
1732873721515091000,4.684091064453125,-2.0231971740722656,0.20261573791503906,-0.4865783452987671
1732873721525070000,4.694070068359375,-2.2323336601257324,0.4853881597518921,-0.4754234552383423
1732873721535080000,4.704079833984375,-2.300901412963867,0.7137778997421265,-0.4699335992336273
1732873721545089800,4.71408984375,-2.119051456451416,0.9062684774398804,-0.5768777132034302
1732873721555069000,4.72406884765625,-1.8305339813232422,0.9699784517288208,-0.6723189353942871
1732873721565078800,4.734078857421875,-1.5285367965698242,0.9923138618469238,-0.6111463308334351
1732873721575088600,4.744088623046875,-1.193528175354004,0.9468058347702026,-0.6623125672340393
1732873721585067800,4.75406787109375,-0.8730878829956055,0.9129352569580078,-0.7206684350967407
1732873721595077400,4.764077392578125,-0.5354223251342773,0.8236430883407593,-0.42911261320114136
1732873721605087200,4.774087158203125,-0.27614688873291016,0.6656516790390015,0.02096080780029297
1732873721615066400,4.78406640625,-0.0804910659790039,0.5813943147659302,0.45415937900543213
1732873721625076200,4.794076171875,-0.15679168701171875,0.5013046264648438,0.8424625396728516
1732873721635086000,4.804086181640625,-0.41662025451660156,0.50765061378479,1.03568434715271
1732873721645065200,4.814065185546875,-0.6185283660888672,0.5646898746490479,1.1515026092529297
1732873721655075000,4.824074951171875,-0.6744956970214844,0.5546199083328247,1.3994399309158325
1732873721665085000,4.8340849609375,-0.6163043975830078,0.603667140007019,1.4063746929168701
1732873721675064000,4.84406396484375,-0.44388484954833984,0.6832917928695679,1.388733983039856
1732873721685073700,4.85407373046875,-0.24047279357910156,0.5883126258850098,1.1368128061294556
1732873721695083500,4.86408349609375,-0.02846813201904297,0.4987078905105591,0.8318315744400024
1732873721705093000,4.874093017578125,0.01958179473876953,0.34815526008605957,0.4898882806301117
1732873721715072500,4.884072509765625,0.41860294342041016,0.16759753227233887,0.2598460018634796
1732873721725082400,4.894082275390625,0.7430686950683594,-0.009738683700561523,0.2833966016769409
1732873721735092200,4.90409228515625,1.0697145462036133,-0.16351449489593506,0.3627989888191223
1732873721745071400,4.9140712890625,1.3760757446289062,-0.30718767642974854,0.41768795251846313
1732873721755081200,4.924081298828125,1.7307548522949219,-0.4174760580062866,0.36065196990966797
1732873721765091000,4.934091064453125,1.9873580932617188,-0.533545970916748,0.10750913619995117
1732873721775070200,4.9440703125,2.2215795516967773,-0.5252721309661865,-0.34097278118133545
1732873721785079800,4.954079833984375,2.248560905456543,-0.4352606534957886,-0.7933430671691895
1732873721795089700,4.964089599609375,2.0372934341430664,-0.10791242122650146,-1.062883734703064
1732873721805068800,4.97406884765625,1.6642236709594727,0.2804781198501587,-1.2386620044708252
1732873721815078700,4.98407861328125,1.102151870727539,0.4811002016067505,-1.405639886856079
1732873721825088500,4.994088623046875,0.47432518005371094,0.3838709592819214,-1.5476834774017334
1732873721835067600,5.004067626953125,0.3226776123046875,-0.051564693450927734,-1.7271134853363037
1732873721845077500,5.014077392578125,1.119659423828125,-1.0178008079528809,-1.9660083055496216
1732873721855087400,5.02408740234375,3.103856086730957,-2.2439446449279785,-2.0536892414093018
1732873721865066500,5.03406640625,5.608022689819336,-3.4944262504577637,-1.9695000648498535
1732873721875076400,5.044076416015625,8.522322654724121,-4.292049884796143,-1.4794679880142212
1732873721885086000,5.0540859375,10.064358711242676,-4.426844596862793,-1.3445138931274414
1732873721895065300,5.0640654296875,9.750548362731934,-4.183424949645996,-1.1560766696929932
1732873721905075000,5.074074951171875,7.615370750427246,-3.691852569580078,-1.3160932064056396
1732873721915084800,5.084084716796875,3.870901107788086,-3.1876730918884277,-1.5768502950668335
1732873721925064000,5.09406396484375,0.046721458435058594,-2.6541748046875,-1.6490485668182373
1732873721935073800,5.10407373046875,-3.7493948936462402,-1.8636847734451294,-1.376681923866272
1732873721945083600,5.114083740234375,-6.701117515563965,-1.4799785614013672,-1.3652719259262085
1732873721955093200,5.12409326171875,-9.206084251403809,-0.7941231727600098,-1.2197117805480957
1732873721965072600,5.13407275390625,-10.278656005859375,-0.5703597068786621,-1.2980539798736572
1732873721975082500,5.14408251953125,-10.387147903442383,-0.49661874771118164,-1.372898817062378
1732873721985092000,5.154092041015625,-9.03600025177002,-0.7578926086425781,-1.4540107250213623
1732873721995071500,5.164071533203125,-7.276733875274658,-1.2437775135040283,-1.5419816970825195
1732873722005081000,5.1740810546875,-5.32531213760376,-2.0205631256103516,-1.355252742767334
1732873722015090700,5.184090576171875,-3.193480968475342,-2.677196979522705,-0.8492433428764343
1732873722025070000,5.194070068359375,-0.8520469665527344,-3.072862148284912,-0.31550857424736023
1732873722035080000,5.204079833984375,0.6489725112915039,-3.228935480117798,0.08303141593933105
1732873722045089500,5.214089599609375,1.7668485641479492,-3.0415890216827393,0.42804181575775146
1732873722055069000,5.22406884765625,2.3360233306884766,-2.585684299468994,0.4219547510147095
1732873722065078800,5.234078857421875,2.3084449768066406,-1.9247394800186157,0.13120198249816895
1732873722075088400,5.24408837890625,1.938796043395996,-1.342452049255371,-0.10757464170455933
1732873722085067800,5.25406787109375,1.6122417449951172,-0.9563956260681152,-0.02605462074279785
1732873722095077400,5.264077392578125,1.4398412704467773,-0.7799118757247925,0.1460707187652588
1732873722105087200,5.274087158203125,1.3366012573242188,-0.686255931854248,0.2568434476852417
1732873722115066400,5.28406640625,1.4232006072998047,-0.7334442138671875,0.32696473598480225
1732873722125076200,5.294076171875,1.5608625411987305,-0.872089147567749,0.32819628715515137
1732873722135086000,5.304086181640625,1.750208854675293,-1.0623539686203003,0.26389288902282715
1732873722145065200,5.314065185546875,1.8720779418945312,-1.1600539684295654,0.19087129831314087
1732873722155075000,5.324074951171875,2.017849922180176,-1.26215660572052,0.1666620969772339
1732873722165085000,5.3340849609375,2.0388784408569336,-1.2583369016647339,0.1358587145805359
1732873722175064000,5.34406396484375,1.6960878372192383,-1.1069340705871582,-0.0704803466796875
1732873722185073700,5.35407373046875,1.136977195739746,-0.9385173916816711,-0.19962573051452637
1732873722195083500,5.36408349609375,0.5704555511474609,-0.8251212239265442,-0.24867025017738342
1732873722205093000,5.374093017578125,-0.1403484344482422,-0.6765002012252808,-0.2809688448905945
1732873722215072500,5.384072509765625,-0.8042125701904297,-0.5951976776123047,-0.2648201286792755
1732873722225082400,5.394082275390625,-1.4647407531738281,-0.5717775821685791,-0.17522689700126648
1732873722235092000,5.404092041015625,-1.9264492988586426,-0.6383007764816284,-0.050240397453308105
1732873722245071400,5.4140712890625,-2.1636962890625,-0.7564356327056885,0.16942185163497925
1732873722255081200,5.424081298828125,-2.0757527351379395,-0.8725844025611877,0.2301132082939148
1732873722265090800,5.4340908203125,-1.7187261581420898,-0.9448705911636353,0.2754257917404175
1732873722275070200,5.4440703125,-1.2912635803222656,-0.97808837890625,0.271261990070343
1732873722285079800,5.454079833984375,-0.8982572555541992,-0.9724750518798828,0.2989201545715332
1732873722295089700,5.464089599609375,-0.8837966918945312,-0.9850513339042664,0.341594398021698
1732873722305068800,5.47406884765625,-0.9648704528808594,-0.873121440410614,0.3300880193710327
1732873722315078700,5.48407861328125,-1.1176137924194336,-0.8029481172561646,0.19501268863677979
1732873722325088300,5.494088134765625,-1.0986175537109375,-0.6958675384521484,0.04376709461212158
1732873722335067600,5.504067626953125,-0.7670965194702148,-0.6762335300445557,-0.138186514377594
1732873722345077500,5.514077392578125,-0.3915567398071289,-0.7489544153213501,-0.24154633283615112
1732873722355087400,5.52408740234375,-0.06047344207763672,-0.8393318057060242,-0.47491538524627686
1732873722365066500,5.53406640625,0.28149890899658203,-0.9671822190284729,-0.672595739364624
1732873722375076400,5.544076416015625,0.7254648208618164,-1.0752642154693604,-0.820815920829773
1732873722385086000,5.5540859375,1.0752630233764648,-1.143026351928711,-1.057105302810669
1732873722395065300,5.5640654296875,1.541966438293457,-1.1293630599975586,-1.1845468282699585
1732873722405075000,5.574074951171875,1.7438535690307617,-0.7080037593841553,-1.0697462558746338
1732873722415084800,5.584084716796875,1.7855567932128906,-0.4900807738304138,-1.0234317779541016
1732873722425064000,5.59406396484375,1.7688274383544922,-0.2641262412071228,-0.8958566188812256
1732873722435073800,5.60407373046875,1.5130014419555664,-0.12045055627822876,-0.6935524344444275
1732873722445083600,5.614083740234375,1.0074987411499023,-0.003187119960784912,-0.4591437578201294
1732873722455093200,5.62409326171875,0.6335411071777344,-0.005632758140563965,-0.286998987197876
1732873722465072600,5.63407275390625,0.20478248596191406,-0.0799761414527893,-0.07919400185346603
1732873722475082500,5.64408251953125,0.07050037384033203,-0.25964146852493286,0.10838397592306137
1732873722485092400,5.65409228515625,0.19204139709472656,-0.47186553478240967,0.2515648901462555
1732873722495071200,5.6640712890625,0.3729562759399414,-0.6458385586738586,0.2557620704174042
1732873722505081000,5.6740810546875,0.6749982833862305,-0.6628967523574829,0.10128378123044968
1732873722515091000,5.684091064453125,0.9358243942260742,-0.645078182220459,-0.14336785674095154
1732873722525070000,5.694070068359375,1.205582618713379,-0.6691718697547913,-0.34340721368789673
1732873722535080000,5.704079833984375,1.5967063903808594,-0.7459664344787598,-0.45649638772010803
1732873722545089800,5.71408984375,1.9895315170288086,-0.8862624168395996,-0.3455970585346222
1732873722555069000,5.72406884765625,2.4040184020996094,-1.052696704864502,-0.3026335537433624
1732873722565078800,5.734078857421875,2.722945213317871,-1.1536564826965332,-0.30335792899131775
1732873722575088600,5.744088623046875,2.948780059814453,-1.219796061515808,-0.3398158848285675
1732873722585067800,5.75406787109375,2.7942848205566406,-1.236284613609314,-0.5332962870597839
1732873722595077400,5.764077392578125,2.4247970581054688,-1.1366353034973145,-0.6464644074440002
1732873722605087200,5.774087158203125,1.8787345886230469,-1.0564887523651123,-0.5510028600692749
1732873722615066400,5.78406640625,0.9670591354370117,-1.004489541053772,-0.48144298791885376
1732873722625076200,5.794076171875,0.2049245834350586,-0.9697068929672241,-0.3592376112937927
1732873722635086000,5.804086181640625,-0.6115713119506836,-0.9344297647476196,-0.33532416820526123
1732873722645065200,5.814065185546875,-1.1713218688964844,-0.8814237117767334,-0.2663402557373047
1732873722655075000,5.824074951171875,-1.496042251586914,-0.8045836687088013,-0.1526573896408081
1732873722665085000,5.8340849609375,-1.7916827201843262,-0.7286284565925598,-0.033558160066604614
1732873722675064000,5.84406396484375,-2.1283440589904785,-0.6059970855712891,-0.003769129514694214
1732873722685073700,5.85407373046875,-2.6847643852233887,-0.38415220379829407,-0.053954415023326874
1732873722695083500,5.86408349609375,-3.0304083824157715,-0.20492970943450928,-0.05244187265634537
1732873722705093000,5.874093017578125,-3.2065796852111816,-0.00667339563369751,0.015636369585990906
1732873722715072500,5.884072509765625,-3.1514430046081543,0.19009912014007568,0.032236263155937195
1732873722725082400,5.894082275390625,-2.644965171813965,0.37489283084869385,0.06965997815132141
1732873722735092200,5.90409228515625,-1.8477344512939453,0.34970903396606445,0.25853896141052246
1732873722745071400,5.9140712890625,-1.1809806823730469,0.23477041721343994,0.282564640045166
1732873722755081200,5.924081298828125,-0.5270242691040039,0.16526198387145996,0.10693590342998505
1732873722765091000,5.934091064453125,0.13327789306640625,0.20539289712905884,0.004637002944946289
1732873722775070200,5.9440703125,0.7837905883789062,0.0732731819152832,-0.1420973837375641
1732873722785079800,5.954079833984375,1.173396110534668,0.06851357221603394,-0.5620229840278625
1732873722795089700,5.964089599609375,1.4004487991333008,0.12765586376190186,-1.1012516021728516
1732873722805068800,5.97406884765625,1.7953548431396484,0.05192822217941284,-1.2981758117675781
1732873722815078700,5.98407861328125,2.204925537109375,-0.017280220985412598,-1.094093680381775
1732873722825088500,5.994088623046875,2.465193748474121,-0.07652455568313599,-0.7913191318511963
1732873722835067600,6.004067626953125,2.652904510498047,-0.0718224048614502,-0.553727924823761
1732873722845077500,6.014077392578125,2.4179677963256836,0.10504662990570068,-0.567463755607605
1732873722855087400,6.02408740234375,1.5016288757324219,0.3930366635322571,-0.8316019773483276
1732873722865066500,6.03406640625,0.2869853973388672,0.738801121711731,-1.0949550867080688
1732873722875076400,6.044076416015625,-0.5462265014648438,0.9860092401504517,-1.208534836769104
1732873722885086000,6.0540859375,-1.1515579223632812,1.142650842666626,-1.1328169107437134
1732873722895065300,6.0640654296875,-1.4288015365600586,1.263746738433838,-1.0305348634719849
1732873722905075000,6.074074951171875,-1.5502910614013672,1.3304293155670166,-0.9386806488037109
1732873722915084800,6.084084716796875,-1.5309162139892578,1.3746588230133057,-0.8761067986488342
1732873722925064000,6.09406396484375,-1.5093889236450195,1.3603607416152954,-0.8475476503372192
1732873722935073800,6.10407373046875,-1.6509408950805664,1.397194504737854,-0.894493043422699
1732873722945083600,6.114083740234375,-1.7568349838256836,1.3359789848327637,-0.7838722467422485
1732873722955093200,6.12409326171875,-1.793729305267334,1.261709213256836,-0.6758372783660889
1732873722965072600,6.13407275390625,-1.613276481628418,1.155529260635376,-0.6187406778335571
1732873722975082500,6.14408251953125,-1.3304595947265625,1.0200016498565674,-0.5848023295402527
1732873722985092000,6.154092041015625,-1.007674217224121,0.8949524760246277,-0.5051961541175842
1732873722995071500,6.164071533203125,-0.6660270690917969,0.7589684128761292,-0.3656769394874573
1732873723005081000,6.1740810546875,-0.3675518035888672,0.712977409362793,-0.14398780465126038
1732873723015090700,6.184090576171875,-0.18865966796875,0.7189627885818481,0.0801568403840065
1732873723025070000,6.194070068359375,-0.22014617919921875,0.8419813513755798,0.2426535189151764
1732873723035080000,6.204079833984375,-0.42836570739746094,0.9727016091346741,0.39335381984710693
1732873723045089500,6.214089599609375,-0.6923828125,0.8308908939361572,0.4618903696537018
1732873723055069000,6.22406884765625,-0.9583072662353516,0.7676388025283813,0.38273531198501587
1732873723065078800,6.234078857421875,-1.05029296875,0.6401437520980835,0.3676735460758209
1732873723075088400,6.24408837890625,-1.0476312637329102,0.5266791582107544,0.14575046300888062
1732873723085067500,6.254067626953125,-0.8700323104858398,0.4390287399291992,-0.21880093216896057
1732873723095077400,6.264077392578125,-0.5098867416381836,0.38420188426971436,-0.3059042692184448
1732873723105087200,6.274087158203125,-0.057251930236816406,0.31114041805267334,-0.2873150706291199
1732873723115066400,6.28406640625,0.4186973571777344,0.4244586229324341,-0.2571829855442047
1732873723125076200,6.294076171875,0.7869033813476562,0.41391730308532715,-0.17280228435993195
1732873723135086000,6.304086181640625,0.8696718215942383,0.46872448921203613,0.03838285058736801
1732873723145065200,6.314065185546875,0.4287900924682617,0.6370837688446045,0.13785041868686676
1732873723155075000,6.324074951171875,-0.3253774642944336,0.7667104005813599,0.18872320652008057
1732873723165085000,6.3340849609375,-0.697479248046875,0.7913638353347778,0.4972665011882782
1732873723175064000,6.34406396484375,-0.6340293884277344,0.7690402269363403,0.6137497425079346
1732873723185073700,6.35407373046875,-0.3028678894042969,0.5906112194061279,0.3923685550689697
1732873723195083500,6.36408349609375,0.33185577392578125,0.43886661529541016,0.3257023096084595
1732873723205093000,6.374093017578125,1.0082273483276367,0.3635845184326172,0.42768430709838867
1732873723215072500,6.384072509765625,1.4462661743164062,0.3622627258300781,0.523864209651947
1732873723225082400,6.394082275390625,1.6361865997314453,0.4008603096008301,0.46632376313209534
1732873723235092000,6.404092041015625,1.6098709106445312,0.4816923141479492,0.36895662546157837
1732873723245071400,6.4140712890625,1.5121307373046875,0.5907151699066162,0.2904103994369507
1732873723255081200,6.424081298828125,1.2642507553100586,0.6242375373840332,0.22234728932380676
1732873723265090800,6.4340908203125,1.0081186294555664,0.6784036159515381,0.012721240520477295
1732873723275070000,6.444070068359375,0.8392267227172852,0.785362720489502,-0.28693509101867676
1732873723285079800,6.454079833984375,0.7910099029541016,0.789581298828125,-0.4583151638507843
1732873723295089700,6.464089599609375,0.6618766784667969,0.7389621734619141,-0.5038483738899231
1732873723305068800,6.47406884765625,0.45448780059814453,0.740530252456665,-0.5879664421081543
1732873723315078700,6.48407861328125,0.3075838088989258,0.7686035633087158,-0.629635214805603
1732873723325088300,6.494088134765625,0.1706829071044922,0.6613430976867676,-0.6510465741157532
1732873723335067600,6.504067626953125,0.24451065063476562,0.6192700862884521,-0.6361082196235657
1732873723345077500,6.514077392578125,0.2661724090576172,0.45134663581848145,-0.7378159761428833
1732873723355087400,6.52408740234375,0.4075784683227539,0.3033130168914795,-0.7228612899780273
1732873723365066500,6.53406640625,0.7028045654296875,0.20936226844787598,-0.691102147102356
1732873723375076400,6.544076416015625,0.8582582473754883,0.17442965507507324,-0.6100326776504517
1732873723385086000,6.5540859375,0.8425111770629883,0.21166682243347168,-0.44226258993148804
1732873723395065300,6.5640654296875,0.686131477355957,0.3309178352355957,-0.2197001576423645
1732873723405075000,6.574074951171875,0.4748191833496094,0.7341921329498291,-0.19742900133132935
1732873723415084800,6.584084716796875,0.05791473388671875,1.0579004287719727,-0.2878503203392029
1732873723425064000,6.59406396484375,-0.37743186950683594,1.0296776294708252,-0.49971023201942444
1732873723435073800,6.60407373046875,-0.8943815231323242,0.667731761932373,-0.9758155345916748
1732873723445083600,6.614083740234375,-0.9033260345458984,-0.12733936309814453,-1.2365500926971436
1732873723455093200,6.62409326171875,0.4035215377807617,-1.4580519199371338,-1.460728406906128
1732873723465072600,6.63407275390625,3.0297069549560547,-2.8582379817962646,-1.2728098630905151
1732873723475082500,6.64408251953125,6.52194881439209,-4.372647285461426,-0.6908472180366516
1732873723485092400,6.65409228515625,9.216263771057129,-5.12592077255249,-0.31175798177719116
1732873723495071200,6.6640712890625,10.5747709274292,-5.349773406982422,-0.19865238666534424
1732873723505081000,6.6740810546875,9.294419288635254,-5.246555328369141,-0.37475547194480896
1732873723515091000,6.684091064453125,6.590317726135254,-4.7972588539123535,-0.6182047128677368
1732873723525070000,6.694070068359375,3.0017614364624023,-4.122921943664551,-1.2219680547714233
1732873723535080000,6.704079833984375,-0.09915542602539062,-3.6228983402252197,-1.3760854005813599
1732873723545089800,6.71408984375,-3.007657527923584,-3.1011464595794678,-1.2065454721450806
1732873723555069000,6.72406884765625,-4.749706268310547,-2.9206526279449463,-0.949937641620636
1732873723565078800,6.734078857421875,-5.572338104248047,-2.5087292194366455,-1.0178395509719849
1732873723575088600,6.744088623046875,-5.594916343688965,-2.0341336727142334,-1.4170620441436768
1732873723585067800,6.75406787109375,-5.345316410064697,-1.6100772619247437,-2.167663335800171
1732873723595077400,6.764077392578125,-4.960779666900635,-1.3638099431991577,-2.4760313034057617
1732873723605087200,6.774087158203125,-4.70683479309082,-1.2463085651397705,-2.4324071407318115
1732873723615066400,6.78406640625,-4.921893119812012,-1.187000036239624,-2.3687150478363037
1732873723625076200,6.794076171875,-5.654956340789795,-1.2174725532531738,-2.075397491455078
1732873723635086000,6.804086181640625,-5.885677337646484,-1.5859280824661255,-1.3974525928497314
1732873723645065200,6.814065185546875,-5.371211528778076,-1.8606820106506348,-0.759849488735199
1732873723655075000,6.824074951171875,-4.106246471405029,-2.1646814346313477,-0.10460209846496582
1732873723665085000,6.8340849609375,-2.523104190826416,-2.4652297496795654,0.3501841425895691
1732873723675064000,6.84406396484375,-0.7081937789916992,-2.5334689617156982,0.34976285696029663
1732873723685073700,6.85407373046875,0.43473148345947266,-2.336672782897949,0.021360620856285095
1732873723695083500,6.86408349609375,1.4112167358398438,-2.016016960144043,-0.35124388337135315
1732873723705093000,6.874093017578125,1.9830045700073242,-1.7374589443206787,-0.5421287417411804
1732873723715072500,6.884072509765625,2.1606054306030273,-1.3817211389541626,-0.5617899894714355
1732873723725082400,6.894082275390625,2.036428451538086,-1.1453373432159424,-0.5201810598373413
1732873723735092200,6.90409228515625,1.659820556640625,-0.8379843235015869,-0.3701608180999756
1732873723745071400,6.9140712890625,1.1358633041381836,-0.6364105939865112,-0.36677315831184387
1732873723755081200,6.924081298828125,0.5933017730712891,-0.4239063262939453,-0.43082213401794434
1732873723765091000,6.934091064453125,0.1126718521118164,-0.24992895126342773,-0.45650583505630493
1732873723775070200,6.9440703125,-0.19935894012451172,-0.1535043716430664,-0.3786914348602295
1732873723785079800,6.954079833984375,-0.44402408599853516,-0.17509245872497559,-0.2528187334537506
1732873723795089700,6.964089599609375,-0.40635108947753906,-0.20737886428833008,-0.17084655165672302
1732873723805068800,6.97406884765625,-0.28973960876464844,-0.21517372131347656,-0.3069775104522705
1732873723815078700,6.98407861328125,-0.08711814880371094,-0.33237743377685547,-0.4787920415401459
1732873723825088500,6.994088623046875,0.3356132507324219,-0.4946296215057373,-0.591517448425293
1732873723835067600,7.004067626953125,0.6897726058959961,-0.42958688735961914,-0.37309426069259644
1732873723845077500,7.014077392578125,0.9174995422363281,-0.36798107624053955,-0.24564948678016663
1732873723855087400,7.02408740234375,1.0054664611816406,-0.3176995515823364,-0.13788935542106628
1732873723865066500,7.03406640625,0.9461307525634766,-0.2369765043258667,-0.008050993084907532
1732873723875076400,7.044076416015625,0.8453006744384766,-0.16619384288787842,0.0136851966381073
1732873723885086000,7.0540859375,0.7870111465454102,-0.04131436347961426,-0.08807423710823059
1732873723895065300,7.0640654296875,0.902775764465332,-0.07633554935455322,-0.15086305141448975
1732873723905075200,7.0740751953125,1.1638612747192383,-0.10271811485290527,-0.19547009468078613
1732873723915084800,7.084084716796875,1.7905902862548828,-0.17715167999267578,-0.1649092137813568
1732873723925064000,7.09406396484375,2.4027023315429688,-0.2092890739440918,0.10243679583072662
1732873723935073800,7.10407373046875,2.7033729553222656,-0.372890830039978,0.5050082206726074
1732873723945083400,7.11408349609375,2.4613256454467773,-0.5648267269134521,0.8885860443115234
1732873723955093200,7.12409326171875,2.4159984588623047,-0.46597063541412354,1.058408498764038
1732873723965072600,7.13407275390625,2.727900505065918,-0.23641180992126465,1.0709915161132812
1732873723975082500,7.14408251953125,3.11651611328125,0.16613459587097168,0.8618266582489014
1732873723985092000,7.154092041015625,3.395536422729492,0.42287468910217285,0.6489511132240295
1732873723995071500,7.164071533203125,3.044510841369629,0.3556962013244629,0.4417961537837982
1732873724005081000,7.1740810546875,2.5650558471679688,-0.21279692649841309,0.605067253112793
1732873724015090700,7.184090576171875,2.3322057723999023,-1.0376962423324585,0.6916267275810242
1732873724025070000,7.194070068359375,2.752288818359375,-2.475618362426758,0.6905916929244995
1732873724035080000,7.204079833984375,3.8476295471191406,-3.626951217651367,1.0907870531082153
1732873724045089500,7.214089599609375,5.728908538818359,-4.4290771484375,1.7882447242736816
1732873724055069000,7.22406884765625,6.736610412597656,-4.4676618576049805,1.974503993988037
1732873724065078800,7.234078857421875,5.830522537231445,-3.722287178039551,1.27885103225708
1732873724075088400,7.24408837890625,3.175161361694336,-2.970435857772827,0.774055004119873
1732873724085067500,7.254067626953125,0.5290727615356445,-2.4326558113098145,0.4959028959274292
1732873724095077400,7.264077392578125,-2.466951370239258,-1.8893524408340454,0.34935110807418823
1732873724105087200,7.274087158203125,-4.9441237449646,-1.7724344730377197,0.4048207998275757
1732873724115066400,7.28406640625,-6.939176082611084,-1.427494764328003,0.45562970638275146
1732873724125076200,7.294076171875,-7.881690979003906,-1.3991388082504272,0.5937268137931824
1732873724135086000,7.304086181640625,-7.943735599517822,-1.6606125831604004,1.0309786796569824
1732873724145065200,7.314065185546875,-7.065465927124023,-2.080155849456787,1.3149844408035278
1732873724155075000,7.324074951171875,-4.943164825439453,-2.468607187271118,1.3671252727508545
1732873724165085000,7.3340849609375,-2.7590346336364746,-2.6321191787719727,1.058607578277588
1732873724175064000,7.34406396484375,-1.245945930480957,-2.5810210704803467,0.7907518744468689
1732873724185073700,7.35407373046875,0.286285400390625,-2.3795950412750244,0.5377304553985596
1732873724195083500,7.36408349609375,1.0813426971435547,-2.1259989738464355,0.42708078026771545
1732873724205093000,7.374093017578125,1.1839618682861328,-1.8193432092666626,0.4553355574607849
1732873724215072500,7.384072509765625,0.7640161514282227,-1.5433465242385864,0.5312100052833557
1732873724225082400,7.394082275390625,0.06322669982910156,-1.2471832036972046,0.5053530931472778
1732873724235092000,7.404092041015625,-0.45299434661865234,-1.0062227249145508,0.39584529399871826
1732873724245071400,7.4140712890625,-0.5545463562011719,-0.7712388038635254,0.2533304691314697
1732873724255081200,7.424081298828125,-0.3910350799560547,-0.6029132604598999,0.15860483050346375
1732873724265090800,7.4340908203125,-0.29836463928222656,-0.38349008560180664,0.06453312188386917
1732873724275070200,7.4440703125,-0.2907218933105469,-0.28814697265625,0.09706650674343109
1732873724285079800,7.454079833984375,-0.3895721435546875,-0.20440149307250977,0.061384957283735275
1732873724295089700,7.464089599609375,-0.39609336853027344,-0.2161543369293213,0.1774732619524002
1732873724305069000,7.474069091796875,-0.36768245697021484,-0.17023062705993652,0.1919308304786682
1732873724315078700,7.48407861328125,-0.3217496871948242,-0.11438274383544922,0.16454379260540009
1732873724325088300,7.494088134765625,-0.17474079132080078,-0.10054779052734375,0.22745616734027863
1732873724335067600,7.504067626953125,-0.12303924560546875,-0.14807963371276855,0.3326514959335327
1732873724345077500,7.514077392578125,-0.19530296325683594,-0.22912979125976562,0.357582151889801
1732873724355087400,7.52408740234375,-0.18580913543701172,-0.2908363342285156,0.41792410612106323
1732873724365066500,7.53406640625,-0.049640655517578125,-0.42458343505859375,0.6069676876068115
1732873724375076400,7.544076416015625,0.0716257095336914,-0.5168136358261108,0.8329809904098511
1732873724385086200,7.554086181640625,0.16165733337402344,-0.6246742010116577,1.0354212522506714
1732873724395065300,7.5640654296875,0.1348104476928711,-0.6034001111984253,1.2153223752975464
1732873724405075000,7.574074951171875,-0.17603302001953125,-0.5574222803115845,1.2541886568069458
1732873724415084800,7.584084716796875,-0.5765523910522461,-0.47341394424438477,1.213992714881897
1732873724425064000,7.59406396484375,-0.942413330078125,-0.41236066818237305,1.2236632108688354
1732873724435073800,7.60407373046875,-1.2334108352661133,-0.3167848587036133,1.1394870281219482
1732873724445083600,7.614083740234375,-1.3735170364379883,-0.14848971366882324,0.8084755539894104
1732873724455093200,7.62409326171875,-1.3171415328979492,-0.04939389228820801,0.4550553262233734
1732873724465072600,7.63407275390625,-0.9309415817260742,-0.04837799072265625,0.008658885955810547
1732873724475082500,7.64408251953125,-0.10347938537597656,-0.09601354598999023,-0.171109139919281
1732873724485092400,7.65409228515625,0.8463459014892578,-0.17360305786132812,-0.278281569480896
1732873724495071200,7.6640712890625,1.777541160583496,-0.35394883155822754,-0.13162878155708313
1732873724505081000,7.6740810546875,2.7123098373413086,-0.46190762519836426,0.16286680102348328
1732873724515091000,7.684091064453125,3.2952146530151367,-0.4302569627761841,0.1692967414855957
1732873724525070000,7.694070068359375,3.3860998153686523,-0.4117480516433716,-0.034952133893966675
1732873724535080000,7.704079833984375,3.296067237854004,-0.6706817150115967,-0.7351990342140198
1732873724545089500,7.714089599609375,3.240560531616211,-1.2185760736465454,-1.3912620544433594
1732873724555069000,7.72406884765625,3.7653427124023438,-1.7242457866668701,-2.3949286937713623
1732873724565078800,7.734078857421875,5.082843780517578,-2.1798458099365234,-2.9398674964904785
1732873724575088600,7.744088623046875,6.657356262207031,-3.350358247756958,-1.530707597732544
1732873724585067800,7.75406787109375,7.168824195861816,-4.244797706604004,0.40796148777008057
1732873724595077400,7.764077392578125,6.270057678222656,-4.130708694458008,1.024946689605713
1732873724605087200,7.774087158203125,4.106271743774414,-3.55387020111084,0.7668977379798889
1732873724615066400,7.78406640625,1.5236444473266602,-2.8037188053131104,0.1750480830669403
1732873724625076200,7.794076171875,-1.371694564819336,-1.8359633684158325,-0.7802016139030457
1732873724635086000,7.804086181640625,-3.8164477348327637,-1.0764930248260498,-1.9081352949142456
1732873724645065200,7.814065185546875,-5.917287826538086,-0.42125070095062256,-2.887957811355591
1732873724655075000,7.824074951171875,-7.067298412322998,-0.22273850440979004,-3.323190450668335
1732873724665085000,7.8340849609375,-7.376449108123779,-0.5484974384307861,-3.232496738433838
1732873724675064000,7.84406396484375,-6.335103988647461,-1.243619441986084,-2.3591017723083496
1732873724685073700,7.85407373046875,-3.935882091522217,-1.8085486888885498,-1.4186723232269287
1732873724695083500,7.86408349609375,-2.113370895385742,-2.1146583557128906,-0.7413560748100281
1732873724705093000,7.874093017578125,-0.7082500457763672,-2.251300811767578,-0.13800454139709473
1732873724715072500,7.884072509765625,0.2678031921386719,-2.1638002395629883,0.1570757031440735
1732873724725082400,7.894082275390625,1.110173225402832,-1.9312158823013306,0.2323678731918335
1732873724735092200,7.90409228515625,1.3106536865234375,-1.7049713134765625,0.21439898014068604
1732873724745071400,7.9140712890625,1.0914554595947266,-1.430607557296753,0.20177704095840454
1732873724755081200,7.924081298828125,0.5927419662475586,-1.0955545902252197,0.12335370481014252
1732873724765091000,7.934091064453125,0.04592418670654297,-0.7455322742462158,0.10077251493930817
1732873724775070200,7.9440703125,-0.7480268478393555,-0.4300891160964966,0.06329414248466492
1732873724785079800,7.954079833984375,-1.4517755508422852,-0.23622620105743408,0.04240363836288452
1732873724795089700,7.964089599609375,-2.1651992797851562,-0.17351877689361572,0.10729842633008957
1732873724805069000,7.974069091796875,-2.454455852508545,-0.18348455429077148,0.184113010764122
1732873724815078700,7.98407861328125,-2.596682071685791,-0.2441495656967163,0.2473324090242386
1732873724825088500,7.994088623046875,-2.4533796310424805,-0.3273385763168335,0.08048895746469498
1732873724835067600,8.004067626953125,-2.15305757522583,-0.40549206733703613,-0.1439054310321808
1732873724845077500,8.014077392578125,-1.5519475936889648,-0.5885946750640869,-0.22113463282585144
1732873724855087400,8.02408740234375,-0.6446161270141602,-0.7920103073120117,-0.16745653748512268
1732873724865066500,8.03406640625,0.2730255126953125,-0.9661358594894409,-0.17716741561889648
1732873724875076400,8.044076416015624,0.8651151657104492,-1.0632803440093994,-0.17035138607025146
1732873724885086200,8.054086181640624,1.4225025177001953,-1.06990385055542,-0.11806261539459229
1732873724895065300,8.0640654296875,1.6838655471801758,-0.9285804033279419,-0.20804470777511597
1732873724905075200,8.0740751953125,1.5832929611206055,-0.6371477842330933,-0.26539939641952515
1732873724915084800,8.084084716796875,1.2446088790893555,-0.3759481906890869,-0.201461523771286
1732873724925064000,8.09406396484375,0.7965164184570312,-0.12350714206695557,-0.25624334812164307
1732873724935073800,8.10407373046875,0.40329742431640625,0.05364429950714111,-0.2962700426578522
1732873724945083400,8.11408349609375,0.20273876190185547,0.1095125675201416,-0.28616511821746826
1732873724955093200,8.12409326171875,0.12893295288085938,0.018172025680541992,-0.1999891996383667
1732873724965072600,8.13407275390625,0.23451614379882812,0.05108201503753662,-0.035791296511888504
1732873724975082500,8.14408251953125,0.6054801940917969,0.09883534908294678,0.2543492317199707
1732873724985092000,8.154092041015625,0.932591438293457,0.12244677543640137,0.18462461233139038
1732873724995071500,8.164071533203124,1.362086296081543,-0.03923952579498291,0.015917479991912842
1732873725005081000,8.1740810546875,1.9303503036499023,-0.17247772216796875,-0.03573211282491684
1732873725015090700,8.184090576171876,2.8224830627441406,-0.3065747022628784,0.08083967119455338
1732873725025070000,8.194070068359375,3.9312896728515625,-0.25919628143310547,0.40864232182502747
1732873725035080000,8.204079833984375,4.910533905029297,-0.3175039291381836,0.6632553935050964
1732873725045089500,8.214089599609375,5.323586463928223,-0.2803356647491455,0.7335062026977539
1732873725055069000,8.22406884765625,5.26262092590332,-0.20612609386444092,0.028477612882852554
1732873725065078800,8.234078857421874,3.9117870330810547,-0.7027314901351929,-0.5766560435295105
1732873725075088400,8.24408837890625,3.0691986083984375,-1.4480212926864624,-0.6487680673599243
1732873725085067800,8.25406787109375,3.0236148834228516,-2.705085277557373,0.4228508472442627
1732873725095077400,8.264077392578125,3.360112190246582,-3.761986017227173,1.6942977905273438
1732873725105087200,8.274087158203125,3.94704532623291,-4.425240993499756,2.8104307651519775
1732873725115066400,8.28406640625,4.099086761474609,-4.42305850982666,3.01316237449646
1732873725125076200,8.294076171875,3.194382667541504,-3.7275185585021973,2.2432689666748047
1732873725135086000,8.304086181640624,1.7514057159423828,-2.9470107555389404,1.3378663063049316
1732873725145065200,8.314065185546875,-0.38466358184814453,-2.2063450813293457,0.8661632537841797
1732873725155075000,8.324074951171875,-2.701751232147217,-1.8939251899719238,0.6934340000152588
1732873725165085000,8.3340849609375,-4.98068380355835,-1.6052145957946777,0.9181827306747437
1732873725175064000,8.34406396484375,-6.468876838684082,-1.509538173675537,1.0650118589401245
1732873725185073700,8.35407373046875,-6.9237165451049805,-1.7470157146453857,1.359473466873169
1732873725195083500,8.36408349609375,-6.203355312347412,-2.225033760070801,1.7277166843414307
1732873725205093000,8.374093017578126,-4.367537498474121,-2.719815731048584,1.906487226486206
1732873725215072500,8.384072509765625,-1.6815528869628906,-3.085510730743408,1.7750051021575928
1732873725225082400,8.394082275390625,-0.1866159439086914,-3.200411558151245,1.3572773933410645
1732873725235092000,8.404092041015625,1.1511430740356445,-2.901369333267212,0.805120050907135
1732873725245071400,8.4140712890625,1.827993392944336,-2.569246292114258,0.5087158679962158
1732873725255081200,8.424081298828124,1.591238021850586,-1.9900482892990112,-0.1267145574092865
1732873725265090800,8.4340908203125,0.6657314300537109,-1.4251114130020142,-0.5072574019432068
1732873725275070200,8.4440703125,-0.5200586318969727,-1.0178362131118774,-0.5912550687789917
1732873725285079800,8.454079833984375,-1.6517257690429688,-0.7802832126617432,-0.3247902989387512
1732873725295089700,8.464089599609375,-2.3026747703552246,-0.5783072710037231,-0.152230903506279
1732873725305069000,8.474069091796874,-2.6348414421081543,-0.38753020763397217,-0.08061426877975464
1732873725315078700,8.48407861328125,-2.4551491737365723,-0.3043280839920044,0.03566555306315422
1732873725325088300,8.494088134765626,-2.257129669189453,-0.31756138801574707,0.09703392535448074
1732873725335067600,8.504067626953125,-2.198474407196045,-0.2731722593307495,-0.09049129486083984
1732873725345077500,8.514077392578125,-2.0992770195007324,-0.10318756103515625,-0.3963855803012848
1732873725355087400,8.52408740234375,-1.9765615463256836,-0.03831493854522705,-0.7233943343162537
1732873725365066500,8.53406640625,-1.6724605560302734,0.09464550018310547,-0.8469446897506714
1732873725375076400,8.544076416015624,-1.254129409790039,0.04730653762817383,-0.7133991122245789
1732873725385086200,8.554086181640624,-0.8458328247070312,-0.09045588970184326,-0.4532536566257477
1732873725395065300,8.5640654296875,-0.4445648193359375,-0.24033010005950928,-0.19692857563495636
1732873725405075000,8.574074951171875,-0.0732126235961914,-0.33813273906707764,-0.02392221987247467
1732873725415084800,8.584084716796875,0.12241172790527344,-0.39707183837890625,0.07454006373882294
1732873725425064000,8.59406396484375,0.734004020690918,-0.2680767774581909,-0.34075450897216797
1732873725435073800,8.60407373046875,0.24847412109375,-0.19914460182189941,-0.1261623203754425
1732873725445083600,8.614083740234374,0.22209835052490234,-0.12822473049163818,-0.13567060232162476
1732873725455093200,8.62409326171875,-0.2530069351196289,0.00790262222290039,0.13451676070690155
1732873725465072600,8.63407275390625,-0.669682502746582,-0.13380718231201172,0.5015761852264404
1732873725475082500,8.64408251953125,-0.8518104553222656,-0.2221226692199707,0.5281339287757874
1732873725485092400,8.65409228515625,-0.6895513534545898,-0.24468696117401123,0.46343496441841125
1732873725495071200,8.6640712890625,-0.2839651107788086,-0.26437926292419434,0.3234706223011017
1732873725505081000,8.6740810546875,0.6228532791137695,-0.2520473003387451,0.3028581738471985
1732873725515091000,8.684091064453124,1.4186897277832031,-0.3058253526687622,0.3499371111392975
1732873725525070000,8.694070068359375,2.60208797454834,-0.28692007064819336,0.4149964451789856
1732873725535080000,8.704079833984375,3.4895849227905273,-0.25577569007873535,0.34895840287208557
1732873725545089800,8.71408984375,4.125703811645508,-0.22659802436828613,0.2024073302745819
1732873725555069000,8.72406884765625,4.359474182128906,-0.01383817195892334,0.09490115940570831
1732873725565078800,8.734078857421874,4.2653703689575195,0.26189255714416504,0.2996702194213867
1732873725575088600,8.744088623046874,3.7884397506713867,0.3821004629135132,0.5753389000892639
1732873725585067800,8.75406787109375,2.9141368865966797,0.24750447273254395,0.5997356176376343
1732873725595077400,8.764077392578125,1.5604658126831055,-0.06858110427856445,0.04566416144371033
1732873725605087200,8.774087158203125,0.5762825012207031,-0.8638549447059631,-0.6658315062522888
1732873725615066400,8.78406640625,0.7903079986572266,-1.9757757186889648,-0.9480021595954895
1732873725625076200,8.794076171875,2.2705869674682617,-3.2113871574401855,-0.7708704471588135
1732873725635085800,8.8040859375,4.720450401306152,-4.005602836608887,-0.33207041025161743
1732873725645065200,8.814065185546875,6.538429260253906,-4.263527870178223,0.40360027551651
1732873725655075000,8.824074951171875,7.391831398010254,-4.2312726974487305,0.8191214799880981
1732873725665085000,8.8340849609375,6.576268196105957,-3.8676300048828125,0.627173125743866
1732873725675064000,8.84406396484375,4.279738426208496,-3.7708640098571777,0.5350952744483948
1732873725685073700,8.85407373046875,1.5685081481933594,-3.387742519378662,0.31375497579574585
1732873725695083500,8.86408349609375,-1.281656265258789,-2.969614028930664,0.4464570879936218
1732873725705093000,8.874093017578126,-3.5509982109069824,-2.5739617347717285,0.22360600531101227
1732873725715072500,8.884072509765625,-5.416589736938477,-2.014620304107666,-0.5493637323379517
1732873725725082400,8.894082275390625,-6.684922218322754,-1.4295475482940674,-1.7015329599380493
1732873725735092200,8.90409228515625,-6.912548065185547,-0.9992200136184692,-2.5958034992218018
1732873725745071400,8.9140712890625,-6.465139865875244,-0.8963021039962769,-3.0943260192871094
1732873725755081200,8.924081298828124,-5.420326232910156,-1.0516226291656494,-3.0631656646728516
1732873725765090800,8.9340908203125,-3.9230384826660156,-1.3117551803588867,-2.752534866333008
1732873725775070200,8.9440703125,-2.496542453765869,-1.5728193521499634,-2.1397864818573
1732873725785079800,8.954079833984375,-1.3656330108642578,-1.8703405857086182,-1.3259459733963013
1732873725795089700,8.964089599609375,-1.0194463729858398,-1.9252804517745972,-0.7196897864341736
1732873725805069000,8.974069091796874,-0.7392826080322266,-1.7677605152130127,-0.3741985559463501
1732873725815078700,8.98407861328125,-0.46079349517822266,-1.6539709568023682,-0.04949921369552612
1732873725825088500,8.994088623046874,-0.4635791778564453,-1.534412145614624,0.1699558049440384
1732873725835067600,9.004067626953125,-0.546391487121582,-1.359109878540039,0.14165851473808289
1732873725845077500,9.014077392578125,-0.7879810333251953,-1.0167462825775146,-0.10758176445960999
1732873725855087400,9.02408740234375,-1.296365737915039,-0.620319128036499,-0.3884629011154175
1732873725865066500,9.03406640625,-1.2299871444702148,-0.30063867568969727,-0.8335959315299988
1732873725875076400,9.044076416015624,-1.056488037109375,-0.08476853370666504,-0.8839923143386841
1732873725885086200,9.054086181640624,-0.7353649139404297,0.029046058654785156,-0.7359932065010071
1732873725895065300,9.0640654296875,-0.4983072280883789,-0.026134371757507324,-0.4459342360496521
1732873725905075000,9.074074951171875,-0.3899211883544922,-0.13763916492462158,-0.13863325119018555
1732873725915084800,9.084084716796875,-0.399932861328125,-0.3147832155227661,-0.012616381049156189
1732873725925064000,9.09406396484375,-0.4653177261352539,-0.47263503074645996,0.19599421322345734
1732873725935073800,9.10407373046875,-0.4928092956542969,-0.6797089576721191,0.42813849449157715
1732873725945083600,9.114083740234374,-0.13016414642333984,-0.8757149577140808,0.712068498134613
1732873725955093200,9.12409326171875,0.3331928253173828,-1.0576465129852295,0.8923761248588562
1732873725965072600,9.13407275390625,0.830418586730957,-1.039312481880188,0.9688462018966675
1732873725975082500,9.14408251953125,1.077005386352539,-0.960975706577301,0.6468758583068848
1732873725985092000,9.154092041015625,1.0938386917114258,0.25722038745880127,-1.0281238555908203
1732873725995071500,9.164071533203124,0.6275005340576172,-0.10500860214233398,-0.6798040866851807
1732873726005081000,9.1740810546875,-0.07667732238769531,0.22415947914123535,-1.102701187133789
1732873726015090700,9.184090576171876,-0.8182392120361328,0.4180041551589966,-1.0596262216567993
1732873726025070000,9.194070068359375,-1.090632438659668,0.398118257522583,-1.0910507440567017
1732873726035080000,9.204079833984375,-0.8714609146118164,0.3109501600265503,-0.8922585844993591
1732873726045089500,9.214089599609375,-0.1515979766845703,-0.10727846622467041,-0.45607832074165344
1732873726055069000,9.22406884765625,0.7571935653686523,-0.4472447633743286,0.06920395791530609
1732873726065078800,9.234078857421874,1.4502229690551758,-0.7087204456329346,0.3088952600955963
1732873726075088400,9.24408837890625,1.7925043106079102,-0.9327728152275085,0.20906966924667358
1732873726085067800,9.25406787109375,1.9927864074707031,-0.8774336576461792,0.05755706876516342
1732873726095077400,9.264077392578125,2.3837080001831055,-0.7764449119567871,0.09147095680236816
1732873726105087200,9.274087158203125,2.8096179962158203,-0.4356781244277954,0.13854308426380157
1732873726115066400,9.28406640625,3.404181480407715,-0.2982999086380005,0.4115663170814514
1732873726125076200,9.294076171875,3.4924240112304688,-0.362734317779541,0.554529070854187
1732873726135086000,9.304086181640624,3.048624038696289,-0.6749670505523682,0.5641714334487915
1732873726145065200,9.314065185546875,2.5519752502441406,-1.310246229171753,0.4810851216316223
1732873726155075000,9.324074951171875,2.6561689376831055,-2.3803510665893555,0.4627193510532379
1732873726165085000,9.3340849609375,4.078855514526367,-3.4914369583129883,0.8430224061012268
1732873726175064000,9.34406396484375,5.783513069152832,-4.108773231506348,1.055553674697876
1732873726185073700,9.35407373046875,7.302214622497559,-4.597969055175781,1.9805388450622559
1732873726195083500,9.36408349609375,7.389691352844238,-4.274759769439697,2.240651845932007
1732873726205093000,9.374093017578126,5.624107360839844,-3.3025221824645996,1.3615950345993042
1732873726215072500,9.384072509765625,2.6836681365966797,-2.5116078853607178,0.7094189524650574
1732873726225082400,9.394082275390625,-0.5793724060058594,-1.9236658811569214,0.42866137623786926
1732873726235092000,9.404092041015625,-3.05250883102417,-1.7621055841445923,0.8286097049713135
1732873726245071400,9.4140712890625,-5.218193054199219,-1.4852218627929688,1.168806791305542
1732873726255081200,9.424081298828124,-6.781980514526367,-1.4177063703536987,1.5574066638946533
1732873726265090800,9.4340908203125,-7.306514739990234,-1.5507973432540894,1.8417507410049438
1732873726275070200,9.4440703125,-6.873719215393066,-1.802330493927002,2.014678955078125
1732873726285079800,9.454079833984375,-5.566643238067627,-2.1163761615753174,2.0444748401641846
1732873726295089700,9.464089599609375,-3.631178855895996,-2.3282909393310547,1.8835369348526
1732873726305069000,9.474069091796874,-2.0163187980651855,-2.1897757053375244,1.286710262298584
1732873726315078700,9.48407861328125,-0.59112548828125,-2.0056331157684326,0.6169651746749878
1732873726325088300,9.494088134765626,0.40940189361572266,-1.8293287754058838,0.269585520029068
1732873726335067600,9.504067626953125,1.0829429626464844,-1.4973547458648682,0.01734977960586548
1732873726345077500,9.514077392578125,1.1447114944458008,-1.2727329730987549,-0.11275243759155273
1732873726355087400,9.52408740234375,0.9789571762084961,-1.0074819326400757,-0.18494608998298645
1732873726365066500,9.53406640625,0.7120475769042969,-0.8259310126304626,-0.24358230829238892
1732873726375076400,9.544076416015624,0.24294185638427734,-0.6940842866897583,-0.20736482739448547
1732873726385086200,9.554086181640624,-0.14943981170654297,-0.5324258804321289,-0.272262305021286
1732873726395065300,9.5640654296875,-0.4254426956176758,-0.4147449731826782,-0.2952580153942108
1732873726405075000,9.574074951171875,-0.7842226028442383,-0.3530566692352295,-0.3560329079627991
1732873726415084800,9.584084716796875,-0.9338188171386719,-0.25544846057891846,-0.38416239619255066
1732873726425064000,9.59406396484375,-1.0393753051757812,-0.19578564167022705,-0.33327507972717285
1732873726435073800,9.60407373046875,-1.1509065628051758,-0.17462468147277832,-0.2667045295238495
1732873726445083600,9.614083740234374,-1.0822153091430664,-0.16508591175079346,-0.0986829400062561
1732873726455093200,9.62409326171875,-0.9101171493530273,-0.21368300914764404,0.06020185351371765
1732873726465072600,9.63407275390625,-0.7279167175292969,-0.20811903476715088,0.2115865796804428
1732873726475082500,9.64408251953125,-0.6432685852050781,-0.19953250885009766,0.4078981280326843
1732873726485092400,9.65409228515625,-0.6106119155883789,-0.26270854473114014,0.6357951760292053
1732873726495071200,9.6640712890625,-0.5656528472900391,-0.25766897201538086,0.7656639814376831
1732873726505081000,9.6740810546875,-0.6407814025878906,-0.2782156467437744,0.8187333941459656
1732873726515091000,9.684091064453124,-0.7389326095581055,-0.24601900577545166,0.7636587619781494
1732873726525070000,9.694070068359375,-0.7125558853149414,-0.24188899993896484,0.7403001189231873
1732873726535080000,9.704079833984375,-0.6833457946777344,-0.25803518295288086,0.7785642147064209
1732873726545089800,9.71408984375,-0.5261421203613281,-0.2869645357131958,0.9452817440032959
1732873726555069000,9.72406884765625,-0.23605728149414062,-0.31906068325042725,1.225677251815796
1732873726565078800,9.734078857421874,-0.03291893005371094,-0.23840630054473877,1.3592911958694458
1732873726575088400,9.74408837890625,0.08159923553466797,-0.030775904655456543,1.1827586889266968
1732873726585067800,9.75406787109375,0.09410381317138672,0.12324607372283936,1.0643386840820312
1732873726595077400,9.764077392578125,0.21489810943603516,0.25934576988220215,0.9526764750480652
1732873726605087200,9.774087158203125,0.5107669830322266,0.34323155879974365,0.7609699964523315
1732873726615066400,9.78406640625,0.8640651702880859,0.2974104881286621,0.7447869777679443
1732873726625076200,9.794076171875,1.3391456604003906,0.1930103302001953,0.5934540033340454
1732873726635085800,9.8040859375,1.8230295181274414,0.04365432262420654,0.39931753277778625
1732873726645065200,9.814065185546875,2.3083105087280273,-0.15974700450897217,-0.006131529808044434
1732873726655075000,9.824074951171875,2.7394285202026367,-0.3870100975036621,-0.4190937280654907
1732873726665085000,9.8340849609375,3.2036266326904297,-0.650152325630188,-0.8568581342697144
1732873726675064000,9.84406396484375,3.6133108139038086,-0.6688982248306274,-1.1907081604003906
1732873726685073700,9.85407373046875,3.983732223510742,-0.4091169834136963,-1.40212082862854
1732873726695083500,9.86408349609375,3.829671859741211,-0.13118040561676025,-1.4477615356445312
1732873726705093000,9.874093017578126,3.008024215698242,0.020480036735534668,-1.7430540323257446
1732873726715072500,9.884072509765625,1.6362724304199219,-0.28995442390441895,-2.27408504486084
1732873726725082400,9.894082275390625,0.7934036254882812,-0.9903249144554138,-2.61134672164917
1732873726735092200,9.90409228515625,0.9810791015625,-2.19680118560791,-2.5016250610351562
1732873726745071400,9.9140712890625,2.0115957260131836,-3.2743332386016846,-2.117307662963867
1732873726755081200,9.924081298828124,4.0327653884887695,-4.038482189178467,-1.3355953693389893
1732873726765091000,9.934091064453124,6.167484283447266,-4.301164627075195,-0.5994197726249695
1732873726775070200,9.9440703125,7.4281005859375,-4.135159492492676,-0.33080077171325684
1732873726785079800,9.954079833984375,6.758790969848633,-3.5806169509887695,-0.9226803779602051
1732873726795089700,9.964089599609375,4.391839981079102,-3.018139362335205,-1.5643236637115479
1732873726805069000,9.974069091796874,1.1977300643920898,-2.5187251567840576,-2.1314244270324707
1732873726815078700,9.98407861328125,-2.0946178436279297,-2.2609715461730957,-2.0571515560150146
1732873726825088300,9.994088134765626,-4.439177989959717,-1.6251237392425537,-2.4703309535980225
1732873726835067600,10.004067626953125,-6.2134246826171875,-1.3837504386901855,-2.517892837524414
1732873726845077500,10.014077392578125,-7.391185283660889,-1.4627617597579956,-2.1348369121551514
1732873726855087400,10.02408740234375,-7.342593193054199,-1.7482576370239258,-1.4195798635482788
1732873726865066500,10.03406640625,-6.378171920776367,-2.04756498336792,-0.8210646510124207
1732873726875076400,10.044076416015624,-4.998767375946045,-2.3172061443328857,-0.20875510573387146
1732873726885086200,10.054086181640624,-3.289365291595459,-2.5367202758789062,0.5445326566696167
1732873726895065300,10.0640654296875,-2.0646591186523438,-2.600748062133789,0.852670431137085
1732873726905075200,10.0740751953125,-0.9593572616577148,-2.258833169937134,0.7920601963996887
1732873726915084800,10.084084716796875,-0.0370635986328125,-1.8276362419128418,0.5137297511100769
1732873726925064000,10.09406396484375,0.4857044219970703,-1.3766731023788452,0.06331606954336166
1732873726935073800,10.10407373046875,0.7597446441650391,-1.0181710720062256,-0.2796258330345154
1732873726945083400,10.11408349609375,0.7161626815795898,-0.7968157529830933,-0.4628540873527527
1732873726955093200,10.12409326171875,0.4193859100341797,-0.5441704988479614,-0.36138516664505005
1732873726965072600,10.13407275390625,0.0479278564453125,-0.45953381061553955,-0.1577511429786682
1732873726975082500,10.14408251953125,-0.5593528747558594,-0.4997648000717163,0.1930721253156662
1732873726985092000,10.154092041015625,-0.9533662796020508,-0.45561718940734863,0.35918906331062317
1732873726995071500,10.164071533203124,-1.2578363418579102,-0.4686310291290283,0.4909921884536743
1732873727005081000,10.1740810546875,-1.481501579284668,-0.4565694332122803,0.4929159879684448
1732873727015090700,10.184090576171876,-1.4697198867797852,-0.4882960319519043,0.42141830921173096
1732873727025070000,10.194070068359375,-1.1836700439453125,-0.4831221103668213,0.3738841712474823
1732873727035080000,10.204079833984375,-0.8518457412719727,-0.5634588003158569,0.3701631724834442
1732873727045089500,10.214089599609375,-0.5308294296264648,-0.6103370189666748,0.3275811970233917
1732873727055069000,10.22406884765625,-0.3320350646972656,-0.5894944667816162,0.1353461891412735
1732873727065078800,10.234078857421874,-0.18983173370361328,-0.5813694000244141,-0.12301570177078247
1732873727075088400,10.24408837890625,-0.05814933776855469,-0.6387310028076172,-0.2651846408843994
1732873727085067800,10.25406787109375,0.041717529296875,-0.6885637044906616,-0.32375308871269226
1732873727095077400,10.264077392578125,0.2297353744506836,-0.7366749048233032,-0.2626728117465973
1732873727105087200,10.274087158203125,0.4688253402709961,-0.7518197298049927,-0.2755719721317291
1732873727115066400,10.28406640625,0.5891275405883789,-0.7032276391983032,-0.426971971988678
1732873727125076200,10.294076171875,0.6865110397338867,-0.5433343648910522,-0.6070491671562195
1732873727135086000,10.304086181640624,0.5741701126098633,-0.4489712715148926,-0.7619225978851318
1732873727145065200,10.314065185546875,0.4100809097290039,-0.3529551029205322,-0.9651533961296082
1732873727155075000,10.324074951171875,0.3730602264404297,-0.2453136444091797,-1.2720211744308472
1732873727165085000,10.3340849609375,0.47196483612060547,-0.006253242492675781,-1.2198396921157837
1732873727175064000,10.34406396484375,0.8091773986816406,0.0034084320068359375,-1.0354437828063965
1732873727185073700,10.35407373046875,1.2265396118164062,-0.08768343925476074,-0.8371829390525818
1732873727195083500,10.36408349609375,1.783534049987793,-0.19328439235687256,-0.7313132882118225
1732873727205093000,10.374093017578126,2.3440399169921875,-0.21446621417999268,-0.6489269733428955
1732873727215072500,10.384072509765625,2.8060617446899414,-0.18842923641204834,-0.4418365955352783
1732873727225082400,10.394082275390625,3.215826988220215,0.019665002822875977,-0.2932046055793762
1732873727235092000,10.404092041015625,3.2961502075195312,0.3871673345565796,-0.01837402582168579
1732873727245071400,10.4140712890625,2.58758544921875,0.5947614908218384,0.06719601154327393
1732873727255081200,10.424081298828124,1.467081069946289,0.3859844207763672,0.21279042959213257
1732873727265090800,10.4340908203125,0.7115764617919922,-0.4376208782196045,0.33555859327316284
1732873727275070200,10.4440703125,0.9615287780761719,-1.4052200317382812,0.3543768525123596
1732873727285079800,10.454079833984375,2.307037353515625,-2.759037733078003,0.7383073568344116
1732873727295089700,10.464089599609375,4.857868194580078,-3.708611011505127,1.349961519241333
1732873727305069000,10.474069091796874,7.249945640563965,-4.160666465759277,1.8474037647247314
1732873727315078700,10.48407861328125,7.933086395263672,-3.823554515838623,1.9828073978424072
1732873727325088300,10.494088134765626,6.238605499267578,-3.0917840003967285,1.630187749862671
1732873727335067600,10.504067626953125,3.565755844116211,-2.7590184211730957,1.4520639181137085
1732873727345077500,10.514077392578125,0.5941810607910156,-1.9768688678741455,1.1710717678070068
1732873727355087400,10.52408740234375,-1.9694137573242188,-1.288055419921875,0.5775450468063354
1732873727365066500,10.53406640625,-4.172856330871582,-0.6007156372070312,0.15785890817642212
1732873727375076400,10.544076416015624,-6.3885498046875,-0.3352808952331543,0.1934521198272705
1732873727385086200,10.554086181640624,-7.780850410461426,-0.452378511428833,0.7946328520774841
1732873727395065300,10.5640654296875,-8.484308242797852,-0.8107432126998901,1.5495127439498901
1732873727404910600,10.57391064453125,-8.193044662475586,-1.2925362586975098,1.9350321292877197
1732873727415084800,10.584084716796875,-6.755029678344727,-1.6732227802276611,1.6896083354949951
1732873727425064000,10.59406396484375,-5.008979797363281,-2.006960868835449,1.025280475616455
1732873727435073800,10.60407373046875,-2.6879496574401855,-2.2522406578063965,0.5220416784286499
1732873727445083600,10.614083740234374,-0.543025016784668,-2.348773717880249,0.25833195447921753
1732873727455093200,10.62409326171875,1.4802970886230469,-2.132538318634033,0.06157684326171875
1732873727465072600,10.63407275390625,2.677384376525879,-1.7020976543426514,-0.10950213670730591
1732873727475082500,10.64408251953125,2.9776554107666016,-1.3370683193206787,-0.10444337129592896
1732873727485092400,10.65409228515625,2.7825117111206055,-1.101858139038086,0.08123371005058289
1732873727495071200,10.6640712890625,2.2075681686401367,-0.8709453344345093,0.11533612012863159
1732873727505081000,10.6740810546875,1.3721961975097656,-0.6552879810333252,-0.047041162848472595
1732873727515091000,10.684091064453124,0.5621500015258789,-0.5080899000167847,-0.23879538476467133
1732873727525070000,10.694070068359375,-0.12090587615966797,-0.31658995151519775,-0.4013996422290802
1732873727535080000,10.704079833984375,-0.6265087127685547,-0.2787919044494629,-0.4511474370956421
1732873727545089800,10.71408984375,-1.1602020263671875,-0.26086390018463135,-0.3415711224079132
1732873727555069000,10.72406884765625,-1.5226373672485352,-0.15645337104797363,-0.28290271759033203
1732873727565078800,10.734078857421874,-1.852193832397461,-0.06818532943725586,-0.312315434217453
1732873727575088600,10.744088623046874,-1.9749889373779297,-0.061400651931762695,-0.2950073480606079
1732873727585067800,10.75406787109375,-1.949669361114502,-0.034627437591552734,-0.2439049482345581
1732873727595077400,10.764077392578125,-1.7866277694702148,-0.0744161605834961,-0.1703975796699524
1732873727605087200,10.774087158203125,-1.4995012283325195,-0.10862541198730469,-0.13567698001861572
1732873727615066400,10.78406640625,-1.12164306640625,-0.2557264566421509,0.0034618377685546875
1732873727625076200,10.794076171875,-0.9368410110473633,-0.4138730764389038,0.357041597366333
1732873727635086000,10.804086181640624,-0.8721113204956055,-0.5793678760528564,0.4783509373664856
1732873727645065200,10.814065185546875,-0.8045253753662109,-0.651640772819519,0.4682663679122925
1732873727655075000,10.824074951171875,-0.5252685546875,-0.7972142696380615,0.5225486159324646
1732873727665085000,10.8340849609375,-0.25461578369140625,-0.8767517805099487,0.4964958429336548
1732873727675064000,10.84406396484375,0.07438373565673828,-0.823272705078125,0.380916565656662
1732873727685073700,10.85407373046875,0.3251056671142578,-0.8234362602233887,0.3239005506038666
1732873727695083500,10.86408349609375,0.4944171905517578,-0.8087906837463379,0.3279837965965271
1732873727705093000,10.874093017578126,0.7662954330444336,-0.795050859451294,0.31660035252571106
1732873727715072500,10.884072509765625,1.0662145614624023,-0.7428224086761475,0.16645586490631104
1732873727725082400,10.894082275390625,1.5355072021484375,-0.6429867744445801,-0.041134417057037354
1732873727735092200,10.90409228515625,1.9803581237792969,-0.5036869049072266,-0.12244290113449097
1732873727745071400,10.9140712890625,2.516386032104492,-0.3364908695220947,-0.23149925470352173
1732873727755081200,10.924081298828124,2.8232765197753906,-0.26155614852905273,-0.2325647473335266
1732873727765091000,10.934091064453124,2.9240245819091797,-0.1855146884918213,-0.1870872974395752
1732873727775070200,10.9440703125,2.8171911239624023,-0.016582846641540527,-0.1559939980506897
1732873727785079800,10.954079833984375,2.45333194732666,0.06977999210357666,-0.15847456455230713
1732873727795089700,10.964089599609375,1.8475341796875,0.08769023418426514,0.018753111362457275
1732873727805069000,10.974069091796874,1.2778968811035156,0.09155464172363281,0.1506759226322174
1732873727815078700,10.98407861328125,0.43798828125,0.02296292781829834,0.1486588716506958
1732873727825088500,10.994088623046874,-0.3797454833984375,-0.1104116439819336,-0.07747328281402588
1732873727835067600,11.004067626953125,-0.9360218048095703,-0.5218898057937622,-0.26940643787384033
1732873727845077500,11.014077392578125,-0.8448276519775391,-1.1748695373535156,-0.4263765811920166
1732873727855087400,11.02408740234375,0.1523418426513672,-1.958265781402588,-0.6479089856147766
1732873727865066500,11.03406640625,1.6527690887451172,-2.563920021057129,-0.8040041923522949
1732873727875076400,11.044076416015624,3.6599302291870117,-3.0751559734344482,-0.8792604804039001
1732873727885086200,11.054086181640624,5.135488510131836,-3.2678844928741455,-0.8901001214981079
1732873727895065300,11.0640654296875,5.6199846267700195,-3.1063132286071777,-1.0070561170578003
1732873727905075200,11.0740751953125,4.644021987915039,-2.6204473972320557,-1.382077693939209
1732873727915084800,11.084084716796875,2.9890012741088867,-2.589293956756592,-1.30342435836792
1732873727925064000,11.09406396484375,1.4483165740966797,-2.298326015472412,-1.2841814756393433
1732873727935073800,11.10407373046875,0.27321529388427734,-2.0747427940368652,-1.4352976083755493
1732873727945083600,11.114083740234374,-0.7785472869873047,-1.941385269165039,-1.584040641784668
1732873727955093200,11.12409326171875,-1.389190673828125,-2.0546634197235107,-1.5250273942947388
1732873727965072600,11.13407275390625,-1.930323600769043,-2.175732374191284,-1.3152438402175903
1732873727975082500,11.14408251953125,-2.393036365509033,-2.267868995666504,-1.1088367700576782
1732873727985092000,11.154092041015625,-2.7653489112854004,-2.296114206314087,-0.9807509183883667
1732873727995071500,11.164071533203124,-3.017636299133301,-2.2908918857574463,-0.8408843278884888
1732873728005081000,11.1740810546875,-3.197843074798584,-2.399909257888794,-0.6570218801498413
1732873728015090700,11.184090576171876,-3.4384946823120117,-2.491678237915039,-0.6254459619522095
1732873728025070000,11.194070068359375,-3.6113667488098145,-2.3380563259124756,-0.8947680592536926
1732873728035080000,11.204079833984375,-3.534759998321533,-2.066239595413208,-1.3104493618011475
1732873728045089500,11.214089599609375,-2.981837749481201,-1.8181977272033691,-1.6727380752563477
1732873728055069000,11.22406884765625,-2.0343174934387207,-1.6978178024291992,-2.032723903656006
1732873728065078800,11.234078857421874,-0.9471940994262695,-1.6537785530090332,-2.2509846687316895
1732873728075088400,11.24408837890625,0.19030094146728516,-1.6448814868927002,-2.3061957359313965
1732873728085067800,11.25406787109375,0.8605279922485352,-1.741485357284546,-2.312771797180176
1732873728095077400,11.264077392578125,1.3789825439453125,-1.8428014516830444,-2.147709608078003
1732873728105087200,11.274087158203125,1.6553335189819336,-1.9297902584075928,-1.8830214738845825
1732873728115066400,11.28406640625,1.6728296279907227,-2.003477096557617,-1.718199372291565
1732873728125076200,11.294076171875,1.6192188262939453,-2.019523859024048,-1.6462584733963013
1732873728135086000,11.304086181640624,1.7260875701904297,-1.9671590328216553,-1.6643658876419067
1732873728145065200,11.314065185546875,1.966670036315918,-1.8471423387527466,-1.8015693426132202
1732873728155075000,11.324074951171875,2.058321952819824,-1.7353971004486084,-1.8836641311645508
1732873728165085000,11.3340849609375,2.0918684005737305,-1.5999855995178223,-1.9812473058700562
1732873728175064000,11.34406396484375,1.9401416778564453,-1.463228702545166,-2.1117610931396484
1732873728185073700,11.35407373046875,1.7565479278564453,-1.4192860126495361,-2.1957454681396484
1732873728195083500,11.36408349609375,1.3861446380615234,-1.4838368892669678,-2.1989328861236572
1732873728205093000,11.374093017578126,0.9380559921264648,-1.552607774734497,-2.291607141494751
1732873728215072500,11.384072509765625,0.627018928527832,-1.6333141326904297,-2.3567843437194824
1732873728225082400,11.394082275390625,0.3661623001098633,-1.7246812582015991,-2.631096363067627
1732873728235092000,11.404092041015625,0.2459564208984375,-1.8025850057601929,-2.8097925186157227
1732873728245071400,11.4140712890625,0.30922889709472656,-1.9159730672836304,-2.7699356079101562
1732873728255081200,11.424081298828124,0.7046451568603516,-1.9703421592712402,-2.5963034629821777
1732873728265090800,11.4340908203125,1.095200538635254,-1.9660487174987793,-2.3682656288146973
1732873728275070200,11.4440703125,1.3717575073242188,-1.817363977432251,-2.094710350036621
1732873728285080000,11.454080078125,1.2955570220947266,-1.7073683738708496,-1.834017276763916
1732873728295089700,11.464089599609375,0.8620939254760742,-1.539657711982727,-1.5842236280441284
1732873728305069000,11.474069091796874,0.2552328109741211,-1.4483736753463745,-1.3316600322723389
1732873728315078700,11.48407861328125,-0.4016876220703125,-1.3940082788467407,-1.0724462270736694
1732873728325088300,11.494088134765626,-0.8728818893432617,-1.4376112222671509,-0.9523789882659912
1732873728335067600,11.504067626953125,-1.0715436935424805,-1.5598053932189941,-0.9805594086647034
1732873728345077500,11.514077392578125,-0.9327936172485352,-1.6633939743041992,-1.2029496431350708
1732873728355087400,11.52408740234375,-0.6155986785888672,-1.8303868770599365,-1.3575421571731567
1732873728365066500,11.53406640625,-0.15619850158691406,-2.085672616958618,-1.452003002166748
1732873728375076400,11.544076416015624,0.42086219787597656,-2.3645384311676025,-1.364292025566101
1732873728385086200,11.554086181640624,1.0525093078613281,-2.668276786804199,-1.0658012628555298
1732873728395065300,11.5640654296875,1.4197101593017578,-2.8195419311523438,-0.8762869834899902
1732873728405075000,11.574074951171875,1.4874143600463867,-2.7487006187438965,-0.741868257522583
1732873728415084800,11.584084716796875,1.1407709121704102,-2.5867693424224854,-0.7382457852363586
1732873728425064000,11.59406396484375,0.5069026947021484,-2.256436347961426,-0.7878501415252686
1732873728435073800,11.60407373046875,-0.1771383285522461,-2.007737874984741,-0.8057589530944824
1732873728445083600,11.614083740234374,-0.9194841384887695,-1.773641586303711,-0.8095576763153076
1732873728455093200,11.62409326171875,-1.611341953277588,-1.6746965646743774,-0.734154462814331
1732873728465072600,11.63407275390625,-1.9786005020141602,-1.67429780960083,-0.5507290363311768
1732873728475082500,11.64408251953125,-2.1021595001220703,-1.652595043182373,-0.404403954744339
1732873728485092400,11.65409228515625,-1.75034761428833,-1.5941380262374878,-0.21030130982398987
1732873728495071200,11.6640712890625,-1.1745824813842773,-1.5264053344726562,0.055679500102996826
1732873728505081000,11.6740810546875,-0.7555065155029297,-1.4386649131774902,0.22554874420166016
1732873728515091000,11.684091064453124,-0.5787897109985352,-1.3239854574203491,0.40085333585739136
1732873728525070000,11.694070068359375,-0.6366300582885742,-1.2709133625030518,0.45083925127983093
1732873728535080000,11.704079833984375,-0.7657928466796875,-1.306796669960022,0.40994027256965637
1732873728545089500,11.714089599609375,-0.824955940246582,-1.3856652975082397,0.31728100776672363
1732873728555069000,11.72406884765625,-0.5753440856933594,-1.583814263343811,0.21609851717948914
1732873728565078800,11.734078857421874,0.19774818420410156,-1.7597376108169556,0.20572370290756226
1732873728575088600,11.744088623046874,1.1352310180664062,-2.003726005554199,0.2414306104183197
1732873728585067800,11.75406787109375,2.3498449325561523,-2.1439931392669678,0.422271728515625
1732873728595077400,11.764077392578125,3.325773239135742,-2.1951797008514404,0.7357282638549805
1732873728605087200,11.774087158203125,3.904189109802246,-2.1207375526428223,1.0431195497512817
1732873728615066400,11.78406640625,3.744997024536133,-1.8517882823944092,1.06447172164917
1732873728625076200,11.794076171875,2.5937509536743164,-1.5714162588119507,0.8935653567314148
1732873728635086000,11.804086181640624,1.5527477264404297,-1.3610665798187256,0.9050277471542358
1732873728645065200,11.814065185546875,0.32491016387939453,-1.3790743350982666,0.8402783870697021
1732873728655075000,11.824074951171875,-0.3984489440917969,-1.5630403757095337,0.9175080060958862
1732873728665085000,11.8340849609375,-0.97515869140625,-1.7592825889587402,0.931319534778595
1732873728675064000,11.84406396484375,-1.1336870193481445,-1.812642216682434,0.723443865776062
1732873728685073700,11.85407373046875,-1.2619743347167969,-1.8898688554763794,0.48042812943458557
1732873728695083500,11.86408349609375,-1.2040586471557617,-1.9520115852355957,0.2186010330915451
1732873728705093000,11.874093017578126,-1.136591911315918,-2.0033674240112305,0.18612468242645264
1732873728715072500,11.884072509765625,-0.8986196517944336,-2.185645580291748,0.22876115143299103
1732873728725082400,11.894082275390625,-0.43035888671875,-2.313864231109619,0.3456278145313263
1732873728735092000,11.904092041015625,-0.03075408935546875,-2.5423200130462646,0.42180609703063965
1732873728745071400,11.9140712890625,0.11172962188720703,-2.7135016918182373,0.4340762495994568
1732873728755081200,11.924081298828124,0.26340770721435547,-2.7697763442993164,0.2560776174068451
1732873728765091000,11.934091064453124,0.2927064895629883,-2.8861899375915527,0.2916913330554962
1732873728775070200,11.9440703125,0.3934621810913086,-2.9162485599517822,0.40738368034362793
1732873728785080000,11.954080078125,0.24466323852539062,-2.933084011077881,0.4243648052215576
1732873728795089700,11.964089599609375,0.18405914306640625,-2.918060779571533,0.3865780532360077
1732873728805069000,11.974069091796874,0.07575035095214844,-1.7649054527282715,0.14213475584983826
1732873728815078700,11.98407861328125,0.08489608764648438,-1.0077484846115112,0.09189147502183914
1732873728825088500,11.994088623046874,0.0793294906616211,-0.4815308749675751,0.0342758446931839
1732873728835067600,12.004067626953125,0.13495159149169922,-0.11350607872009277,-0.0548296719789505
1732873728845077500,12.014077392578125,0.09665584564208984,0.15492427349090576,-0.3867589831352234
1732873728855087400,12.02408740234375,0.02888774871826172,0.36862894892692566,-0.7264682054519653
1732873728865066500,12.03406640625,0.1340770721435547,0.4540669620037079,-0.8612725138664246
1732873728875076400,12.044076416015624,0.3202390670776367,0.34520581364631653,-0.6808406114578247
1732873728885086200,12.054086181640624,0.6609249114990234,0.21626487374305725,-0.4150027632713318
1732873728895065300,12.0640654296875,1.0426416397094727,0.18612712621688843,-0.31298142671585083
1732873728905075200,12.0740751953125,1.6568584442138672,0.23758238554000854,-0.10121732950210571
1732873728915084800,12.084084716796875,2.043704032897949,0.32157593965530396,-0.0013147592544555664
1732873728925064000,12.09406396484375,2.2982845306396484,0.456787645816803,0.03188750147819519
1732873728935073800,12.10407373046875,2.2070674896240234,0.6030507683753967,0.014820396900177002
1732873728945083600,12.114083740234374,1.8846054077148438,0.734454333782196,0.11097462475299835
1732873728955093200,12.12409326171875,1.330801010131836,0.8289378881454468,0.4175361394882202
1732873728965072600,12.13407275390625,0.6272134780883789,0.9261593818664551,0.6460529565811157
1732873728975082500,12.14408251953125,-0.4316396713256836,1.1093363761901855,0.906907320022583
1732873728985092000,12.154092041015625,-1.407003402709961,1.2459242343902588,1.069223403930664
1732873728995071500,12.164071533203124,-2.1854710578918457,1.3896560668945312,1.1253737211227417
1732873729005081000,12.1740810546875,-2.308281898498535,1.3706578016281128,1.2498605251312256
1732873729015090700,12.184090576171876,-1.7902741432189941,1.2988190650939941,1.3187072277069092
1732873729025070000,12.194070068359375,-0.7340555191040039,1.2257506847381592,1.4241573810577393
1732873729035080000,12.204079833984375,0.3216400146484375,1.2653601169586182,1.5179922580718994
1732873729045089500,12.214089599609375,1.1791763305664062,1.4135448932647705,1.4552459716796875
1732873729055069000,12.22406884765625,1.6869163513183594,1.6342427730560303,1.400346040725708
1732873729065078800,12.234078857421874,1.7892770767211914,1.7910263538360596,1.3517236709594727
1732873729075088400,12.24408837890625,1.6044120788574219,1.8874645233154297,1.4027296304702759
1732873729085067800,12.25406787109375,1.2058706283569336,1.9710057973861694,1.6371097564697266
1732873729095077400,12.264077392578125,0.9145698547363281,1.9654316902160645,1.806803584098816
1732873729105087200,12.274087158203125,0.7883224487304688,1.986025094985962,1.7102346420288086
1732873729115066400,12.28406640625,0.5638895034790039,1.9370191097259521,1.5670475959777832
1732873729125076200,12.294076171875,0.3607778549194336,1.8030813932418823,1.531931757926941
1732873729135086000,12.304086181640624,0.17403411865234375,1.7175391912460327,1.7288612127304077
1732873729145065200,12.314065185546875,-0.04193687438964844,1.726800560951233,1.7731825113296509
1732873729155075000,12.324074951171875,-0.21750926971435547,1.7771267890930176,1.7028952836990356
1732873729165085000,12.3340849609375,-0.36522674560546875,1.2676634788513184,1.0120638608932495
1732873729175064000,12.34406396484375,-0.4392404556274414,1.4418500661849976,0.5601052641868591
1732873729185073700,12.35407373046875,-0.5202865600585938,1.5057471990585327,0.24783958494663239
1732873729195083500,12.36408349609375,-0.6133289337158203,1.4488071203231812,0.27561843395233154
1732873729205093000,12.374093017578126,-0.5365686416625977,1.3520965576171875,0.09376212954521179
1732873729215072500,12.384072509765625,-0.4266328811645508,1.3993315696716309,0.002535313367843628
1732873729225082400,12.394082275390625,-0.6119384765625,1.3486336469650269,0.04259815812110901
1732873729235092000,12.404092041015625,-0.6180553436279297,1.3331373929977417,0.15552672743797302
1732873729245071400,12.4140712890625,-0.5859031677246094,1.2600266933441162,0.43830442428588867
1732873729255081200,12.424081298828124,-0.3810615539550781,1.0840935707092285,0.6996562480926514
1732873729265090800,12.4340908203125,-0.08720874786376953,0.8906658887863159,1.0913337469100952
1732873729275070200,12.4440703125,-0.1137990951538086,0.8419473171234131,1.2708286046981812
1732873729285080000,12.454080078125,-0.32686519622802734,1.0193992853164673,1.117767572402954
1732873729295089700,12.464089599609375,-0.6545906066894531,1.1472173929214478,0.8958107829093933
1732873729305068800,12.47406884765625,-0.9702558517456055,1.144733190536499,0.7606935501098633
1732873729315078700,12.48407861328125,-1.0992088317871094,1.1108601093292236,0.5083810687065125
1732873729325088300,12.494088134765626,-0.8380451202392578,0.9913978576660156,0.2762504518032074
1732873729335067600,12.504067626953125,-0.32093334197998047,0.7558150291442871,0.028161071240901947
1732873729345077500,12.514077392578125,0.5143575668334961,0.5413414239883423,-0.1811092644929886
1732873729355087400,12.52408740234375,1.4762201309204102,0.43643254041671753,-0.2647255063056946
1732873729365066500,12.53406640625,2.2321624755859375,0.3663310706615448,-0.17663227021694183
1732873729375076400,12.544076416015624,2.500006675720215,0.4128883481025696,-0.04895339906215668
1732873729385086200,12.554086181640624,2.2415084838867188,0.7158099412918091,0.009305700659751892
1732873729395065300,12.5640654296875,1.257863998413086,0.9614660143852234,0.11672249436378479
1732873729405075000,12.574074951171875,0.1403036117553711,1.1685978174209595,0.20678988099098206
1732873729415084800,12.584084716796875,-0.9005880355834961,1.424240231513977,0.16756489872932434
1732873729425064000,12.59406396484375,-1.6373815536499023,1.5561155080795288,-0.050038814544677734
1732873729435073800,12.60407373046875,-1.794769287109375,1.668485403060913,-0.18101337552070618
1732873729445083600,12.614083740234374,-1.6698226928710938,1.6803041696548462,-0.5016797184944153
1732873729455093200,12.62409326171875,-1.2598743438720703,1.6267285346984863,-0.622143030166626
1732873729465072600,12.63407275390625,-0.8859567642211914,1.4781115055084229,-0.6844203472137451
1732873729475082500,12.64408251953125,-0.5983314514160156,1.3138383626937866,-0.6632007360458374
1732873729485092400,12.65409228515625,-0.3107624053955078,1.1668124198913574,-0.4957941472530365
1732873729495071200,12.6640712890625,-0.0687398910522461,1.0574413537979126,-0.31959521770477295
