time,seconds_elapsed,z,y,x
1732873717015253500,0.18425341796875,-0.08857546001672745,-0.02382374368607998,0.04214970022439957
1732873717025226800,0.194226806640625,-0.0757472887635231,-0.04337143152952194,0.054367005825042725
1732873717035228200,0.204228271484375,-0.05619960278272629,-0.05375614017248154,0.07635815441608429
1732873717045215700,0.2142158203125,-0.04398229718208313,-0.031154127791523933,0.10567969083786011
1732873717055217000,0.224216796875,-0.024434609338641167,0.02932153269648552,0.14477506279945374
1732873717065204700,0.234204833984375,0.01160643994808197,0.13377949595451355,0.18631389737129211
1732873717075236400,0.244236328125,0.05925392732024193,0.2669481039047241,0.2376265823841095
1732873717085193700,0.25419384765625,0.10812314599752426,0.36651915311813354,0.2919935882091522
1732873717095225300,0.264225341796875,0.13255776464939117,0.39584067463874817,0.3090978264808655
1732873717105213200,0.274213134765625,0.12950342893600464,0.33108896017074585,0.2632829248905182
1732873717115214600,0.284214599609375,0.04703662544488907,0.09651670604944229,0.13927727937698364
1732873717125202400,0.294202392578125,-0.03237585723400116,-0.08368854224681854,0.04214970022439957
1732873717135234000,0.304234130859375,-0.10018189996480942,-0.21991148591041565,-0.05375614017248154
1732873717145191400,0.31419140625,-0.14477506279945374,-0.2919935882091522,-0.11301007121801376
1732873717155223000,0.32422314453125,-0.16249015927314758,-0.3194825351238251,-0.12278391420841217
1732873717165211000,0.3342109375,-0.1563815027475357,-0.313373863697052,-0.09957103431224823
1732873717175212000,0.3442119140625,-0.13316862285137177,-0.28588494658470154,-0.05619960278272629
1732873717185199900,0.354199951171875,-0.09468411654233932,-0.22846360504627228,0.02076941914856434
1732873717195231500,0.3642314453125,-0.06658431142568588,-0.16982053220272064,0.05864306539297104
1732873717205219300,0.37421923828125,-0.0403171069920063,-0.1111774742603302,0.08246681094169617
1732873717215220500,0.384220458984375,-0.02626720629632473,-0.06719517707824707,0.09773843735456467
1732873717225208300,0.394208251953125,-0.025656340643763542,-0.05742133408784866,0.10384709388017654
1732873717235240200,0.404240234375,-0.0403171069920063,-0.08674286305904388,0.1014036312699318
1732873717245197600,0.414197509765625,-0.06108652427792549,-0.1313360333442688,0.08307767659425735
1732873717255229200,0.424229248046875,-0.09896016865968704,-0.18936823308467865,0.04337143152952194
1732873717265217000,0.434217041015625,-0.11789698898792267,-0.23029619455337524,0.02687807008624077
1732873717275218200,0.44421826171875,-0.14233160018920898,-0.3139847218990326,0.015882495790719986
1732873717285205800,0.454205810546875,-0.16737708449363708,-0.3543018400669098,0.00733038317412138
1732873717295238000,0.46423779296875,-0.16737708449363708,-0.35246923565864563,0.006719517521560192
1732873717305195000,0.474195068359375,-0.14905111491680145,-0.34208452701568604,0.013439035043120384
1732873717315226400,0.484226318359375,-0.11667526513338089,-0.33169981837272644,0.027488935738801956
1732873717325214500,0.49421435546875,-0.0861319974064827,-0.30115658044815063,0.05375614017248154
1732873717335215600,0.504215576171875,-0.05192354694008827,-0.26083946228027344,0.11728613078594208
1732873717345203500,0.514203369140625,-0.04642575979232788,-0.24190263450145721,0.1514945775270462
1732873717355235300,0.5242353515625,-0.056810468435287476,-0.22296582162380219,0.17287486791610718
1732873717365192400,0.5341923828125,-0.07391469180583954,-0.20830504596233368,0.192422553896904
1732873717375224300,0.544224365234375,-0.07147123664617538,-0.21074850857257843,0.2076941877603531
1732873717385212000,0.5542119140625,-0.06536258012056351,-0.22357667982578278,0.22052235901355743
1732873717395213300,0.56421337890625,-0.05803219974040985,-0.2119702398777008,0.22602014243602753
1732873717405201200,0.574201171875,-0.015882495790719986,-0.14049901068210602,0.22052235901355743
1732873717415232000,0.58423193359375,0.00733038317412138,-0.06963863968849182,0.2015855312347412
1732873717425190100,0.594190185546875,0.030543262138962746,-0.01466076634824276,0.16737708449363708
1732873717435221200,0.60422119140625,0.042760565876960754,0.00733038317412138,0.11972958594560623
1732873717445209900,0.6142099609375,0.03481931984424591,-0.001832595793530345,0.06780604273080826
1732873717455240400,0.624240478515625,0.015271631069481373,-0.027488935738801956,0.022602014243602753
1732873717465198800,0.63419873046875,-0.00427605677396059,-0.05192354694008827,-0.012828170321881771
1732873717475230500,0.64423046875,-0.018325956538319588,-0.05925392732024193,-0.039706241339445114
1732873717485218000,0.654218017578125,-0.015271631069481373,-0.04459316283464432,-0.030543262138962746
1732873717495219200,0.66421923828125,-0.01771509274840355,-0.028099801391363144,-0.0024434609804302454
1732873717505207300,0.674207275390625,-0.025045474991202354,-0.027488935738801956,0.02687807008624077
1732873717515239000,0.684239013671875,-0.02687807008624077,-0.03176499158143997,0.03787364438176155
1732873717525196300,0.6941962890625,-0.028099801391363144,-0.039706241339445114,0.033597588539123535
1732873717535227400,0.704227294921875,-0.036651913076639175,-0.08552113175392151,0.007941247895359993
1732873717545216000,0.714216064453125,-0.06414084881544113,-0.16798794269561768,-0.04948008432984352
1732873717555216400,0.72421630859375,-0.11423180252313614,-0.2919935882091522,-0.16554448008537292
1732873717565204700,0.734204833984375,-0.12339477986097336,-0.3237585723400116,-0.20891591906547546
1732873717575235800,0.74423583984375,-0.09896016865968704,-0.2877175211906433,-0.20402899384498596
1732873717585193700,0.75419384765625,-0.060475658625364304,-0.20097467303276062,-0.14477506279945374
1732873717595223800,0.764223876953125,-0.03298672288656235,-0.09896016865968704,-0.048258353024721146
1732873717605212400,0.77421240234375,-0.006719517521560192,0.01160643994808197,0.039706241339445114
1732873717615213600,0.784213623046875,0.012217304669320583,0.0806342139840126,0.09896016865968704
1732873717625201200,0.794201171875,0.00427605677396059,0.08735372871160507,0.12034045159816742
1732873717635233000,0.80423291015625,-0.016493361443281174,0.05497787147760391,0.09896016865968704
1732873717645190400,0.8141904296875,-0.03481931984424591,0.021991148591041565,0.06414084881544113
1732873717655221800,0.8242216796875,-0.051312681287527084,-0.004886921960860491,0.03420845419168472
1732873717665209900,0.8342099609375,-0.06352998316287994,-0.01466076634824276,0.007941247895359993
1732873717675210800,0.844210693359375,-0.06780604273080826,-0.010995574295520782,-0.010995574295520782
1732873717685199000,0.85419921875,-0.07330382615327835,-0.00366519158706069,-0.015882495790719986
1732873717695231700,0.864231689453125,-0.07880161702632904,0.01160643994808197,0.0006108652451075613
1732873717705219300,0.87421923828125,-0.08002334833145142,0.028099801391363144,0.01710422709584236
1732873717715220700,0.884220703125,-0.07941248267889023,0.04337143152952194,0.031154127791523933
1732873717725208600,0.89420849609375,-0.08002334833145142,0.04764748737215996,0.04337143152952194
1732873717735240200,0.904240234375,-0.08002334833145142,0.031154127791523933,0.04764748737215996
1732873717745197600,0.914197509765625,-0.08307767659425735,0.009162978269159794,0.042760565876960754
1732873717755228700,0.924228759765625,-0.08796459436416626,-0.01466076634824276,0.033597588539123535
1732873717765217000,0.934217041015625,-0.08429940044879913,-0.019547687843441963,0.028099801391363144
1732873717775218200,0.94421826171875,-0.10873401165008545,-0.007941247895359993,0.01771509274840355
1732873717785205800,0.954205810546875,-0.1270599663257599,0,0.00855211354792118
1732873717795237600,0.964237548828125,-0.14294247329235077,0.004886921960860491,0.005497787147760391
1732873717805195000,0.974195068359375,-0.1661553531885147,-0.0006108652451075613,0.018325956538319588
1732873717815226600,0.9842265625,-0.192422553896904,-0.00427605677396059,0.04092797264456749
1732873717825242600,0.99424267578125,-0.21563543379306793,0.001832595793530345,0.05497787147760391
1732873717835215000,1.004215087890625,-0.2382374405860901,0.0006108652451075613,0.05803219974040985
1732873717845203500,1.014203369140625,-0.2981022298336029,-0.05009094998240471,0.039706241339445114
1732873717855234800,1.02423486328125,-0.3543018400669098,-0.09896016865968704,0.004886921960860491
1732873717865192400,1.0341923828125,-0.41172316670417786,-0.12034045159816742,-0.04092797264456749
1732873717875223800,1.044223876953125,-0.46792277693748474,-0.10751228034496307,-0.0708603709936142
1732873717885212000,1.0542119140625,-0.513737678527832,-0.0507018156349659,-0.04703662544488907
1732873717895213300,1.06421337890625,-0.5210680365562439,0.06902777403593063,0.054367005825042725
1732873717905201200,1.074201171875,-0.5265658497810364,0.1508837193250656,0.2431243658065796
1732873717915231700,1.084231689453125,-0.6108652353286743,0.10262536257505417,0.5736024379730225
1732873717925190100,1.094190185546875,-0.7171558141708374,-0.07757988572120667,0.7244861721992493
1732873717935220200,1.10422021484375,-0.8546004891395569,-0.34086281061172485,0.7843509912490845
1732873717945209900,1.1142099609375,-0.96883225440979,-0.6426302194595337,0.7489207983016968
1732873717955240200,1.124240234375,-1.0201449394226074,-0.9248499870300293,0.6017022728919983
1732873717965198600,1.134198486328125,-1.017701506614685,-1.1276572942733765,0.3634648323059082
1732873717975229200,1.144229248046875,-0.940732479095459,-1.1563678979873657,0.09407325088977814
1732873717985218000,1.154218017578125,-0.8649851679801941,-1.0983357429504395,-0.19364428520202637
1732873717995218200,1.16421826171875,-1.0879509449005127,-0.807563841342926,-0.394008070230484
1732873718005207300,1.174207275390625,-1.1753047704696655,-0.5717698931694031,-0.35246923565864563
1732873718015238000,1.18423779296875,-1.2150110006332397,-0.3121521472930908,-0.24923302233219147
1732873718025196300,1.1941962890625,-1.2522737979888916,-0.08491026610136032,-0.11911872029304504
1732873718035228200,1.204228271484375,-1.2522737979888916,0.05009094998240471,0.013439035043120384
1732873718045215700,1.2142158203125,-1.2296717166900635,0.07147123664617538,0.13500121235847473
1732873718055216400,1.22421630859375,-1.2272282838821411,-0.02076941914856434,0.22846360504627228
1732873718065204700,1.234204833984375,-1.2797627449035645,-0.24862214922904968,0.2583959996700287
1732873718075235300,1.2442353515625,-1.3530665636062622,-0.3744603991508484,0.17043140530586243
1732873718085193700,1.25419384765625,-1.4465289115905762,-0.45692721009254456,0.012828170321881771
1732873718095224300,1.264224365234375,-1.5699236392974854,-0.5192354321479797,-0.16920967400074005
1732873718105213200,1.274213134765625,-1.7049249410629272,-0.5723807215690613,-0.3323107063770294
1732873718115214600,1.284214599609375,-1.8277088403701782,-0.6407976150512695,-0.4178318381309509
1732873718125202400,1.294202392578125,-1.9217820167541504,-0.7110471725463867,-0.3579670190811157
1732873718135234000,1.304234130859375,-1.9413297176361084,-0.8045095205307007,-0.004886921960860491
1732873718145191400,1.31419140625,-1.9144517183303833,-0.7996225953102112,0.32681289315223694
1732873718155223000,1.32422314453125,-1.8918496370315552,-0.7348709106445312,0.6499606370925903
1732873718165211000,1.3342109375,-1.8735237121582031,-0.5845980644226074,0.8759807348251343
1732873718175212300,1.34421240234375,-1.8478673696517944,-0.34025195240974426,0.9346238374710083
1732873718185199900,1.354199951171875,-1.853365182876587,-0.05497787147760391,0.8228355050086975
1732873718195231000,1.36423095703125,-1.8808541297912598,0.17470745742321014,0.5656611919403076
1732873718205219300,1.37421923828125,-1.9242255687713623,0.2816088795661926,0.2028072625398636
1732873718215220700,1.384220703125,-2.0274617671966553,0.13561208546161652,-0.3805690407752991
1732873718225208600,1.39420849609375,-2.1398608684539795,-0.1014036312699318,-0.6670648455619812
1732873718235240200,1.404240234375,-2.2156083583831787,-0.37690386176109314,-0.8045095205307007
1732873718245197600,1.414197509765625,-2.3017401695251465,-0.6695083379745483,-0.7855727076530457
1732873718255229200,1.424229248046875,-2.403143882751465,-0.9108000993728638,-0.6688974499702454
1732873718265217000,1.434217041015625,-2.4752259254455566,-1.073290228843689,-0.5210680365562439
1732873718275218200,1.44421826171875,-2.507601737976074,-1.1337659358978271,-0.3793473243713379
1732873718285206000,1.4542060546875,-2.442850112915039,-0.969443142414093,-0.2070833146572113
1732873718295238000,1.46423779296875,-2.350609540939331,-0.7189884185791016,-0.10873401165008545
1732873718305195000,1.474195068359375,-2.2492058277130127,-0.4550946056842804,-0.02932153269648552
1732873718315227000,1.484226806640625,-2.152689218521118,-0.23457226157188416,0.018325956538319588
1732873718325214500,1.49421435546875,-2.0971004962921143,-0.11667526513338089,0.0354301854968071
1732873718335215900,1.5042158203125,-2.076941728591919,-0.09834930300712585,0.03298672288656235
1732873718345203700,1.51420361328125,-2.0702223777770996,-0.1472185254096985,0.015271631069481373
1732873718355235300,1.5242353515625,-2.0812180042266846,-0.304210901260376,-0.027488935738801956
1732873718365192400,1.5341923828125,-2.1032090187072754,-0.4153883755207062,-0.06902777403593063
1732873718375224300,1.544224365234375,-2.1258111000061035,-0.49235737323760986,-0.11362093687057495
1732873718385212000,1.5542119140625,-2.152689218521118,-0.5320636034011841,-0.1417207419872284
1732873718395213600,1.564213623046875,-2.180178165435791,-0.5503895878791809,-0.1411098688840866
1732873718405201200,1.574201171875,-2.1978931427001953,-0.5564982295036316,-0.11972958594560623
1732873718415233000,1.58423291015625,-2.20583438873291,-0.5540547966957092,-0.0861319974064827
1732873718425190100,1.594190185546875,-2.2033908367156982,-0.5516113042831421,-0.04459316283464432
1732873718435221800,1.6042216796875,-2.1991147994995117,-0.5387831330299377,0.015271631069481373
1732873718445209900,1.6142099609375,-2.1954495906829834,-0.5283984541893005,0.05314527451992035
1732873718455241500,1.624241455078125,-2.1954495906829834,-0.5198463201522827,0.08491026610136032
1732873718465198600,1.634198486328125,-2.194227933883667,-0.5125159621238708,0.10567969083786011
1732873718475230500,1.64423046875,-2.194227933883667,-0.5070181488990784,0.11362093687057495
1732873718485218300,1.65421826171875,-2.196671485900879,-0.49357911944389343,0.1062905490398407
1732873718495219700,1.6642197265625,-2.194838762283325,-0.47280970215797424,0.0861319974064827
1732873718505207300,1.674207275390625,-2.1868975162506104,-0.39156460762023926,0.01710422709584236
1732873718515239200,1.6842392578125,-2.1728477478027344,-0.29077184200286865,-0.06841690838336945
1732873718525196500,1.694196533203125,-2.1734585762023926,-0.2015855312347412,-0.17531833052635193
1732873718535228200,1.704228271484375,-2.194227933883667,-0.15943582355976105,-0.30054569244384766
1732873718545216000,1.714216064453125,-2.22782564163208,-0.1661553531885147,-0.43799036741256714
1732873718555217200,1.724217041015625,-2.272418737411499,-0.23579397797584534,-0.5552765130996704
1732873718565204700,1.734204833984375,-2.325563907623291,-0.3390302062034607,-0.6340781450271606
1732873718575236600,1.744236572265625,-2.3652701377868652,-0.4709770977497101,-0.6664539575576782
1732873718585193700,1.75419384765625,-2.353052854537964,-0.5064072608947754,-0.636521577835083
1732873718595224000,1.76422412109375,-2.322509765625,-0.5064072608947754,-0.5644394755363464
1732873718605212400,1.77421240234375,-2.274862289428711,-0.46792277693748474,-0.46242499351501465
1732873718615213600,1.784213623046875,-2.2015583515167236,-0.37079519033432007,-0.3280346393585205
1732873718625201400,1.794201416015625,-2.1068742275238037,-0.22540926933288574,-0.17409659922122955
1732873718635233300,1.8042333984375,-2.0030272006988525,-0.07635815441608429,-0.018325956538319588
1732873718645190400,1.8141904296875,-1.9113973379135132,0.02076941914856434,0.12217304855585098
1732873718655222300,1.82422216796875,-1.80510675907135,0.04153883829712868,0.24007004499435425
1732873718665209900,1.8342099609375,-1.7513506412506104,-0.025656340643763542,0.25045475363731384
1732873718675211300,1.844211181640625,-1.7079792022705078,-0.12767083942890167,0.21807889640331268
1732873718685199000,1.85419921875,-1.660942554473877,-0.2278527319431305,0.152105450630188
1732873718695230200,1.864230224609375,-1.5968017578125,-0.30115658044815063,0.06902777403593063
1732873718705219300,1.87421923828125,-1.513113260269165,-0.35246923565864563,-0.01466076634824276
1732873718715219200,1.88421923828125,-1.415374755859375,-0.384845107793808,-0.08979719132184982
1732873718725208300,1.894208251953125,-1.2589932680130005,-0.36163222789764404,-0.16493362188339233
1732873718735239000,1.904239013671875,-1.1478158235549927,-0.32070425152778625,-0.18570303916931152
1732873718745197600,1.914197509765625,-1.0390818119049072,-0.2675589919090271,-0.18081611394882202
1732873718755228000,1.924227783203125,-0.9382890462875366,-0.22052235901355743,-0.16004669666290283
1732873718765217300,1.93421728515625,-0.8478809595108032,-0.19792033731937408,-0.14049901068210602
1732873718775217000,1.944216796875,-0.7629706859588623,-0.2070833146572113,-0.13744467496871948
1732873718785205800,1.954205810546875,-0.684779942035675,-0.24129177629947662,-0.152105450630188
1732873718795236900,1.96423681640625,-0.5974262356758118,-0.32559117674827576,-0.1814269721508026
1732873718805195000,1.974195068359375,-0.5461135506629944,-0.37690386176109314,-0.2015855312347412
1732873718815225600,1.9842255859375,-0.4899139404296875,-0.39217549562454224,-0.2125810980796814
1732873718825214500,1.99421435546875,-0.42638394236564636,-0.35552358627319336,-0.19853121042251587
1732873718835214600,2.004214599609375,-0.3536909818649292,-0.26145032048225403,-0.15027284622192383
1732873718845203500,2.014203369140625,-0.2736676335334778,-0.13439035415649414,-0.0861319974064827
1732873718855234000,2.024234130859375,-0.20097467303276062,-0.007941247895359993,-0.02382374368607998
1732873718865192700,2.034192626953125,-0.14844025671482086,0.0659734457731247,0.015271631069481373
1732873718875223800,2.044223876953125,-0.1062905490398407,0.04581489413976669,-0.003054326167330146
1732873718885212000,2.0542119140625,-0.09285151958465576,-0.030543262138962746,-0.04092797264456749
1732873718895212500,2.064212646484375,-0.08124507963657379,-0.11423180252313614,-0.07024950534105301
1732873718905218600,2.074218505859375,-0.07147123664617538,-0.1722639948129654,-0.0659734457731247
1732873718915249400,2.08424951171875,-0.05253441259264946,-0.18814650177955627,-0.036041051149368286
1732873718925207800,2.094207763671875,-0.02321287989616394,-0.16737708449363708,0.022602014243602753
1732873718935238400,2.10423828125,0.007941247895359993,-0.13255776464939117,0.10567969083786011
1732873718945227300,2.114227294921875,0.07147123664617538,-0.05619960278272629,0.22846360504627228
1732873718955258000,2.124258056640625,0.12339477986097336,0.006108652334660292,0.2767219543457031
1732873718965216300,2.13421630859375,0.1722639948129654,0.06169738993048668,0.2987131178379059
1732873718975247400,2.144247314453125,0.20830504596233368,0.12339477986097336,0.30543261766433716
1732873718985235700,2.154235595703125,0.21380282938480377,0.17287486791610718,0.3066543638706207
1732873718995236600,2.164236572265625,0.17470745742321014,0.19547687470912933,0.3084869384765625
1732873719005225000,2.174224853515625,0.11301007121801376,0.16371189057826996,0.29138273000717163
1732873719015255800,2.184255859375,0.009773843921720982,0.06536258012056351,0.2119702398777008
1732873719025214000,2.1942138671875,-0.04398229718208313,-0.003054326167330146,0.1215621829032898
1732873719035244500,2.20424462890625,-0.08796459436416626,-0.07147123664617538,0.015271631069481373
1732873719045233200,2.214233154296875,-0.12767083942890167,-0.12767083942890167,-0.07757988572120667
1732873719055233500,2.224233642578125,-0.14355333149433136,-0.1508837193250656,-0.12828169763088226
1732873719065222100,2.23422216796875,-0.12828169763088226,-0.15027284622192383,-0.1160643994808197
1732873719075253800,2.244253662109375,-0.05192354694008827,-0.12095131725072861,-0.03726277872920036
1732873719085211400,2.25421142578125,0.018936822190880775,-0.07880161702632904,0.0910189226269722
1732873719095243000,2.264242919921875,0.059864792972803116,-0.06902777403593063,0.29016098380088806
1732873719105230800,2.27423095703125,0.06658431142568588,-0.0806342139840126,0.37079519033432007
1732873719115231200,2.284231201171875,0.06169738993048668,-0.09712757170200348,0.4001167416572571
1732873719125219800,2.2942197265625,0.04337143152952194,-0.12095131725072861,0.394618958234787
1732873719135250700,2.304250732421875,0.010995574295520782,-0.1411098688840866,0.3634648323059082
1732873719145208800,2.314208740234375,0.010995574295520782,-0.15393804013729095,0.3066543638706207
1732873719155240000,2.324239990234375,0.02687807008624077,-0.1472185254096985,0.24007004499435425
1732873719165228300,2.334228271484375,0.02626720629632473,-0.11911872029304504,0.16493362188339233
1732873719175229000,2.34422900390625,-0.0006108652451075613,-0.07819075137376785,0.12278391420841217
1732873719185217500,2.354217529296875,-0.03848451003432274,-0.02932153269648552,0.06658431142568588
1732873719195248600,2.36424853515625,-0.07024950534105301,0.0024434609804302454,-0.028099801391363144
1732873719205237000,2.374237060546875,-0.09651670604944229,-0.004886921960860491,-0.15027284622192383
1732873719215237000,2.384237060546875,-0.11972958594560623,-0.02382374368607998,-0.27061331272125244
1732873719225225700,2.394225830078125,-0.13011430203914642,-0.036041051149368286,-0.3634648323059082
1732873719235256800,2.4042568359375,-0.1258382350206375,-0.02932153269648552,-0.4331034719944
1732873719245215000,2.414215087890625,-0.10751228034496307,-0.014049900695681572,-0.44776421785354614
1732873719255246000,2.42424609375,-0.11850785464048386,-0.04337143152952194,-0.4660901725292206
1732873719265234400,2.434234375,-0.19547687470912933,-0.04948008432984352,-0.5259549617767334
1732873719275235000,2.444235107421875,-0.323147714138031,-0.0659734457731247,-0.6298020482063293
1732873719285223700,2.4542236328125,-0.35613444447517395,-0.08979719132184982,-0.6835582256317139
1732873719295254800,2.4642548828125,-0.3494149148464203,-0.1313360333442688,-0.6646214127540588
1732873719305212400,2.47421240234375,-0.40133845806121826,-0.11789698898792267,-0.6004805564880371
1732873719315243500,2.484243408203125,-0.5277875661849976,-0.10751228034496307,-0.4862487316131592
1732873719325231900,2.49423193359375,-0.5839871764183044,-0.152105450630188,-0.39217549562454224
1732873719335232800,2.504232666015625,-0.6102544069290161,-0.21930062770843506,-0.2583959996700287
1732873719345220900,2.514220947265625,-0.6243042945861816,-0.26145032048225403,-0.07208210229873657
1732873719355252200,2.524252197265625,-0.6316346526145935,-0.2541199326515198,0.16920967400074005
1732873719365210000,2.534210205078125,-0.6200281977653503,-0.2015855312347412,0.43615779280662537
1732873719375241500,2.544241455078125,-0.5900958180427551,-0.11911872029304504,0.6896668672561646
1732873719385229600,2.5542294921875,-0.5479460954666138,-0.04581489413976669,0.9199630618095398
1732873719395230500,2.56423046875,-0.4966334402561188,0.009162978269159794,0.9279043078422546
1732873719405218600,2.574218505859375,-0.44715335965156555,0.04948008432984352,0.8436049222946167
1732873719415251000,2.5842509765625,-0.4129449129104614,0.06352998316287994,0.6841690540313721
1732873719425207800,2.594207763671875,-0.39767327904701233,0.048258353024721146,0.4691445231437683
1732873719435238700,2.60423876953125,-0.3903428912162781,0.031154127791523933,0.20341812074184418
1732873719445227300,2.614227294921875,-0.3933972120285034,0.007941247895359993,-0.060475658625364304
1732873719455258400,2.62425830078125,-0.423329621553421,-0.09834930300712585,-0.3445279896259308
1732873719465216300,2.63421630859375,-0.4447098970413208,-0.18997909128665924,-0.4502076804637909
1732873719475247400,2.644247314453125,-0.45204028487205505,-0.28038713335990906,-0.4862487316131592
1732873719485235700,2.654235595703125,-0.44226643443107605,-0.33536502718925476,-0.4697553813457489
1732873719495236400,2.664236328125,-0.41111230850219727,-0.33597588539123535,-0.4190535545349121
1732873719505225000,2.674224853515625,-0.35674530267715454,-0.2779437005519867,-0.35063666105270386
1732873719515256000,2.684256103515625,-0.2932153046131134,-0.16554448008537292,-0.2681698501110077
1732873719525214000,2.6942138671875,-0.22663100063800812,-0.031154127791523933,-0.18325957655906677
1732873719535245300,2.704245361328125,-0.12889257073402405,0.16004669666290283,-0.1111774742603302
1732873719545233400,2.7142333984375,-0.08124507963657379,0.2528982162475586,-0.10873401165008545
1732873719555234000,2.724234130859375,-0.051312681287527084,0.303600013256073,-0.14844025671482086
1732873719565222400,2.734222412109375,-0.027488935738801956,0.3084869384765625,-0.23029619455337524
1732873719575253500,2.74425341796875,-0.009773843921720982,0.27977627515792847,-0.34025195240974426
1732873719585211400,2.75421142578125,0,0.21807889640331268,-0.4453207552433014
1732873719595241200,2.7642412109375,0.006719517521560192,0.1362229436635971,-0.5247332453727722
1732873719605229800,2.774229736328125,0.012217304669320583,-0.014049900695681572,-0.5607742667198181
1732873719615231000,2.78423095703125,0,-0.13805554807186127,-0.5057964324951172
1732873719625219000,2.794218994140625,-0.02687807008624077,-0.2968805134296417,-0.3903428912162781
1732873719635250700,2.804250732421875,-0.06902777403593063,-0.4789183437824249,-0.21074850857257843
1732873719645207800,2.814207763671875,-0.10934487730264664,-0.6340781450271606,0.031154127791523933
1732873719655239700,2.82423974609375,-0.13072516024112701,-0.7018841505050659,0.3139847218990326
1732873719665227300,2.834227294921875,-0.10812314599752426,-0.6548475623130798,0.6035348773002625
1732873719675228400,2.844228515625,-0.003054326167330146,-0.39584067463874817,0.9822713136672974
1732873719685216500,2.854216552734375,0.0555887371301651,-0.13072516024112701,1.1447614431381226
1732873719695248100,2.864248046875,0.0959058403968811,0.15271630883216858,1.1966849565505981
1732873719705236700,2.87423681640625,0.12278391420841217,0.4105014503002167,1.1301007270812988
1732873719715236900,2.88423681640625,0.15271630883216858,0.5589417219161987,0.9382890462875366
1732873719725226000,2.89422607421875,0.18509216606616974,0.5571091175079346,0.6432411074638367
1732873719735256300,2.90425634765625,0.19914206862449646,0.4056145250797272,0.28649580478668213
1732873719745214700,2.914214599609375,0.2076941877603531,0.16432274878025055,-0.0861319974064827
1732873719755245600,2.92424560546875,0.19975294172763824,-0.2919935882091522,-0.5192354321479797
1732873719765234400,2.934234375,0.18997909128665924,-0.5387831330299377,-0.6621779203414917
1732873719775234000,2.944234130859375,0.17776179313659668,-0.6524040699005127,-0.6725626587867737
1732873719785223400,2.954223388671875,0.17287486791610718,-0.5992587804794312,-0.5876523852348328
1732873719795255000,2.964255126953125,0.1869247704744339,-0.43676865100860596,-0.44287729263305664
1732873719805212700,2.974212646484375,0.2125810980796814,-0.24007004499435425,-0.27611109614372253
1732873719815244000,2.984244140625,0.2278527319431305,-0.10812314599752426,-0.08979719132184982
1732873719825260300,2.99426025390625,0.21868975460529327,-0.05497787147760391,0.18631389737129211
1732873719835232800,3.004232666015625,0.23396138846874237,-0.07024950534105301,0.35185837745666504
1732873719845220900,3.014220947265625,0.24495697021484375,-0.07024950534105301,0.4795292317867279
1732873719855252000,3.024251953125,0.2535090744495392,-0.06108652427792549,0.5742133259773254
1732873719865210000,3.034210205078125,0.2620611786842346,-0.051312681287527084,0.6243042945861816
1732873719875241200,3.0442412109375,0.26633724570274353,-0.04642575979232788,0.6139195561408997
1732873719885229600,3.0542294921875,0.26450464129447937,-0.05253441259264946,0.5308418869972229
1732873719895230000,3.06422998046875,0.2583959996700287,-0.08552113175392151,0.2981022298336029
1732873719905218600,3.074218505859375,0.2791654169559479,-0.0708603709936142,0.11911872029304504
1732873719915249700,3.084249755859375,0.2981022298336029,-0.02015855349600315,-0.012828170321881771
1732873719925207600,3.09420751953125,0.3176499307155609,0.05253441259264946,-0.07696902006864548
1732873719935238700,3.10423876953125,0.34147366881370544,0.13316862285137177,-0.10323622822761536
1732873719945227000,3.11422705078125,0.36590829491615295,0.1966986060142517,-0.13011430203914642
1732873719955258400,3.12425830078125,0.38606682419776917,0.21930062770843506,-0.16982053220272064
1732873719965216000,3.134216064453125,0.39767327904701233,0.19303341209888458,-0.21991148591041565
1732873719975247400,3.144247314453125,0.4105014503002167,0.10751228034496307,-0.28588494658470154
1732873719985235700,3.154235595703125,0.4202753007411957,0.08918632566928864,-0.3078760802745819
1732873719995236600,3.164236572265625,0.4300491213798523,0.11667526513338089,-0.2889392673969269
1732873720005225000,3.174224853515625,0.43737950921058655,0.17287486791610718,-0.22479841113090515
1732873720015255800,3.184255859375,0.42210787534713745,0.21441370248794556,-0.11850785464048386
1732873720025213700,3.194213623046875,0.3805690407752991,0.20586158335208893,0.012828170321881771
1732873720035244500,3.20424462890625,0.31520646810531616,0.13439035415649414,0.1362229436635971
1732873720045233200,3.214233154296875,0.19792033731937408,-0.04459316283464432,0.252287358045578
1732873720055233800,3.22423388671875,0.1258382350206375,-0.14477506279945374,0.2773328125476837
1732873720065222400,3.234222412109375,0.06352998316287994,-0.21074850857257843,0.26511552929878235
1732873720075253200,3.244253173828125,0.01160643994808197,-0.23640485107898712,0.2278527319431305
1732873720085211400,3.25421142578125,-0.025656340643763542,-0.23640485107898712,0.17287486791610718
1732873720095242500,3.264242431640625,-0.05375614017248154,-0.23273965716362,0.11911872029304504
1732873720105230800,3.27423095703125,-0.09224065393209457,-0.24617868661880493,0.09285151958465576
1732873720115231200,3.284231201171875,-0.15577064454555511,-0.2272418737411499,0.1417207419872284
1732873720125219600,3.294219482421875,-0.17592918872833252,-0.1368338167667389,0.21868975460529327
1732873720135251200,3.304251220703125,-0.1875356286764145,0.025045474991202354,0.3127630054950714
1732873720145208800,3.314208740234375,-0.21563543379306793,0.19486601650714874,0.4050036668777466
1732873720155240400,3.324240478515625,-0.2577851414680481,0.3090978264808655,0.47769662737846375
1732873720165228300,3.334228271484375,-0.313373863697052,0.31459560990333557,0.5406157374382019
1732873720175229400,3.3442294921875,-0.375071257352829,0.21319197118282318,0.6255260109901428
1732873720185217500,3.354217529296875,-0.43249258399009705,0.04764748737215996,0.7415903806686401
1732873720195248400,3.364248291015625,-0.4648684561252594,-0.12278391420841217,0.8692612648010254
1732873720205237000,3.374237060546875,-0.4331034719944,-0.13316862285137177,0.8698720932006836
1732873720215237000,3.384237060546875,-0.3903428912162781,-0.06414084881544113,0.8106181621551514
1732873720225225700,3.394225830078125,-0.3677408695220947,0.051312681287527084,0.6939429044723511
1732873720235256300,3.40425634765625,-0.36163222789764404,0.13927727937698364,0.5296201705932617
1732873720245215000,3.414215087890625,-0.3597996234893799,0.15943582355976105,0.33047810196876526
1732873720255245600,3.42424560546875,-0.3530801236629486,0.12339477986097336,0.10934487730264664
1732873720265234400,3.434234375,-0.38728857040405273,-0.024434609338641167,-0.18387043476104736
1732873720275235800,3.44423583984375,-0.40072759985923767,-0.10323622822761536,-0.3701843321323395
1732873720285223400,3.454223388671875,-0.36224308609962463,-0.14049901068210602,-0.5540547966957092
1732873720295255000,3.464255126953125,-0.294437050819397,-0.18509216606616974,-0.7171558141708374
1732873720305212400,3.47421240234375,-0.2321287989616394,-0.27122417092323303,-0.8228355050086975
1732873720315244300,3.484244384765625,-0.16798794269561768,-0.40072759985923767,-0.8423831462860107
1732873720325232000,3.494232177734375,-0.10384709388017654,-0.5247332453727722,-0.7391469478607178
1732873720335233000,3.50423291015625,-0.022602014243602753,-0.5442809462547302,-0.3781255781650543
1732873720345221000,3.51422119140625,0.013439035043120384,-0.43127086758613586,-0.1007927656173706
1732873720355252700,3.524252685546875,0.04886921867728233,-0.2583959996700287,0.1319468915462494
1732873720365210000,3.534210205078125,0.08002334833145142,-0.08368854224681854,0.2938261926174164
1732873720375241200,3.5442412109375,0.07757988572120667,0.036651913076639175,0.3787364661693573
1732873720385229600,3.5542294921875,0.03787364438176155,0.07696902006864548,0.3683517575263977
1732873720395230200,3.564230224609375,-0.02321287989616394,0.009162978269159794,0.26939156651496887
1732873720405218800,3.57421875,-0.09285151958465576,-0.12950342893600464,0.10201449692249298
1732873720415250200,3.584250244140625,-0.20463985204696655,-0.35124751925468445,-0.19547687470912933
1732873720425207800,3.594207763671875,-0.251676470041275,-0.4282165467739105,-0.37201693654060364
1732873720435238700,3.60423876953125,-0.26939156651496887,-0.42149701714515686,-0.5021312236785889
1732873720445227300,3.614227294921875,-0.2474004179239273,-0.31093040108680725,-0.5791002511978149
1732873720455258000,3.624258056640625,-0.19853121042251587,-0.14233160018920898,-0.6230825781822205
1732873720465216300,3.63421630859375,-0.12950342893600464,0.039095375686883926,-0.665232241153717
1732873720475247000,3.6442470703125,-0.05742133408784866,0.2064724564552307,-0.7086036801338196
1732873720485236000,3.654236083984375,0.013439035043120384,0.41172316670417786,-0.7250970602035522
1732873720495236900,3.66423681640625,0.0403171069920063,0.48197266459465027,-0.7018841505050659
1732873720505225000,3.674224853515625,0.06658431142568588,0.5021312236785889,-0.6603453159332275
1732873720515256600,3.684256591796875,0.07696902006864548,0.47219884395599365,-0.5852088928222656
1732873720525214000,3.6942138671875,0.06841690838336945,0.36651915311813354,-0.45875978469848633
1732873720535245600,3.70424560546875,0.03298672288656235,0.19303341209888458,-0.3017674386501312
1732873720545233400,3.7142333984375,-0.02626720629632473,-0.01710422709584236,-0.13866640627384186
1732873720555234300,3.724234375,-0.11362093687057495,-0.23273965716362,0.06475171446800232
1732873720565222400,3.734222412109375,-0.14905111491680145,-0.26572638750076294,0.13866640627384186
1732873720575253200,3.744253173828125,-0.16554448008537292,-0.2376265823841095,0.16982053220272064
1732873720585211400,3.75421142578125,-0.15393804013729095,-0.17776179313659668,0.17592918872833252
1732873720595241000,3.764240966796875,-0.13439035415649414,-0.09468411654233932,0.1667662113904953
1732873720605229800,3.774229736328125,-0.12217304855585098,-0.039095375686883926,0.14294247329235077
1732873720615230500,3.78423046875,-0.12278391420841217,-0.021991148591041565,0.11178833991289139
1732873720625218800,3.79421875,-0.12889257073402405,-0.04886921867728233,0.08124507963657379
1732873720635250200,3.804250244140625,-0.13927727937698364,-0.13316862285137177,0.07330382615327835
1732873720645207800,3.814207763671875,-0.12767083942890167,-0.15882496535778046,0.07147123664617538
1732873720655239200,3.8242392578125,-0.09224065393209457,-0.15577064454555511,0.05803219974040985
1732873720665227300,3.834227294921875,-0.04459316283464432,-0.1319468915462494,0.021380282938480377
1732873720675228000,3.844227783203125,0.00427605677396059,-0.09773843735456467,-0.05253441259264946
1732873720685216500,3.854216552734375,0.045204028487205505,-0.05619960278272629,-0.13805554807186127
1732873720695249000,3.864248779296875,0.07819075137376785,-0.012828170321881771,-0.20586158335208893
1732873720705236700,3.87423681640625,0.08307767659425735,0.025045474991202354,-0.25534167885780334
1732873720715238000,3.88423779296875,0.0659734457731247,0.05314527451992035,-0.2571742534637451
1732873720725225700,3.894225830078125,0.06841690838336945,0.1313360333442688,-0.24129177629947662
1732873720735257600,3.904257568359375,0.10201449692249298,0.19486601650714874,-0.2571742534637451
1732873720745215000,3.914215087890625,0.1417207419872284,0.19547687470912933,-0.3494149148464203
1732873720755246300,3.924246337890625,0.18875735998153687,0.09529497474431992,-0.47830748558044434
1732873720765234700,3.934234619140625,0.23090706765651703,-0.07513642311096191,-0.5448917746543884
1732873720775235600,3.944235595703125,0.24862214922904968,-0.35735616087913513,-0.2889392673969269
1732873720785223400,3.954223388671875,0.22907446324825287,-0.4605923891067505,0.14782938361167908
1732873720795255000,3.964255126953125,0.19975294172763824,-0.4294382631778717,0.6811147332191467
1732873720805212400,3.97421240234375,0.2070833146572113,-0.2541199326515198,1.1753047704696655
1732873720815244000,3.984244140625,0.2321287989616394,0.015271631069481373,1.5644259452819824
1732873720825232000,3.99423193359375,0.25045475363731384,0.32986724376678467,1.7873916625976562
1732873720835232500,4.004232421875,0.2571742534637451,0.5955936312675476,1.8154915571212769
1732873720845220900,4.014220947265625,0.26633724570274353,0.7782423496246338,1.6401731967926025
1732873720855253500,4.02425341796875,0.29077184200286865,0.8875871896743774,1.047023057937622
1732873720865210000,4.034210205078125,0.30482175946235657,0.8136724829673767,0.5064072608947754
1732873720875240400,4.044240478515625,0.28955012559890747,0.578489363193512,-0.08918632566928864
1732873720885229600,4.0542294921875,0.23273965716362,0.2021963894367218,-0.6786713004112244
1732873720895230700,4.064230712890625,0.15332718193531036,-0.24556782841682434,-1.1789699792861938
1732873720905218600,4.074218505859375,0.07330382615327835,-0.6640105247497559,-1.518610954284668
1732873720915250200,4.084250244140625,0.01038470957428217,-0.9560040831565857,-1.6499470472335815
1732873720925207800,4.094207763671875,0.006108652334660292,-0.9847147464752197,-1.4782938957214355
1732873720935239400,4.104239501953125,0.08307767659425735,-0.7721336483955383,-1.187522053718567
1732873720945227000,4.11422705078125,0.17776179313659668,-0.4404338300228119,-0.8051204085350037
1732873720955259000,4.1242587890625,0.2620611786842346,-0.07208210229873657,-0.394008070230484
1732873720965216300,4.13421630859375,0.3219259977340698,0.251676470041275,-0.036041051149368286
1732873720975246800,4.144246826171875,0.3677408695220947,0.4404338300228119,0.1875356286764145
1732873720985235700,4.154235595703125,0.3781255781650543,0.5021312236785889,0.27611109614372253
1732873720995236400,4.164236328125,0.3188716471195221,0.4080579876899719,0.21563543379306793
1732873721005224700,4.174224609375,0.25534167885780334,0.23945917189121246,0.08552113175392151
1732873721015255800,4.184255859375,0.17043140530586243,0.05497787147760391,-0.06230825558304787
1732873721025214000,4.1942138671875,0.08002334833145142,-0.1313360333442688,-0.19853121042251587
1732873721035244800,4.204244873046875,0.005497787147760391,-0.2828305959701538,-0.2938261926174164
1732873721045233200,4.214233154296875,-0.03298672288656235,-0.3481931984424591,-0.3194825351238251
1732873721055233500,4.224233642578125,-0.02932153269648552,-0.32559117674827576,-0.28099802136421204
1732873721065222100,4.23422216796875,0.00366519158706069,-0.2376265823841095,-0.18997909128665924
1732873721075253800,4.244253662109375,0.05253441259264946,-0.06902777403593063,0.0006108652451075613
1732873721085211400,4.25421142578125,0.06780604273080826,0.03176499158143997,0.1160643994808197
1732873721095242800,4.26424267578125,0.0708603709936142,0.08124507963657379,0.19120082259178162
1732873721105230800,4.27423095703125,0.06230825558304787,0.05864306539297104,0.21624629199504852
1732873721115232000,4.28423193359375,0.04459316283464432,-0.015271631069481373,0.2028072625398636
1732873721125219800,4.2942197265625,0.021380282938480377,-0.11484266817569733,0.16004669666290283
1732873721135251500,4.30425146484375,-0.004886921960860491,-0.21624629199504852,0.11484266817569733
1732873721145208800,4.314208740234375,-0.02932153269648552,-0.27550023794174194,0.09224065393209457
1732873721155240400,4.324240478515625,-0.025045474991202354,-0.22418753802776337,0.10751228034496307
1732873721165228300,4.334228271484375,-0.012217304669320583,-0.14355333149433136,0.12095131725072861
1732873721175229000,4.34422900390625,0.02015855349600315,-0.05497787147760391,0.10751228034496307
1732873721185217500,4.354217529296875,0.0507018156349659,0.022602014243602753,0.05742133408784866
1732873721195249200,4.364249267578125,0.06230825558304787,0.07391469180583954,-0.00366519158706069
1732873721205236700,4.37423681640625,0.06719517707824707,0.12034045159816742,-0.07147123664617538
1732873721215238100,4.384238037109375,0.03848451003432274,0.18997909128665924,-0.1771509200334549
1732873721225226000,4.39422607421875,-0.015882495790719986,0.16798794269561768,-0.25961771607398987
1732873721235257300,4.40425732421875,-0.07635815441608429,0.060475658625364304,-0.3445279896259308
1732873721245215000,4.414215087890625,-0.14905111491680145,-0.15393804013729095,-0.40256020426750183
1732873721255246300,4.424246337890625,-0.23396138846874237,-0.4294382631778717,-0.3897320330142975
1732873721265234400,4.434234375,-0.3023782968521118,-0.6517932415008545,-0.3029891550540924
1732873721275235600,4.444235595703125,-0.3243694305419922,-0.740368664264679,-0.1820378452539444
1732873721285223700,4.4542236328125,-0.30482175946235657,-0.6786713004112244,-0.09346238523721695
1732873721295255000,4.464255126953125,-0.2590068578720093,-0.4404338300228119,-0.04092797264456749
1732873721305212400,4.47421240234375,-0.25106561183929443,-0.2822197377681732,-0.024434609338641167
1732873721315242800,4.48424267578125,-0.2981022298336029,-0.1814269721508026,0.06536258012056351
1732873721325231900,4.49423193359375,-0.394618958234787,-0.17837265133857727,0.31093040108680725
1732873721335233000,4.50423291015625,-0.49846604466438293,-0.24617868661880493,0.6860016584396362
1732873721345220900,4.514220947265625,-0.5778785347938538,-0.25534167885780334,1.0867292881011963
1732873721355251200,4.524251220703125,-0.6224716901779175,-0.24617868661880493,1.4520267248153687
1732873721365210000,4.534210205078125,-0.636521577835083,-0.1765400618314743,1.7739527225494385
1732873721375240700,4.54424072265625,-0.5955936312675476,-0.07757988572120667,1.7531832456588745
1732873721385229600,4.5542294921875,-0.5387831330299377,0.05192354694008827,1.5357152223587036
1732873721395231500,4.5642314453125,-0.485027015209198,0.1875356286764145,1.151481032371521
1732873721405218800,4.57421875,-0.44654250144958496,0.3023782968521118,0.6352998614311218
1732873721415251200,4.584251220703125,-0.4398229718208313,0.3640756905078888,0.04764748737215996
1732873721425207800,4.594207763671875,-0.4795292317867279,0.303600013256073,-0.513126790523529
1732873721435239400,4.604239501953125,-0.5925393104553223,0.05925392732024193,-1.0494664907455444
1732873721445227000,4.61422705078125,-0.6261368989944458,-0.06902777403593063,-1.1606439352035522
1732873721455259000,4.6242587890625,-0.6401867866516113,-0.12950342893600464,-1.076344609260559
1732873721465216300,4.63421630859375,-0.6420193910598755,-0.12889257073402405,-0.836885392665863
1732873721475247600,4.64424755859375,-0.6212499737739563,-0.07941248267889023,-0.5259549617767334
1732873721485235700,4.654235595703125,-0.5619960427284241,0.01038470957428217,-0.22113321721553802
1732873721495237000,4.664237060546875,-0.48258355259895325,0.1160643994808197,0.0012217304902151227
1732873721505225000,4.674224853515625,-0.43127086758613586,0.17898350954055786,0.11484266817569733
1732873721515256000,4.684256103515625,-0.39156460762023926,0.19853121042251587,0.11789698898792267
1732873721525214000,4.6942138671875,-0.38606682419776917,0.16737708449363708,0.06291911751031876
1732873721535245000,4.7042451171875,-0.38667771220207214,0.11728613078594208,-0.01038470957428217
1732873721545233700,4.714233642578125,-0.3830125033855438,0.06475171446800232,-0.08918632566928864
1732873721555234000,4.724234130859375,-0.37140607833862305,0.027488935738801956,-0.15577064454555511
1732873721565222400,4.734222412109375,-0.3384193480014801,0.009773843921720982,-0.1973094791173935
1732873721575253500,4.74425341796875,-0.29626965522766113,0.015271631069481373,-0.21807889640331268
1732873721585211400,4.75421142578125,-0.21441370248794556,0.05497787147760391,-0.19303341209888458
1732873721595241000,4.764240966796875,-0.1459967941045761,0.0910189226269722,-0.15454891324043274
1732873721605229800,4.774229736328125,-0.09468411654233932,0.11911872029304504,-0.08918632566928864
1732873721615230500,4.78423046875,-0.06780604273080826,0.1319468915462494,-0.01710422709584236
1732873721625219000,4.794218994140625,-0.06841690838336945,0.1270599663257599,0.051312681287527084
1732873721635250000,4.80425,-0.08674286305904388,0.09834930300712585,0.0959058403968811
1732873721645207800,4.814207763671875,-0.10934487730264664,0.05925392732024193,0.09773843735456467
1732873721655239000,4.824239013671875,-0.13072516024112701,-0.02687807008624077,0.05497787147760391
1732873721665227300,4.834227294921875,-0.13988813757896423,-0.07513642311096191,0.007941247895359993
1732873721675228200,4.844228271484375,-0.13316862285137177,-0.10323622822761536,-0.03298672288656235
1732873721685216500,4.854216552734375,-0.11545353382825851,-0.09468411654233932,-0.05253441259264946
1732873721695248600,4.86424853515625,-0.08918632566928864,-0.05864306539297104,-0.05314527451992035
1732873721705236700,4.87423681640625,-0.06108652427792549,0.00366519158706069,-0.039706241339445114
1732873721715237400,4.8842373046875,-0.021991148591041565,0.07880161702632904,-0.039095375686883926
1732873721725225700,4.894225830078125,0.015271631069481373,0.1258382350206375,-0.04214970022439957
1732873721735257900,4.9042578125,0.029932396486401558,0.10812314599752426,-0.04398229718208313
1732873721745215000,4.914215087890625,0.021380282938480377,0.05803219974040985,-0.04703662544488907
1732873721755246300,4.924246337890625,0.0024434609804302454,-0.007941247895359993,-0.039706241339445114
1732873721765234400,4.934234375,-0.01771509274840355,-0.06963863968849182,-0.012828170321881771
1732873721775235600,4.944235595703125,-0.02687807008624077,-0.11178833991289139,0.029932396486401558
1732873721785223400,4.954223388671875,-0.00855211354792118,-0.09957103431224823,0.10262536257505417
1732873721795255000,4.964255126953125,0.039706241339445114,-0.012217304669320583,0.192422553896904
1732873721805212400,4.97421240234375,0.13988813757896423,0.22296582162380219,0.28588494658470154
1732873721815243300,4.9842431640625,0.19792033731937408,0.39156460762023926,0.2724458873271942
1732873721825260300,4.99426025390625,0.23884831368923187,0.5338962078094482,0.1563815027475357
1732873721835233000,5.00423291015625,0.2431243658065796,0.6157521605491638,-0.07635815441608429
1732873721845220900,5.014220947265625,0.22052235901355743,0.6133087277412415,-0.3885102868080139
1732873721855252700,5.024252685546875,0.1667662113904953,0.4697553813457489,-0.7073819637298584
1732873721865210000,5.034210205078125,0.06902777403593063,0.11850785464048386,-0.9437867999076843
1732873721875241500,5.044241455078125,-0.10812314599752426,-0.6841690540313721,-0.9138544201850891
1732873721885229600,5.0542294921875,-0.20830504596233368,-1.1630873680114746,-0.5259549617767334
1732873721895230700,5.064230712890625,-0.2571742534637451,-1.4049900770187378,0.1459967941045761
1732873721905218800,5.07421875,-0.2822197377681732,-1.36650550365448,0.978606104850769
1732873721915250200,5.084250244140625,-0.24190263450145721,-1.0702359676361084,1.7898352146148682
1732873721925207600,5.09420751953125,-0.1368338167667389,-0.616973876953125,2.4129176139831543
1732873721935239400,5.104239501953125,-0.006719517521560192,-0.13927727937698364,2.744006633758545
1732873721945227000,5.11422705078125,0.12034045159816742,0.2724458873271942,2.780658483505249
1732873721955257900,5.1242578125,0.25106561183929443,0.7055493593215942,2.3157901763916016
1732873721965216300,5.13421630859375,0.2840523421764374,0.7929030656814575,1.7201964855194092
1732873721975246600,5.14424658203125,0.26511552929878235,0.7220427393913269,0.9926560521125793
1732873721985235700,5.154235595703125,0.20830504596233368,0.5076290369033813,0.21624629199504852
1732873721995238000,5.16423779296875,0.13255776464939117,0.19364428520202637,-0.4954117238521576
1732873722005224700,5.174224609375,0.06841690838336945,-0.1514945775270462,-1.0677924156188965
1732873722015256300,5.18425634765625,0.010995574295520782,-0.45875978469848633,-1.4947872161865234
1732873722025213400,5.19421337890625,-0.07696902006864548,-0.7519751191139221,-1.7886134386062622
1732873722035245300,5.204245361328125,-0.12400564551353455,-0.8399397134780884,-1.7580702304840088
1732873722045233200,5.214233154296875,-0.16982053220272064,-0.8411614298820496,-1.6175711154937744
1732873722055234300,5.224234375,-0.22479841113090515,-0.770301103591919,-1.4074335098266602
1732873722065222400,5.234222412109375,-0.26939156651496887,-0.6407976150512695,-1.1661417484283447
1732873722075253800,5.244253662109375,-0.2834414839744568,-0.43676865100860596,-0.9327912330627441
1732873722085211400,5.25421142578125,-0.27611109614372253,-0.17104226350784302,-0.7422012686729431
1732873722095242800,5.26424267578125,-0.2834414839744568,0.2168571650981903,-0.5369505286216736
1732873722105230800,5.27423095703125,-0.313373863697052,0.4050036668777466,-0.4550946056842804
1732873722115232000,5.28423193359375,-0.3640756905078888,0.5112941861152649,-0.403781920671463
1732873722125219600,5.294219482421875,-0.4343251883983612,0.5210680365562439,-0.36651915311813354
1732873722135251700,5.304251708984375,-0.5100724697113037,0.44226643443107605,-0.33047810196876526
1732873722145208800,5.314208740234375,-0.578489363193512,0.32070425152778625,-0.2840523421764374
1732873722155240700,5.32424072265625,-0.6340781450271606,0.192422553896904,-0.21624629199504852
1732873722165228300,5.334228271484375,-0.6835582256317139,0.08002334833145142,-0.1111774742603302
1732873722175229700,5.344229736328125,-0.7434229850769043,-0.022602014243602753,0.10567969083786011
1732873722185217300,5.35421728515625,-0.7568620443344116,-0.01466076634824276,0.2541199326515198
1732873722195249200,5.364249267578125,-0.7629706859588623,0.030543262138962746,0.3842342495918274
1732873722205237000,5.374237060546875,-0.7733554244041443,0.08185594528913498,0.4893030524253845
1732873722215238100,5.384238037109375,-0.7812966704368591,0.11789698898792267,0.5442809462547302
1732873722225225700,5.394225830078125,-0.79840087890625,0.13072516024112701,0.5357288122177124
1732873722235257900,5.4042578125,-0.8289441466331482,0.10873401165008545,0.47342056035995483
1732873722245215000,5.414215087890625,-0.8943067193031311,0.0403171069920063,0.304210901260376
1732873722255246600,5.42424658203125,-0.950506329536438,-0.036651913076639175,0.1765400618314743
1732873722265234400,5.434234375,-1.017701506614685,-0.14294247329235077,0.059864792972803116
1732873722275235600,5.444235595703125,-1.0855075120925903,-0.24862214922904968,-0.02382374368607998
1732873722285223400,5.454223388671875,-1.1398745775222778,-0.32681289315223694,-0.06230825558304787
1732873722295255300,5.46425537109375,-1.1844676733016968,-0.375071257352829,-0.0659734457731247
1732873722305212400,5.47421240234375,-1.2223412990570068,-0.3732386529445648,-0.05864306539297104
1732873722315244300,5.484244384765625,-1.2724323272705078,-0.30115658044815063,-0.07269296050071716
1732873722325232000,5.494232177734375,-1.2919800281524658,-0.22540926933288574,-0.11056660860776901
1732873722335233300,5.5042333984375,-1.3072515726089478,-0.1563815027475357,-0.16798794269561768
1732873722345220900,5.514220947265625,-1.3243558406829834,-0.11484266817569733,-0.22357667982578278
1732873722355252700,5.524252685546875,-1.3432927131652832,-0.09651670604944229,-0.2675589919090271
1732873722365210000,5.534210205078125,-1.3628404140472412,-0.0861319974064827,-0.30604347586631775
1732873722375241700,5.54424169921875,-1.3756685256958008,-0.06963863968849182,-0.32559117674827576
1732873722385229600,5.5542294921875,-1.3927727937698364,-0.05192354694008827,-0.3225368559360504
1732873722395231000,5.56423095703125,-1.4245377779006958,-0.05009094998240471,-0.2974913716316223
1732873722405218800,5.57421875,-1.4587461948394775,-0.09162978827953339,-0.2528982162475586
1732873722415250400,5.58425048828125,-1.4978415966033936,-0.15577064454555511,-0.19547687470912933
1732873722425207800,5.594207763671875,-1.539380431175232,-0.2223549485206604,-0.14049901068210602
1732873722435239700,5.60423974609375,-1.5778648853302002,-0.28649580478668213,-0.0806342139840126
1732873722445227000,5.61422705078125,-1.6108516454696655,-0.33169981837272644,-0.02871066704392433
1732873722455259000,5.6242587890625,-1.63467538356781,-0.3384193480014801,-0.00366519158706069
1732873722465216300,5.63421630859375,-1.6438384056091309,-0.2785545587539673,-0.003054326167330146
1732873722475248000,5.644248046875,-1.644449234008789,-0.21502456068992615,-0.0354301854968071
1732873722485235700,5.654235595703125,-1.6468926668167114,-0.16371189057826996,-0.08002334833145142
1732873722495237000,5.664237060546875,-1.653001308441162,-0.14294247329235077,-0.12828169763088226
1732873722505225000,5.674224853515625,-1.6615535020828247,-0.1472185254096985,-0.18387043476104736
1732873722515256600,5.684256591796875,-1.6664403676986694,-0.1716531366109848,-0.2376265823841095
1732873722525214000,5.6942138671875,-1.6646077632904053,-0.18570303916931152,-0.28466320037841797
1732873722535245600,5.70424560546875,-1.6475036144256592,-0.1618792861700058,-0.3274237811565399
1732873722545233400,5.7142333984375,-1.6395623683929443,-0.14049901068210602,-0.33108896017074585
1732873722555234800,5.72423486328125,-1.6517796516418457,-0.1417207419872284,-0.31459560990333557
1732873722565222400,5.734222412109375,-1.6774359941482544,-0.18509216606616974,-0.27977627515792847
1732873722575254300,5.744254150390625,-1.7104226350784302,-0.26939156651496887,-0.22479841113090515
1732873722585211400,5.75421142578125,-1.7452419996261597,-0.3781255781650543,-0.14416420459747314
1732873722595241500,5.764241455078125,-1.7599027156829834,-0.4691445231437683,-0.04703662544488907
1732873722605229800,5.774229736328125,-1.7446311712265015,-0.5143485069274902,0.06291911751031876
1732873722615231000,5.78423095703125,-1.6951510906219482,-0.4899139404296875,0.2571742534637451
1732873722625218800,5.79421875,-1.644449234008789,-0.42088615894317627,0.3701843321323395
1732873722635250700,5.804250732421875,-1.5876387357711792,-0.32986724376678467,0.45326200127601624
1732873722645207800,5.814207763671875,-1.5259413719177246,-0.24495697021484375,0.5057964324951172
1732873722655239700,5.82423974609375,-1.4599679708480835,-0.16798794269561768,0.5357288122177124
1732873722665227300,5.834227294921875,-1.4001030921936035,-0.10384709388017654,0.5497786998748779
1732873722675229000,5.84422900390625,-1.3530665636062622,-0.07819075137376785,0.5485569834709167
1732873722685216500,5.854216552734375,-1.2986994981765747,-0.10567969083786011,0.4911356568336487
1732873722695249200,5.864249267578125,-1.2614367008209229,-0.1618792861700058,0.3933972120285034
1732873722705237000,5.874237060546875,-1.2260065078735352,-0.22418753802776337,0.2632829248905182
1732873722715238100,5.884238037109375,-1.186300277709961,-0.2791654169559479,0.11545353382825851
1732873722725225700,5.894225830078125,-1.1410962343215942,-0.2938261926174164,-0.039706241339445114
1732873722735257900,5.9042578125,-1.086118459701538,-0.2834414839744568,-0.17470745742321014
1732873722745215000,5.914215087890625,-1.0421360731124878,-0.2632829248905182,-0.2742784917354584
1732873722755246800,5.924246826171875,-0.9920451641082764,-0.19058994948863983,-0.3646865487098694
1732873722765234400,5.934234375,-0.9578366875648499,-0.12461651116609573,-0.39156460762023926
1732873722775235600,5.944235595703125,-0.940121591091156,-0.09773843735456467,-0.3952298164367676
1732873722785223400,5.954223388671875,-0.9352346658706665,-0.11423180252313614,-0.3878994286060333
1732873722795255300,5.96425537109375,-0.9224064946174622,-0.17837265133857727,-0.3885102868080139
1732873722805212400,5.97421240234375,-0.8936958312988281,-0.27488934993743896,-0.4043927788734436
1732873722815244300,5.984244384765625,-0.8509352803230286,-0.3744603991508484,-0.4080579876899719
1732873722825232100,5.994232177734375,-0.8038986921310425,-0.4251621961593628,-0.3646865487098694
1732873722835233300,6.0042333984375,-0.7324274182319641,-0.3445279896259308,-0.1667662113904953
1732873722845221000,6.01422119140625,-0.7006624341011047,-0.23457226157188416,0.042760565876960754
1732873722855253000,6.0242529296875,-0.6719517707824707,-0.12767083942890167,0.2590068578720093
1732873722865210000,6.034210205078125,-0.6328563690185547,-0.0403171069920063,0.413555771112442
1732873722875241700,6.04424169921875,-0.5839871764183044,0.03481931984424591,0.4813618063926697
1732873722885229800,6.054229736328125,-0.5302310585975647,0.08796459436416626,0.48197266459465027
1732873722895230500,6.06423046875,-0.4856378734111786,0.11850785464048386,0.44165557622909546
1732873722905218800,6.07421875,-0.4349360466003418,0.12828169763088226,0.3543018400669098
1732873722915249700,6.084249755859375,-0.40622538328170776,0.11484266817569733,0.2981022298336029
1732873722925207600,6.09420751953125,-0.38117989897727966,0.09346238523721695,0.252287358045578
1732873722935239000,6.104239013671875,-0.3604104816913605,0.05375614017248154,0.21380282938480377
1732873722945227000,6.11422705078125,-0.33292156457901,0.01771509274840355,0.1667662113904953
1732873722955258400,6.12425830078125,-0.3066543638706207,-0.00366519158706069,0.11178833991289139
1732873722965216300,6.13421630859375,-0.2791654169559479,-0.014049900695681572,0.05009094998240471
1732873722975247400,6.144247314453125,-0.23396138846874237,-0.033597588539123535,-0.033597588539123535
1732873722985235700,6.154235595703125,-0.2015855312347412,-0.05803219974040985,-0.07513642311096191
1732873722995236400,6.164236328125,-0.17592918872833252,-0.1014036312699318,-0.09896016865968704
1732873723005224700,6.174224609375,-0.15454891324043274,-0.1508837193250656,-0.10201449692249298
1732873723015256600,6.184256591796875,-0.14294247329235077,-0.1918116807937622,-0.08246681094169617
1732873723025213700,6.194213623046875,-0.13439035415649414,-0.21135938167572021,-0.04459316283464432
1732873723035244500,6.20424462890625,-0.1215621829032898,-0.18814650177955627,-0.005497787147760391
1732873723045233200,6.214233154296875,-0.10934487730264664,-0.14049901068210602,0.028099801391363144
1732873723055233800,6.22423388671875,-0.07696902006864548,-0.0354301854968071,0.04153883829712868
1732873723065222100,6.23422216796875,-0.051312681287527084,0.0354301854968071,0.018936822190880775
1732873723075253500,6.24425341796875,-0.031154127791523933,0.07880161702632904,-0.018936822190880775
1732873723085211400,6.25421142578125,-0.009162978269159794,0.10262536257505417,-0.07513642311096191
1732873723095242000,6.264241943359375,0.021991148591041565,0.08368854224681854,-0.13744467496871948
1732873723105230800,6.27423095703125,0.04214970022439957,0.030543262138962746,-0.19120082259178162
1732873723115231200,6.284231201171875,0.04337143152952194,-0.036041051149368286,-0.2168571650981903
1732873723125219800,6.2942197265625,0.031154127791523933,-0.13866640627384186,-0.17287486791610718
1732873723135250700,6.304250732421875,0.016493361443281174,-0.1820378452539444,-0.09651670604944229
1732873723145208800,6.314208740234375,-0.0024434609804302454,-0.2015855312347412,-0.006108652334660292
1732873723155239700,6.32423974609375,-0.012828170321881771,-0.18020524084568024,0.04948008432984352
1732873723165228300,6.334228271484375,-0.012828170321881771,-0.12950342893600464,0.0354301854968071
1732873723175229000,6.34422900390625,-0.021380282938480377,-0.09651670604944229,-0.027488935738801956
1732873723185217500,6.354217529296875,-0.03237585723400116,-0.0910189226269722,-0.10201449692249298
1732873723195248600,6.36424853515625,-0.02076941914856434,-0.07147123664617538,-0.18814650177955627
1732873723205236700,6.37423681640625,-0.00733038317412138,-0.05314527451992035,-0.19303341209888458
1732873723215238000,6.38423779296875,-0.00427605677396059,-0.04581489413976669,-0.14905111491680145
1732873723225225700,6.394225830078125,-0.00427605677396059,-0.03848451003432274,-0.07819075137376785
1732873723235256600,6.404256591796875,-0.001832595793530345,-0.025656340643763542,-0.0012217304902151227
1732873723245215000,6.414215087890625,0.00427605677396059,-0.009773843921720982,0.06658431142568588
1732873723255245800,6.424245849609375,0.009162978269159794,0.007941247895359993,0.13011430203914642
1732873723265234400,6.434234375,0.006719517521560192,0.042760565876960754,0.17959438264369965
1732873723275235000,6.444235107421875,0.015882495790719986,0.10995574295520782,0.2278527319431305
1732873723285223700,6.4542236328125,0.03298672288656235,0.15393804013729095,0.25106561183929443
1732873723295254500,6.464254638671875,0.04886921867728233,0.17898350954055786,0.2791654169559479
1732873723305212400,6.47421240234375,0.06475171446800232,0.2015855312347412,0.3023782968521118
1732873723315243500,6.484243408203125,0.08185594528913498,0.21380282938480377,0.31093040108680725
1732873723325232000,6.494232177734375,0.10445795953273773,0.19792033731937408,0.30482175946235657
1732873723335232500,6.504232421875,0.1264491081237793,0.16065755486488342,0.27977627515792847
1732873723345220900,6.514220947265625,0.1569923609495163,0.09162978827953339,0.25045475363731384
1732873723355252200,6.524252197265625,0.192422553896904,0.06291911751031876,0.23579397797584534
1732873723365210000,6.534210205078125,0.23029619455337524,0.04764748737215996,0.2376265823841095
1732873723375241200,6.5442412109375,0.27061331272125244,0.042760565876960754,0.2638937830924988
1732873723385229600,6.5542294921875,0.31520646810531616,0.04886921867728233,0.30543261766433716
1732873723395230500,6.56423046875,0.35552358627319336,0.0708603709936142,0.3378084897994995
1732873723405218800,6.57421875,0.3836233615875244,0.11301007121801376,0.3341432809829712
1732873723415250200,6.584250244140625,0.43188172578811646,0.16798794269561768,0.2223549485206604
1732873723425207800,6.594207763671875,0.45326200127601624,0.19975294172763824,0.06780604273080826
1732873723435238700,6.60423876953125,0.4660901725292206,0.20830504596233368,-0.17104226350784302
1732873723445227000,6.61422705078125,0.4697553813457489,0.20402899384498596,-0.5106833577156067
1732873723455259000,6.6242587890625,0.4709770977497101,0.2028072625398636,-0.9395107626914978
1732873723465216300,6.63421630859375,0.4801400899887085,0.16310101747512817,-1.359786033630371
1732873723475247900,6.644247802734375,0.4447098970413208,-0.025656340643763542,-1.6181820631027222
1732873723485235700,6.654235595703125,0.3439171314239502,-0.3903428912162781,-1.5925257205963135
1732873723495236900,6.66423681640625,0.16310101747512817,-0.9847147464752197,-0.9419541954994202
1732873723505225000,6.674224853515625,0.10323622822761536,-1.1789699792861938,-0.22479841113090515
1732873723515256300,6.68425634765625,0.10934487730264664,-1.0848966836929321,0.5283984541893005
1732873723525214200,6.694214111328125,0.17898350954055786,-0.7281513810157776,1.187522053718567
1732873723535245600,6.70424560546875,0.31520646810531616,-0.22907446324825287,1.6633861064910889
1732873723545233700,6.714233642578125,0.4612032473087311,0.2822197377681732,1.8985692262649536
1732873723555234600,6.724234619140625,0.5711590051651001,0.7202101349830627,1.8894062042236328
1732873723565222400,6.734222412109375,0.598647952079773,1.1447614431381226,1.55892813205719
1732873723575252700,6.744252685546875,0.5461135506629944,1.246165156364441,1.273043155670166
1732873723585211400,6.75421142578125,0.4795292317867279,1.235169529914856,1.0024298429489136
1732873723595240200,6.764240234375,0.41233405470848083,1.1093312501907349,0.7562511563301086
1732873723605229800,6.774229736328125,0.3323107063770294,0.8399397134780884,0.53328537940979
1732873723615230000,6.78422998046875,0.24190263450145721,0.44226643443107605,0.313373863697052
1732873723625219000,6.794218994140625,0.1820378452539444,-0.004886921960860491,0.05925392732024193
1732873723635249200,6.804249267578125,0.1661553531885147,-0.5778785347938538,-0.43615779280662537
1732873723645207800,6.814207763671875,0.17898350954055786,-0.8026769161224365,-0.770301103591919
1732873723655239000,6.824239013671875,0.21807889640331268,-0.8527678847312927,-1.0299187898635864
1732873723665227300,6.834227294921875,0.27000242471694946,-0.7648032903671265,-1.1838568449020386
1732873723675228400,6.844228515625,0.3066543638706207,-0.6243042945861816,-1.218676209449768
1732873723685216500,6.854216552734375,0.3378084897994995,-0.4758640229701996,-1.1551461219787598
1732873723695249000,6.864248779296875,0.37140607833862305,-0.31642818450927734,-1.027475357055664
1732873723705236700,6.87423681640625,0.4086688458919525,-0.17043140530586243,-0.8552113175392151
1732873723715238100,6.884238037109375,0.4447098970413208,-0.018325956538319588,-0.5613851547241211
1732873723725225700,6.894225830078125,0.45326200127601624,0.0403171069920063,-0.3793473243713379
1732873723735257900,6.9042578125,0.4453207552433014,0.07024950534105301,-0.2272418737411499
1732873723745215000,6.914215087890625,0.4202753007411957,0.054367005825042725,-0.11667526513338089
1732873723755246000,6.92424609375,0.3897320330142975,-0.003054326167330146,-0.0507018156349659
1732873723765234400,6.934234375,0.3640756905078888,-0.07635815441608429,-0.03298672288656235
1732873723775235300,6.9442353515625,0.34636059403419495,-0.14844025671482086,-0.04153883829712868
1732873723785223700,6.9542236328125,0.32070425152778625,-0.20891591906547546,-0.06658431142568588
1732873723795254800,6.9642548828125,0.30054569244384766,-0.21380282938480377,-0.07941248267889023
1732873723805212700,6.974212646484375,0.28099802136421204,-0.19547687470912933,-0.09040805697441101
1732873723815243500,6.984243408203125,0.26633724570274353,-0.1618792861700058,-0.09040805697441101
1732873723825260500,6.994260498046875,0.2541199326515198,-0.11056660860776901,-0.07452555745840073
1732873723835233300,7.0042333984375,0.242513507604599,-0.07208210229873657,-0.036041051149368286
1732873723845220900,7.014220947265625,0.22357667982578278,-0.05375614017248154,0.033597588539123535
1732873723855252700,7.024252685546875,0.2015855312347412,-0.03176499158143997,0.1661553531885147
1732873723865210000,7.034210205078125,0.1966986060142517,0.006108652334660292,0.2571742534637451
1732873723875241700,7.04424169921875,0.18814650177955627,0.06536258012056351,0.34086281061172485
1732873723885229800,7.054229736328125,0.18814650177955627,0.14844025671482086,0.4129449129104614
1732873723895230200,7.064230224609375,0.20586158335208893,0.2681698501110077,0.47219884395599365
1732873723905218800,7.07421875,0.2370157092809677,0.4129449129104614,0.5198463201522827
1732873723915250200,7.084250244140625,0.2773328125476837,0.5699372887611389,0.5668829679489136
1732873723925207600,7.09420751953125,0.3176499307155609,0.7238753437995911,0.6163630485534668
1732873723935239400,7.104239501953125,0.342695415019989,0.8802568316459656,0.6798930168151855
1732873723945227000,7.11422705078125,0.30482175946235657,0.8973610401153564,0.646295428276062
1732873723955259000,7.1242587890625,0.20525072515010834,0.8307767510414124,0.5326744914054871
1732873723965216300,7.13421630859375,0.056810468435287476,0.6340781450271606,0.36224308609962463
1732873723975247400,7.144247314453125,-0.11667526513338089,0.29504790902137756,0.16859880089759827
1732873723985235700,7.154235595703125,-0.2742784917354584,-0.13866640627384186,-0.013439035043120384
1732873723995236400,7.164236328125,-0.3952298164367676,-0.5803219676017761,-0.1466076523065567
1732873724005224700,7.174224609375,-0.4612032473087311,-0.9254608750343323,-0.2681698501110077
1732873724015256300,7.18425634765625,-0.4502076804637909,-0.9566149711608887,-0.3194825351238251
1732873724025213700,7.194213623046875,-0.394008070230484,-0.8808676600456238,-0.37079519033432007
1732873724035245600,7.20424560546875,-0.32986724376678467,-0.7531968355178833,-0.394008070230484
1732873724045233200,7.214233154296875,-0.2987131178379059,-0.6340781450271606,-0.32070425152778625
1732873724055234000,7.224234130859375,-0.34147366881370544,-0.6010913848876953,-0.05497787147760391
1732873724065222400,7.234222412109375,-0.43127086758613586,-0.6304129362106323,0.4056145250797272
1732873724075253800,7.244253662109375,-0.4899139404296875,-0.6047565937042236,1.1911872625350952
1732873724085211100,7.254211181640625,-0.48869219422340393,-0.5406157374382019,1.5992451906204224
1732873724095242800,7.26424267578125,-0.4715879559516907,-0.48258355259895325,1.8222110271453857
1732873724105230800,7.27423095703125,-0.4331034719944,-0.455705463886261,1.8313740491867065
1732873724115233500,7.284233642578125,-0.3933972120285034,-0.4141666293144226,1.6120734214782715
1732873724125219800,7.2942197265625,-0.34086281061172485,-0.3793473243713379,1.2101240158081055
1732873724135252200,7.304252197265625,-0.2840523421764374,-0.31154128909111023,0.6939429044723511
1732873724145208800,7.314208740234375,-0.24923302233219147,-0.22052235901355743,0.12950342893600464
1732873724155239400,7.324239501953125,-0.2779437005519867,-0.14233160018920898,-0.6414085030555725
1732873724165228300,7.334228271484375,-0.32681289315223694,-0.20830504596233368,-0.9932668805122375
1732873724175229400,7.3442294921875,-0.3701843321323395,-0.31581732630729675,-1.188132882118225
1732873724185217300,7.35421728515625,-0.39767327904701233,-0.3842342495918274,-1.2315043210983276
1732873724195249000,7.364248779296875,-0.4147774875164032,-0.4331034719944,-1.1252137422561646
1732873724205236700,7.37423681640625,-0.4190535545349121,-0.45875978469848633,-0.9297369122505188
1732873724215238100,7.384238037109375,-0.4153883755207062,-0.4404338300228119,-0.7104362845420837
1732873724225225700,7.394225830078125,-0.39095374941825867,-0.303600013256073,-0.43127086758613586
1732873724235257600,7.404257568359375,-0.3640756905078888,-0.16310101747512817,-0.31581732630729675
1732873724245215000,7.414215087890625,-0.3292563557624817,-0.0024434609804302454,-0.24556782841682434
1732873724255245800,7.424245849609375,-0.2968805134296417,0.14233160018920898,-0.1918116807937622
1732873724265234400,7.434234375,-0.27000242471694946,0.251676470041275,-0.13988813757896423
1732873724275235000,7.444235107421875,-0.24434609711170197,0.3481931984424591,-0.09040805697441101
1732873724285223400,7.454223388671875,-0.22540926933288574,0.41599923372268677,-0.04153883829712868
1732873724295254800,7.4642548828125,-0.20830504596233368,0.4593706727027893,0.00733038317412138
1732873724305212400,7.47421240234375,-0.21441370248794556,0.45204028487205505,0.02932153269648552
1732873724315243500,7.484243408203125,-0.2174680233001709,0.4184426963329315,0.04398229718208313
1732873724325232000,7.494232177734375,-0.22296582162380219,0.3640756905078888,0.06108652427792549
1732873724335232500,7.504232421875,-0.23579397797584534,0.2742784917354584,0.08735372871160507
1732873724345220900,7.514220947265625,-0.25473082065582275,0.1661553531885147,0.11239920556545258
1732873724355252000,7.524251953125,-0.2730567753314972,0.05803219974040985,0.11789698898792267
1732873724365210000,7.534210205078125,-0.2834414839744568,-0.05192354694008827,0.11484266817569733
1732873724375241200,7.5442412109375,-0.2974913716316223,-0.19425514340400696,0.13377949595451355
1732873724385229800,7.554229736328125,-0.31031954288482666,-0.27488934993743896,0.1661553531885147
1732873724395230200,7.564230224609375,-0.32559117674827576,-0.34697145223617554,0.20952677726745605
1732873724405218800,7.57421875,-0.3384193480014801,-0.403781920671463,0.2590068578720093
1732873724415249700,7.584249755859375,-0.3378084897994995,-0.4141666293144226,0.29016098380088806
1732873724425207800,7.594207763671875,-0.3237585723400116,-0.3530801236629486,0.2974913716316223
1732873724435238700,7.60423876953125,-0.30054569244384766,-0.23579397797584534,0.2773328125476837
1732873724445227000,7.61422705078125,-0.25106561183929443,0.009162978269159794,0.16859880089759827
1732873724455258400,7.62425830078125,-0.1966986060142517,0.17348572611808777,0.03848451003432274
1732873724465216300,7.63421630859375,-0.13866640627384186,0.28038713335990906,-0.13072516024112701
1732873724475247400,7.644247314453125,-0.08674286305904388,0.30604347586631775,-0.323147714138031
1732873724485235700,7.654235595703125,-0.04948008432984352,0.2669481039047241,-0.503963828086853
1732873724495236400,7.664236328125,-0.024434609338641167,0.19058994948863983,-0.6603453159332275
1732873724505225000,7.674224853515625,-0.028099801391363144,0.0806342139840126,-0.7684684991836548
1732873724515256600,7.684256591796875,-0.10506882518529892,-0.08857546001672745,-0.8240572214126587
1732873724525214000,7.6942138671875,-0.15393804013729095,-0.15393804013729095,-0.8051204085350037
1732873724535245600,7.70424560546875,-0.16371189057826996,-0.16798794269561768,-0.7800748944282532
1732873724545233200,7.714233154296875,-0.11301007121801376,-0.1362229436635971,-0.7745771408081055
1732873724555233300,7.7242333984375,-0.012828170321881771,-0.10018189996480942,-0.797789990901947
1732873724565222400,7.734222412109375,0.1618792861700058,-0.11178833991289139,-0.7867944240570068
1732873724575254000,7.74425390625,0.34574973583221436,-0.22296582162380219,-0.6701191663742065
1732873724585211400,7.75421142578125,0.38667771220207214,-0.4196644127368927,-0.4056145250797272
1732873724595241200,7.7642412109375,0.20525072515010834,-0.6591235995292664,0.23884831368923187
1732873724605229800,7.774229736328125,0.08246681094169617,-0.5949827432632446,0.7550294399261475
1732873724615231000,7.78423095703125,0.019547687843441963,-0.3023782968521118,1.2565498352050781
1732873724625218800,7.79421875,0.0006108652451075613,0.18997909128665924,1.6615535020828247
1732873724635249200,7.804249267578125,0.02687807008624077,0.7428121566772461,1.8985692262649536
1732873724645208000,7.8142080078125,0.11362093687057495,1.2669345140457153,1.9126191139221191
1732873724655238400,7.82423828125,0.23518311977386475,1.644449234008789,1.6743816137313843
1732873724665227300,7.834227294921875,0.41172316670417786,1.7348573207855225,0.8680394887924194
1732873724675229400,7.8442294921875,0.4660901725292206,1.423926830291748,0.1362229436635971
1732873724685216500,7.854216552734375,0.4141666293144226,0.8521569967269897,-0.5558874011039734
1732873724695247600,7.86424755859375,0.2919935882091522,0.12828169763088226,-1.0458012819290161
1732873724705237000,7.874237060546875,0.16859880089759827,-0.5363397002220154,-1.3054190874099731
1732873724715238000,7.88423779296875,0.0757472887635231,-0.9584475755691528,-1.3561208248138428
1732873724725225700,7.894225830078125,0.03726277872920036,-1.1166616678237915,-1.2321151494979858
1732873724735257900,7.9042578125,0.07024950534105301,-1.0464121103286743,-0.826500654220581
1732873724745215000,7.914215087890625,0.12950342893600464,-0.8741481900215149,-0.5186246037483215
1732873724755246600,7.92424658203125,0.19853121042251587,-0.6481280326843262,-0.24068090319633484
1732873724765234400,7.934234375,0.2626720666885376,-0.4178318381309509,-0.00855211354792118
1732873724775235000,7.944235107421875,0.3139847218990326,-0.20830504596233368,0.16065755486488342
1732873724785223400,7.954223388671875,0.34758231043815613,-0.05497787147760391,0.25534167885780334
1732873724795254800,7.9642548828125,0.35674530267715454,0.022602014243602753,0.2632829248905182
1732873724805212700,7.974212646484375,0.33597588539123535,0.02687807008624077,0.19486601650714874
1732873724815243800,7.984243896484375,0.25595253705978394,-0.09224065393209457,0.006108652334660292
1732873724825232100,7.994232177734375,0.17959438264369965,-0.23579397797584534,-0.14477506279945374
1732873724835232500,8.004232421875,0.1160643994808197,-0.3878994286060333,-0.2968805134296417
1732873724845220900,8.014220947265626,0.07635815441608429,-0.5051855444908142,-0.4337143301963806
1732873724855252500,8.02425244140625,0.051312681287527084,-0.5699372887611389,-0.5357288122177124
1732873724865210000,8.034210205078125,0.022602014243602753,-0.607200026512146,-0.5674937963485718
1732873724875241700,8.04424169921875,0.00366519158706069,-0.6065891981124878,-0.5326744914054871
1732873724885229600,8.0542294921875,-0.001832595793530345,-0.4960225820541382,-0.3799581825733185
1732873724895230700,8.064230712890625,0,-0.36713001132011414,-0.2064724564552307
1732873724905218800,8.07421875,0.01038470957428217,-0.2168571650981903,-0.006108652334660292
1732873724915250200,8.084250244140625,0.025045474991202354,-0.05009094998240471,0.17409659922122955
1732873724925207600,8.09420751953125,0.03237585723400116,0.10690141469240189,0.30543261766433716
1732873724935238700,8.10423876953125,0.036651913076639175,0.23090706765651703,0.36529740691185
1732873724945227000,8.11422705078125,0.04153883829712868,0.30482175946235657,0.35185837745666504
1732873724955258000,8.124258056640626,0.04764748737215996,0.2993239760398865,0.20036379992961884
1732873724965216000,8.134216064453126,0.04886921867728233,0.25045475363731384,0.03848451003432274
1732873724975247000,8.1442470703125,0.04214970022439957,0.19425514340400696,-0.1417207419872284
1732873724985235700,8.154235595703126,0.01710422709584236,0.15760323405265808,-0.31093040108680725
1732873724995236600,8.164236572265626,-0.00855211354792118,0.14966198801994324,-0.4593706727027893
1732873725005224700,8.174224609375,-0.042760565876960754,0.14966198801994324,-0.5778785347938538
1732873725015256300,8.18425634765625,-0.08735372871160507,0.1215621829032898,-0.6682865619659424
1732873725025213700,8.194213623046876,-0.1472185254096985,0.04886921867728233,-0.7183775305747986
1732873725035245300,8.204245361328125,-0.2626720666885376,-0.16737708449363708,-0.6591235995292664
1732873725045233200,8.214233154296876,-0.33597588539123535,-0.34636059403419495,-0.5247332453727722
1732873725055234000,8.224234130859376,-0.37140607833862305,-0.4801400899887085,-0.34147366881370544
1732873725065222100,8.23422216796875,-0.30543261766433716,-0.5283984541893005,-0.14844025671482086
1732873725075253800,8.244253662109376,-0.17409659922122955,-0.39095374941825867,-0.006108652334660292
1732873725085211400,8.25421142578125,-0.02871066704392433,-0.13744467496871948,0.10384709388017654
1732873725095242200,8.2642421875,0.05742133408784866,0.1007927656173706,0.2168571650981903
1732873725105230800,8.27423095703125,-0.02015855349600315,0.29993483424186707,0.44104471802711487
1732873725115230700,8.284230712890626,-0.18570303916931152,0.2926044464111328,0.6725626587867737
1732873725125219800,8.2942197265625,-0.35552358627319336,0.19975294172763824,0.959669291973114
1732873725135251500,8.30425146484375,-0.46853363513946533,0.10506882518529892,1.246165156364441
1732873725145208800,8.314208740234376,-0.5076290369033813,0.04092797264456749,1.480737328529358
1732873725155240400,8.324240478515625,-0.4966334402561188,-0.014049900695681572,1.5968017578125
1732873725165228300,8.334228271484376,-0.4538728892803192,-0.024434609338641167,1.5247195959091187
1732873725175228400,8.344228515625,-0.3781255781650543,0.029932396486401558,1.0793988704681396
1732873725185217500,8.354217529296875,-0.32559117674827576,0.0861319974064827,0.6163630485534668
1732873725195247600,8.36424755859375,-0.2981022298336029,0.13805554807186127,0.08796459436416626
1732873725205237000,8.374237060546875,-0.3182607889175415,0.11972958594560623,-0.41233405470848083
1732873725215236600,8.384236572265625,-0.38606682419776917,0.015271631069481373,-0.7800748944282532
1732873725225225700,8.394225830078126,-0.485027015209198,-0.20891591906547546,-0.9755517840385437
1732873725235257300,8.40425732421875,-0.5797111392021179,-0.3536909818649292,-1.0134254693984985
1732873725245215000,8.414215087890625,-0.6334672570228577,-0.4508185386657715,-0.8991936445236206
1732873725255246600,8.42424658203125,-0.6633996367454529,-0.48808133602142334,-0.5210680365562439
1732873725265234400,8.434234375,-0.6279694437980652,-0.45814892649650574,-0.25473082065582275
1732873725275235800,8.44423583984375,-0.5711590051651001,-0.41111230850219727,-0.059864792972803116
1732873725285223400,8.454223388671876,-0.5155702829360962,-0.35613444447517395,0.03481931984424591
1732873725295254500,8.464254638671875,-0.48319441080093384,-0.2785545587539673,0.0507018156349659
1732873725305212700,8.474212646484375,-0.4660901725292206,-0.18509216606616974,0.02382374368607998
1732873725315243800,8.484243896484376,-0.45631635189056396,-0.08185594528913498,-0.018936822190880775
1732873725325232000,8.494232177734375,-0.45631635189056396,0.06902777403593063,-0.045204028487205505
1732873725335232500,8.504232421875,-0.4697553813457489,0.13011430203914642,-0.0555887371301651
1732873725345221000,8.51422119140625,-0.4703662395477295,0.16004669666290283,-0.08185594528913498
1732873725355252200,8.524252197265625,-0.44165557622909546,0.16432274878025055,-0.1160643994808197
1732873725365210000,8.534210205078125,-0.38117989897727966,0.16310101747512817,-0.15882496535778046
1732873725375241500,8.544241455078126,-0.29626965522766113,0.17470745742321014,-0.18814650177955627
1732873725385229600,8.5542294921875,-0.21135938167572021,0.2021963894367218,-0.18814650177955627
1732873725395231000,8.56423095703125,-0.1160643994808197,0.2742784917354584,-0.13316862285137177
1732873725405218800,8.57421875,-0.06841690838336945,0.32986724376678467,-0.06536258012056351
1732873725415250400,8.58425048828125,-0.036041051149368286,0.36713001132011414,0.024434609338641167
1732873725425207800,8.594207763671875,0.006108652334660292,0.32986724376678467,0.12767083942890167
1732873725435239400,8.604239501953124,0.04581489413976669,0.29504790902137756,0.23090706765651703
1732873725445227000,8.61422705078125,0.08674286305904388,0.3023782968521118,0.2974913716316223
1732873725455258000,8.624258056640626,0.14049901068210602,0.2773328125476837,0.3445279896259308
1732873725465216300,8.63421630859375,0.19120082259178162,0.2632829248905182,0.3378084897994995
1732873725475247000,8.6442470703125,0.2119702398777008,0.1918116807937622,0.19914206862449646
1732873725485235700,8.654235595703126,0.21074850857257843,0.10934487730264664,0.04642575979232788
1732873725495237000,8.664237060546874,0.20891591906547546,0.010995574295520782,-0.13255776464939117
1732873725505225000,8.674224853515625,0.21013765037059784,-0.07513642311096191,-0.30604347586631775
1732873725515256600,8.684256591796874,0.20586158335208893,-0.16310101747512817,-0.43676865100860596
1732873725525214000,8.6942138671875,0.19120082259178162,-0.2370157092809677,-0.5161811113357544
1732873725535245600,8.70424560546875,0.1618792861700058,-0.3066543638706207,-0.5143485069274902
1732873725545233400,8.7142333984375,0.10445795953273773,-0.4105014503002167,-0.38117989897727966
1732873725555234600,8.724234619140624,0.07696902006864548,-0.4538728892803192,-0.2376265823841095
1732873725565222400,8.734222412109375,0.06536258012056351,-0.4660901725292206,-0.08918632566928864
1732873725575254000,8.74425390625,0.06291911751031876,-0.4386012554168701,0.04581489413976669
1732873725585211400,8.75421142578125,0.06291911751031876,-0.35735616087913513,0.1411098688840866
1732873725595241200,8.7642412109375,0.0757472887635231,-0.22296582162380219,0.16859880089759827
1732873725605230000,8.77422998046875,0.1270599663257599,-0.05803219974040985,0.0757472887635231
1732873725615231200,8.784231201171876,0.26511552929878235,0.2590068578720093,-0.2571742534637451
1732873725625219000,8.794218994140625,0.3323107063770294,0.4502076804637909,-0.44226643443107605
1732873725635250400,8.80425048828125,0.323147714138031,0.5186246037483215,-0.4660901725292206
1732873725645207800,8.814207763671876,0.24556782841682434,0.39095374941825867,-0.29993483424186707
1732873725655239700,8.82423974609375,0.10690141469240189,0.1258382350206375,0.04092797264456749
1732873725665227500,8.8342275390625,-0.039095375686883926,-0.20097467303276062,0.47830748558044434
1732873725675228700,8.844228759765626,-0.12339477986097336,-0.46242499351501465,0.911410927772522
1732873725685216500,8.854216552734375,-0.15943582355976105,-0.5485569834709167,1.2718214988708496
1732873725695249000,8.864248779296876,-0.16004669666290283,-0.3139847218990326,1.6010777950286865
1732873725705237000,8.874237060546875,-0.17776179313659668,-0.04092797264456749,1.654223084449768
1732873725715236600,8.884236572265625,-0.18020524084568024,0.2223549485206604,1.5644259452819824
1732873725725225700,8.894225830078126,-0.12461651116609573,0.4544837474822998,1.3096951246261597
1732873725735258400,8.90425830078125,-0.013439035043120384,0.5638286471366882,0.921795666217804
1732873725745215000,8.914215087890625,0.13500121235847473,0.513126790523529,0.4648684561252594
1732873725755247400,8.924247314453124,0.2926044464111328,0.3433062732219696,-0.00427605677396059
1732873725765234400,8.934234375,0.48197266459465027,-0.03237585723400116,-0.5839871764183044
1732873725775234300,8.944234375,0.5687155723571777,-0.29138273000717163,-0.8051204085350037
1732873725785223400,8.954223388671876,0.6090326309204102,-0.5308418869972229,-0.8857545852661133
1732873725795255000,8.964255126953125,0.607200026512146,-0.6811147332191467,-0.8686503767967224
1732873725805212700,8.974212646484375,0.5839871764183044,-0.6884451508522034,-0.7855727076530457
1732873725815244300,8.984244384765624,0.5681046843528748,-0.588874101638794,-0.6591235995292664
1732873725825258500,8.994258544921875,0.5503895878791809,-0.4343251883983612,-0.513126790523529
1732873725835233300,9.0042333984375,0.4807509481906891,-0.23518311977386475,-0.33169981837272644
1732873725845221000,9.01422119140625,0.42149701714515686,-0.17898350954055786,-0.26939156651496887
1732873725855252700,9.024252685546875,0.37690386176109314,-0.17837265133857727,-0.26572638750076294
1732873725865210000,9.034210205078125,0.35185837745666504,-0.21441370248794556,-0.3078760802745819
1732873725875241200,9.0442412109375,0.3549126982688904,-0.31581732630729675,-0.3628539443016052
1732873725885229800,9.054229736328125,0.3689626157283783,-0.38240164518356323,-0.39767327904701233
1732873725895230000,9.06422998046875,0.38240164518356323,-0.40072759985923767,-0.38179078698158264
1732873725905218800,9.07421875,0.394618958234787,-0.3695734739303589,-0.3194825351238251
1732873725915250400,9.08425048828125,0.3799581825733185,-0.2217440903186798,-0.17959438264369965
1732873725925207600,9.09420751953125,0.36713001132011414,-0.10934487730264664,-0.09712757170200348
1732873725935239700,9.10423974609375,0.3445279896259308,0.010995574295520782,-0.04092797264456749
1732873725945227000,9.11422705078125,0.31154128909111023,0.1514945775270462,-0.00366519158706069
1732873725955259100,9.124259033203124,0.25106561183929443,0.26572638750076294,0.045204028487205505
1732873725965216300,9.13421630859375,0.16004669666290283,0.3286454975605011,0.11178833991289139
1732873725975247600,9.14424755859375,0.045204028487205505,0.3292563557624817,0.1973094791173935
1732873725985235700,9.154235595703126,-0.006108652334660292,0.20036379992961884,0.3488040566444397
1732873725995236900,9.16423681640625,-0.018325956538319588,0.17043140530586243,0.4282165467739105
1732873726005224700,9.174224609375,-0.036041051149368286,0.10873401165008545,0.46670106053352356
1732873726015255800,9.184255859375,-0.016493361443281174,0.08429940044879913,0.44715335965156555
1732873726025213700,9.194213623046876,0.021991148591041565,0.11056660860776901,0.3634648323059082
1732873726035244800,9.204244873046875,0.0806342139840126,0.15027284622192383,0.24495697021484375
1732873726045233200,9.214233154296876,0.13744467496871948,0.19547687470912933,0.11301007121801376
1732873726055234300,9.224234375,0.17531833052635193,0.20341812074184418,-0.051312681287527084
1732873726065222100,9.23422216796875,0.15332718193531036,0.17898350954055786,-0.11728613078594208
1732873726075253800,9.244253662109376,0.11178833991289139,0.15515977144241333,-0.15882496535778046
1732873726085211400,9.25421142578125,0.0555887371301651,0.13072516024112701,-0.2028072625398636
1732873726095242800,9.26424267578125,-0.004886921960860491,0.08124507963657379,-0.2626720666885376
1732873726105230800,9.27423095703125,-0.07024950534105301,-0.02076941914856434,-0.3390302062034607
1732873726115232000,9.28423193359375,-0.13011430203914642,-0.16371189057826996,-0.4050036668777466
1732873726125219800,9.2942197265625,-0.18814650177955627,-0.3396410644054413,-0.44226643443107605
1732873726135251500,9.30425146484375,-0.24434609711170197,-0.5381723046302795,-0.46670106053352356
1732873726145208800,9.314208740234376,-0.24068090319633484,-0.5387831330299377,-0.5051855444908142
1732873726155240400,9.324240478515625,-0.18875735998153687,-0.4141666293144226,-0.5723807215690613
1732873726165228300,9.334228271484376,-0.11178833991289139,-0.2064724564552307,-0.6291912198066711
1732873726175229400,9.3442294921875,-0.05375614017248154,-0.03481931984424591,-0.5907067060470581
1732873726185217500,9.354217529296875,-0.04092797264456749,0.02382374368607998,-0.40133845806121826
1732873726195249200,9.364249267578124,-0.1270599663257599,-0.03298672288656235,-0.05803219974040985
1732873726205237000,9.374237060546875,-0.3066543638706207,-0.11423180252313614,0.6743952035903931
1732873726215238100,9.384238037109375,-0.3439171314239502,-0.06963863968849182,1.1624765396118164
1732873726225225700,9.394225830078126,-0.31581732630729675,0.11239920556545258,1.5161675214767456
1732873726235257300,9.40425732421875,-0.27122417092323303,0.3396410644054413,1.7085901498794556
1732873726245214700,9.414214599609375,-0.25106561183929443,0.5748242139816284,1.739133358001709
1732873726255245600,9.42424560546875,-0.2272418737411499,0.7348709106445312,1.5790866613388062
1732873726265234400,9.434234375,-0.21380282938480377,0.8032878041267395,1.2272282838821411
1732873726275236400,9.444236328125,-0.24495697021484375,0.7000515460968018,0.4544837474822998
1732873726285223400,9.454223388671876,-0.30054569244384766,0.4697553813457489,-0.11178833991289139
1732873726295253800,9.464253662109375,-0.3836233615875244,0.17104226350784302,-0.5919284224510193
1732873726305212400,9.47421240234375,-0.46303585171699524,-0.1313360333442688,-0.9205739498138428
1732873726315244000,9.484244140625,-0.4996877610683441,-0.3433062732219696,-1.0781772136688232
1732873726325232000,9.494232177734375,-0.5015203952789307,-0.4202753007411957,-1.081842303276062
1732873726335233000,9.50423291015625,-0.49296826124191284,-0.41233405470848083,-0.9590584635734558
1732873726345220900,9.514220947265626,-0.4691445231437683,-0.3433062732219696,-0.7483099102973938
1732873726355252700,9.524252685546875,-0.423329621553421,-0.15454891324043274,-0.394008070230484
1732873726365210000,9.534210205078125,-0.3952298164367676,-0.056810468435287476,-0.192422553896904
1732873726375241700,9.54424169921875,-0.37568211555480957,-0.012828170321881771,-0.054367005825042725
1732873726385229600,9.5542294921875,-0.37079519033432007,-0.00366519158706069,0.022602014243602753
1732873726395231000,9.56423095703125,-0.3683517575263977,-0.003054326167330146,0.07147123664617538
1732873726405218800,9.57421875,-0.36651915311813354,0.009162978269159794,0.1111774742603302
1732873726415250400,9.58425048828125,-0.35124751925468445,0.05864306539297104,0.14782938361167908
1732873726425207600,9.59420751953125,-0.29993483424186707,0.1563815027475357,0.192422553896904
1732873726435238700,9.60423876953125,-0.2528982162475586,0.2217440903186798,0.2070833146572113
1732873726445227000,9.61422705078125,-0.20402899384498596,0.28649580478668213,0.2119702398777008
1732873726455259000,9.6242587890625,-0.16249015927314758,0.3396410644054413,0.21930062770843506
1732873726465216300,9.63421630859375,-0.1362229436635971,0.3683517575263977,0.23884831368923187
1732873726475247000,9.6442470703125,-0.11728613078594208,0.37629300355911255,0.26145032048225403
1732873726485235700,9.654235595703126,-0.10506882518529892,0.3604104816913605,0.27550023794174194
1732873726495236900,9.66423681640625,-0.10995574295520782,0.28527405858039856,0.2681698501110077
1732873726505225000,9.674224853515625,-0.1270599663257599,0.20586158335208893,0.24984388053417206
1732873726515255800,9.684255859375,-0.1466076523065567,0.10751228034496307,0.21868975460529327
1732873726525214200,9.694214111328124,-0.16493362188339233,-0.001832595793530345,0.17348572611808777
1732873726535244800,9.704244873046875,-0.1771509200334549,-0.10934487730264664,0.13255776464939117
1732873726545233400,9.7142333984375,-0.1722639948129654,-0.18875735998153687,0.09285151958465576
1732873726555234800,9.72423486328125,-0.1618792861700058,-0.23273965716362,0.06719517707824707
1732873726565222400,9.734222412109375,-0.15271630883216858,-0.23335053026676178,0.06658431142568588
1732873726575253200,9.744253173828126,-0.13744467496871948,-0.16371189057826996,0.09896016865968704
1732873726585211400,9.75421142578125,-0.11667526513338089,-0.08002334833145142,0.10812314599752426
1732873726595241000,9.764240966796875,-0.1014036312699318,0.021991148591041565,0.09896016865968704
1732873726605229800,9.774229736328126,-0.09224065393209457,0.11484266817569733,0.07635815441608429
1732873726615230200,9.784230224609376,-0.08918632566928864,0.182648703455925,0.03787364438176155
1732873726625219000,9.794218994140625,-0.11362093687057495,0.2070833146572113,-0.015271631069481373
1732873726635250400,9.80425048828125,-0.14905111491680145,0.19303341209888458,-0.07391469180583954
1732873726645207800,9.814207763671876,-0.19975294172763824,0.1411098688840866,-0.1508837193250656
1732873726655239700,9.82423974609375,-0.21624629199504852,0.12767083942890167,-0.17348572611808777
1732873726665227500,9.8342275390625,-0.2076941877603531,0.14049901068210602,-0.1514945775270462
1732873726675228700,9.844228759765626,-0.16982053220272064,0.17592918872833252,-0.08674286305904388
1732873726685216500,9.854216552734375,-0.10567969083786011,0.21930062770843506,0.019547687843441963
1732873726695249000,9.864248779296876,-0.02382374368607998,0.251676470041275,0.1569923609495163
1732873726705237000,9.874237060546875,0.051312681287527084,0.28099802136421204,0.3023782968521118
1732873726715236600,9.884236572265625,0.16554448008537292,0.32681289315223694,0.3903428912162781
1732873726725226000,9.89422607421875,0.2431243658065796,0.36102136969566345,0.294437050819397
1732873726735256300,9.90425634765625,0.2974913716316223,0.2889392673969269,0.06780604273080826
1732873726745215000,9.914215087890625,0.30543261766433716,0.015882495790719986,-0.23090706765651703
1732873726755246600,9.92424658203125,0.2669481039047241,-0.44104471802711487,-0.5100724697113037
1732873726765234400,9.934234375,0.18814650177955627,-0.9651671051979065,-0.6298020482063293
1732873726775235600,9.944235595703125,0.09285151958465576,-1.389107584953308,-0.45265114307403564
1732873726785223400,9.954223388671876,0.018936822190880775,-1.5968017578125,0.01710422709584236
1732873726795255000,9.964255126953125,0.03481931984424591,-1.361007809638977,0.9920451641082764
1732873726805212700,9.974212646484375,0.11423180252313614,-0.959669291973114,1.5748106241226196
1732873726815243000,9.984242919921876,0.19853121042251587,-0.42638394236564636,1.9449949264526367
1732873726825232100,9.994232177734375,0.2431243658065796,0.1313360333442688,2.1068742275238037
1732873726835234000,10.004234130859375,0.3237585723400116,0.5088507533073425,2.032959461212158
1732873726845220900,10.014220947265626,0.4129449129104614,0.7159340381622314,1.7189748287200928
1732873726855253500,10.02425341796875,0.4709770977497101,0.7464773058891296,1.2260065078735352
1732873726865210000,10.034210205078125,0.45326200127601624,0.38667771220207214,0.3286454975605011
1732873726875242000,10.044241943359374,0.394008070230484,-0.06902777403593063,-0.23090706765651703
1732873726885229600,10.0542294921875,0.3023782968521118,-0.5571091175079346,-0.6603453159332275
1732873726895230700,10.064230712890625,0.2015855312347412,-0.9437867999076843,-0.921795666217804
1732873726905218800,10.07421875,0.1313360333442688,-1.1154398918151855,-1.026253581047058
1732873726915250200,10.084250244140625,0.11423180252313614,-1.0604621171951294,-0.998153805732727
1732873726925207600,10.09420751953125,0.14294247329235077,-0.8093964457511902,-0.8588765263557434
1732873726935239400,10.104239501953124,0.2370157092809677,-0.23457226157188416,-0.5143485069274902
1732873726945227000,10.11422705078125,0.29504790902137756,0.15332718193531036,-0.26450464129447937
1732873726955258000,10.124258056640626,0.33475416898727417,0.4758640229701996,-0.04948008432984352
1732873726965216300,10.13421630859375,0.34636059403419495,0.6707300543785095,0.1062905490398407
1732873726975247000,10.1442470703125,0.3225368559360504,0.7098253965377808,0.19303341209888458
1732873726985235700,10.154235595703126,0.2590068578720093,0.6401867866516113,0.2064724564552307
1732873726995236400,10.164236328125,0.18387043476104736,0.4893030524253845,0.16737708449363708
1732873727005224700,10.174224609375,0.10995574295520782,0.303600013256073,0.09896016865968704
1732873727015255800,10.184255859375,0.021991148591041565,0.02932153269648552,-0.036651913076639175
1732873727025213700,10.194213623046876,-0.010995574295520782,-0.12278391420841217,-0.11972958594560623
1732873727035244500,10.20424462890625,-0.031154127791523933,-0.23335053026676178,-0.16798794269561768
1732873727045233200,10.214233154296876,-0.03481931984424591,-0.2724458873271942,-0.17470745742321014
1732873727055233500,10.224233642578126,-0.02687807008624077,-0.23396138846874237,-0.1362229436635971
1732873727065222400,10.234222412109375,-0.006108652334660292,-0.14049901068210602,-0.07147123664617538
1732873727075253200,10.244253173828126,0.02932153269648552,-0.009773843921720982,0.006719517521560192
1732873727085211400,10.25421142578125,0.08796459436416626,0.15393804013729095,0.09773843735456467
1732873727095242800,10.26424267578125,0.09896016865968704,0.23151792585849762,0.13866640627384186
1732873727105230800,10.27423095703125,0.08429940044879913,0.27977627515792847,0.18509216606616974
1732873727115232000,10.28423193359375,0.05619960278272629,0.2919935882091522,0.23335053026676178
1732873727125219600,10.294219482421875,0.025045474991202354,0.28955012559890747,0.27488934993743896
1732873727135250700,10.304250732421876,-0.010995574295520782,0.26511552929878235,0.30543261766433716
1732873727145208800,10.314208740234376,-0.05742133408784866,0.2125810980796814,0.30543261766433716
1732873727155239700,10.32423974609375,-0.11545353382825851,0.12278391420841217,0.22846360504627228
1732873727165228500,10.334228515625,-0.12889257073402405,0.06963863968849182,0.14294247329235077
1732873727175229000,10.34422900390625,-0.1215621829032898,0.0354301854968071,0.04703662544488907
1732873727185217300,10.35421728515625,-0.11545353382825851,0.013439035043120384,-0.04092797264456749
1732873727195249200,10.364249267578124,-0.11850785464048386,0.0006108652451075613,-0.10262536257505417
1732873727205237000,10.374237060546875,-0.13316862285137177,0.0024434609804302454,-0.12217304855585098
1732873727215238100,10.384238037109375,-0.16554448008537292,-0.01466076634824276,-0.09529497474431992
1732873727225226000,10.39422607421875,-0.22602014243602753,-0.05925392732024193,-0.029932396486401558
1732873727235257000,10.404257080078125,-0.32681289315223694,-0.23090706765651703,0.09773843735456467
1732873727245215000,10.414215087890625,-0.37201693654060364,-0.3903428912162781,0.14905111491680145
1732873727255245800,10.424245849609376,-0.3805690407752991,-0.50335294008255,0.11789698898792267
1732873727265234700,10.434234619140625,-0.36102136969566345,-0.5363397002220154,-0.006108652334660292
1732873727275235600,10.444235595703125,-0.3176499307155609,-0.48869219422340393,-0.2021963894367218
1732873727285223400,10.454223388671876,-0.24495697021484375,-0.4202753007411957,-0.4288274049758911
1732873727295255000,10.464255126953125,-0.18509216606616974,-0.3732386529445648,-0.6243042945861816
1732873727305212700,10.474212646484375,-0.21502456068992615,-0.5852088928222656,-0.5674937963485718
1732873727315244000,10.484244140625,-0.29138273000717163,-0.8875871896743774,-0.2583959996700287
1732873727325232000,10.494232177734375,-0.3646865487098694,-1.1557570695877075,0.20525072515010834
1732873727335233300,10.5042333984375,-0.4031710624694824,-1.2620476484298706,0.7073819637298584
1732873727345220900,10.514220947265626,-0.4508185386657715,-1.1917980909347534,1.1545352935791016
1732873727355252700,10.524252685546875,-0.48380526900291443,-0.9633345007896423,1.5375478267669678
1732873727365210000,10.534210205078125,-0.4404338300228119,-0.6139195561408997,1.833817481994629
1732873727375243500,10.544243408203124,-0.21991148591041565,0.09285151958465576,1.9724838733673096
1732873727385229600,10.5542294921875,-0.031154127791523933,0.6029239892959595,1.8081611394882202
1732873727395231700,10.564231689453125,0.1007927656173706,1.0170906782150269,1.444696307182312
1732873727405054500,10.574054443359374,0.13927727937698364,1.2467759847640991,0.9224064946174622
1732873727415249200,10.584249267578125,0.09346238523721695,1.2424999475479126,0.2987131178379059
1732873727425207800,10.594207763671875,0.00855211354792118,0.9969320893287659,-0.3579670190811157
1732873727435239400,10.604239501953124,-0.08002334833145142,0.6059783101081848,-0.9639453291893005
1732873727445227000,10.61422705078125,-0.16554448008537292,0.12339477986097336,-1.4343116283416748
1732873727455259000,10.6242587890625,-0.29565876722335815,-0.5491678714752197,-1.7537940740585327
1732873727465216300,10.63421630859375,-0.35246923565864563,-0.8491026759147644,-1.6982053518295288
1732873727475247900,10.644247802734375,-0.35735616087913513,-0.9755517840385437,-1.4746286869049072
1732873727485235700,10.654235595703126,-0.33475416898727417,-0.8991936445236206,-1.1410962343215942
1732873727495236900,10.66423681640625,-0.30054569244384766,-0.6682865619659424,-0.749531626701355
1732873727505225000,10.674224853515625,-0.24923302233219147,-0.3341432809829712,-0.3628539443016052
1732873727515256300,10.68425634765625,-0.17043140530586243,0.03481931984424591,-0.028099801391363144
1732873727525214000,10.6942138671875,-0.027488935738801956,0.5174028873443604,0.2981022298336029
1732873727535244800,10.704244873046875,0.05864306539297104,0.6939429044723511,0.4001167416572571
1732873727545233400,10.7142333984375,0.11789698898792267,0.7538077235221863,0.42088615894317627
1732873727555234000,10.724234130859376,0.14538592100143433,0.7153232097625732,0.37751471996307373
1732873727565222400,10.734222412109375,0.15760323405265808,0.607810914516449,0.29077184200286865
1732873727575253800,10.744253662109376,0.16737708449363708,0.46181413531303406,0.17531833052635193
1732873727585211400,10.75421142578125,0.17592918872833252,0.30054569244384766,0.04459316283464432
1732873727595241000,10.764240966796875,0.18875735998153687,0.07147123664617538,-0.13988813757896423
1732873727605229800,10.774229736328126,0.20097467303276062,-0.036041051149368286,-0.2376265823841095
1732873727615230200,10.784230224609376,0.22296582162380219,-0.09285151958465576,-0.2981022298336029
1732873727625219000,10.794218994140625,0.24373523890972137,-0.08979719132184982,-0.3225368559360504
1732873727635250400,10.80425048828125,0.25961771607398987,-0.03420845419168472,-0.32009339332580566
1732873727645208000,10.8142080078125,0.28649580478668213,0.06719517707824707,-0.3084869384765625
1732873727655239700,10.82423974609375,0.3286454975605011,0.18570303916931152,-0.2974913716316223
1732873727665227500,10.8342275390625,0.3738495409488678,0.2883284091949463,-0.28588494658470154
1732873727675229000,10.84422900390625,0.4331034719944,0.36529740691185,-0.2724458873271942
1732873727685216500,10.854216552734375,0.47219884395599365,0.36651915311813354,-0.2718350291252136
1732873727695249200,10.864249267578124,0.4960225820541382,0.3396410644054413,-0.2773328125476837
1732873727705237000,10.874237060546875,0.5082398653030396,0.2993239760398865,-0.2938261926174164
1732873727715238100,10.884238037109375,0.5064072608947754,0.2431243658065796,-0.31520646810531616
1732873727725226000,10.89422607421875,0.4990769028663635,0.1716531366109848,-0.3445279896259308
1732873727735257900,10.9042578125,0.4917465150356293,0.07452555745840073,-0.37140607833862305
1732873727745215000,10.914215087890625,0.47830748558044434,-0.11728613078594208,-0.3781255781650543
1732873727755246600,10.92424658203125,0.4697553813457489,-0.2565633952617645,-0.33536502718925476
1732873727765234400,10.934234375,0.46181413531303406,-0.3597996234893799,-0.25473082065582275
1732873727775235800,10.94423583984375,0.46303585171699524,-0.4098905920982361,-0.1411098688840866
1732873727785223400,10.954223388671876,0.4862487316131592,-0.4056145250797272,-0.001832595793530345
1732873727795255300,10.96425537109375,0.5338962078094482,-0.3445279896259308,0.14233160018920898
1732873727805212700,10.974212646484375,0.5949827432632446,-0.23579397797584534,0.2730567753314972
1732873727815244300,10.984244384765624,0.6792821288108826,-0.0354301854968071,0.3927863538265228
1732873727825260500,10.994260498046875,0.7367035150527954,0.10751228034496307,0.3701843321323395
1732873727835233300,11.0042333984375,0.799011766910553,0.23518311977386475,0.24068090319633484
1732873727845220900,11.014220947265626,0.8356636762619019,0.3072652220726013,0.01466076634824276
1732873727855253000,11.0242529296875,0.8344419002532959,0.2742784917354584,-0.2791654169559479
1732873727865210000,11.034210205078125,0.8051204085350037,0.11178833991289139,-0.5894849896430969
1732873727875242000,11.044241943359374,0.7550294399261475,-0.17592918872833252,-0.8283332586288452
1732873727885229600,11.0542294921875,0.6908885836601257,-0.5229006409645081,-0.9224064946174622
1732873727895230700,11.064230712890625,0.5943718552589417,-0.930347740650177,-0.6988298296928406
1732873727905218800,11.07421875,0.5717698931694031,-0.9743300676345825,-0.3481931984424591
1732873727915250400,11.08425048828125,0.6212499737739563,-0.8118399381637573,0.06291911751031876
1732873727925207600,11.09420751953125,0.6682865619659424,-0.44287729263305664,0.46670106053352356
1732873727935239400,11.104239501953124,0.7287622094154358,-0.00855211354792118,0.8258898258209229
1732873727945227000,11.11422705078125,0.8155050873756409,0.40194934606552124,1.1007791757583618
1732873727955257300,11.12425732421875,0.9169087409973145,0.7238753437995911,1.2712105512619019
1732873727965216300,11.13421630859375,0.9993755221366882,0.921795666217804,1.3720033168792725
1732873727975246600,11.14424658203125,0.9926560521125793,0.8399397134780884,1.341460108757019
1732873727985235700,11.154235595703126,0.9511171579360962,0.6200281977653503,1.2357803583145142
1732873727995235300,11.1642353515625,0.8918632864952087,0.3072652220726013,1.0659598112106323
1732873728005224700,11.174224609375,0.8203920125961304,-0.0403171069920063,0.8417723178863525
1732873728015256300,11.18425634765625,0.7336491346359253,-0.37079519033432007,0.5833762884140015
1732873728025213400,11.19421337890625,0.637132465839386,-0.6249151229858398,0.30970868468284607
1732873728035244300,11.204244384765625,0.5601634383201599,-0.8301658630371094,-0.11239920556545258
1732873728045233200,11.214233154296876,0.5766568183898926,-0.8319984674453735,-0.37568211555480957
1732873728055233300,11.2242333984375,0.6438519954681396,-0.7623597979545593,-0.59803706407547
1732873728065222400,11.234222412109375,0.7391469478607178,-0.6676757335662842,-0.750142514705658
1732873728075252700,11.244252685546876,0.837496280670166,-0.5656611919403076,-0.8118399381637573
1732873728085211400,11.25421142578125,0.9272934198379517,-0.44104471802711487,-0.7849618196487427
1732873728095241500,11.264241455078125,0.998153805732727,-0.29016098380088806,-0.6963863968849182
1732873728105230800,11.27423095703125,1.0427470207214355,-0.14416420459747314,-0.5736024379730225
1732873728115232000,11.28423193359375,1.0812314748764038,0.056810468435287476,-0.3878994286060333
1732873728125219800,11.2942197265625,1.1142182350158691,0.18936823308467865,-0.29138273000717163
1732873728135251700,11.304251708984374,1.1557570695877075,0.3188716471195221,-0.21502456068992615
1732873728145208800,11.314208740234376,1.2064588069915771,0.41661009192466736,-0.1472185254096985
1732873728155240400,11.324240478515625,1.2559388875961304,0.485027015209198,-0.07269296050071716
1732873728165228300,11.334228271484376,1.3017538785934448,0.5241223573684692,0.00855211354792118
1732873728175230000,11.34422998046875,1.3469579219818115,0.5424483418464661,0.09773843735456467
1732873728185217500,11.354217529296875,1.4184291362762451,0.5510004758834839,0.22540926933288574
1732873728195247600,11.36424755859375,1.4605787992477417,0.5265658497810364,0.2883284091949463
1732873728205237000,11.374237060546875,1.4953981637954712,0.5009095072746277,0.30970868468284607
1732873728215237000,11.384237060546875,1.538158655166626,0.4795292317867279,0.2919935882091522
1732873728225226000,11.39422607421875,1.5925257205963135,0.46670106053352356,0.24923302233219147
1732873728235256600,11.404256591796875,1.6603317260742188,0.475253164768219,0.2021963894367218
1732873728245215000,11.414215087890625,1.740355134010315,0.5155702829360962,0.15882496535778046
1732873728255245600,11.42424560546875,1.8478673696517944,0.6139195561408997,0.1313360333442688
1732873728265234400,11.434234375,1.8839083909988403,0.656680166721344,0.1618792861700058
1732873728275234300,11.444234375,1.8887953758239746,0.6524040699005127,0.23396138846874237
1732873728285223400,11.454223388671876,1.8680258989334106,0.5913175344467163,0.32620203495025635
1732873728295255000,11.464255126953125,1.833817481994629,0.4801400899887085,0.4105014503002167
1732873728305212400,11.47421240234375,1.80510675907135,0.3646865487098694,0.4648684561252594
1732873728315244500,11.48424462890625,1.7892242670059204,0.2968805134296417,0.4764748811721802
1732873728325232000,11.494232177734375,1.7910568714141846,0.2834414839744568,0.4508185386657715
1732873728335233300,11.5042333984375,1.8167132139205933,0.3677408695220947,0.35552358627319336
1732873728345221000,11.51422119140625,1.853365182876587,0.455705463886261,0.27061331272125244
1732873728355251700,11.524251708984375,1.9028452634811401,0.5253441333770752,0.1869247704744339
1732873728365210000,11.534210205078125,1.9608774185180664,0.5595525503158569,0.09957103431224823
1732873728375242000,11.544241943359374,2.0231857299804688,0.5583308339118958,0.02076941914856434
1732873728385229600,11.5542294921875,2.070833206176758,0.5076290369033813,-0.025045474991202354
1732873728395230700,11.564230712890625,2.0867156982421875,0.42210787534713745,-0.019547687843441963
1732873728405218800,11.57421875,2.0677788257598877,0.31459560990333557,0.08796459436416626
1732873728415250400,11.58425048828125,2.045787811279297,0.30543261766433716,0.2125810980796814
1732873728425207800,11.594207763671875,2.02929425239563,0.3738495409488678,0.3500257730484009
1732873728435239700,11.60423974609375,2.0195205211639404,0.4911356568336487,0.47708576917648315
1732873728445227000,11.61422705078125,2.0195205211639404,0.6065891981124878,0.5644394755363464
1732873728455259100,11.624259033203124,2.029905319213867,0.7006624341011047,0.5870414972305298
1732873728465216300,11.63421630859375,2.045787811279297,0.7586946487426758,0.5387831330299377
1732873728475248000,11.644248046875,2.0732767581939697,0.7745771408081055,0.3683517575263977
1732873728485236000,11.654236083984374,2.1068742275238037,0.7684684991836548,0.21502456068992615
1732873728495236900,11.66423681640625,2.13314151763916,0.7263187766075134,0.07330382615327835
1732873728505225000,11.674224853515625,2.1502456665039062,0.6646214127540588,-0.03848451003432274
1732873728515256600,11.684256591796874,2.1642956733703613,0.6090326309204102,-0.12400564551353455
1732873728525214200,11.694214111328124,2.1795670986175537,0.5876523852348328,-0.19853121042251587
1732873728535245600,11.70424560546875,2.2015583515167236,0.5992587804794312,-0.2767219543457031
1732873728545233400,11.7142333984375,2.22171688079834,0.6102544069290161,-0.3854559659957886
1732873728555234800,11.72423486328125,2.258368730545044,0.5833762884140015,-0.6029239892959595
1732873728565222400,11.734222412109375,2.2883012294769287,0.5314527750015259,-0.7641924023628235
1732873728575254300,11.744254150390624,2.3164010047912598,0.4355469346046448,-0.8936958312988281
1732873728585211400,11.75421142578125,2.337170362472534,0.3029891550540924,-0.9761626720428467
1732873728595241500,11.764241455078125,2.339613914489746,0.14538592100143433,-0.9731083512306213
1732873728605229800,11.774229736328126,2.3121249675750732,-0.018936822190880775,-0.8698720932006836
1732873728615231000,11.78423095703125,2.2595906257629395,-0.15271630883216858,-0.6725626587867737
1732873728625219000,11.794218994140625,2.213164806365967,-0.21807889640331268,-0.3017674386501312
1732873728635250700,11.804250732421876,2.2211060523986816,-0.08857546001672745,-0.08002334833145142
1732873728645208000,11.8142080078125,2.255314588546753,0.09834930300712585,0.1111774742603302
1732873728655239700,11.82423974609375,2.3041837215423584,0.32681289315223694,0.24129177629947662
1732873728665227500,11.8342275390625,2.3493876457214355,0.5277875661849976,0.29993483424186707
1732873728675229000,11.84422900390625,2.378098487854004,0.6609562039375305,0.29016098380088806
1732873728685216500,11.854216552734375,2.4013113975524902,0.6835582256317139,0.2272418737411499
1732873728695249200,11.864249267578124,2.4184155464172363,0.5937610268592834,0.07941248267889023
1732873728705236700,11.87423681640625,2.428189277648926,0.4960225820541382,-0.02321287989616394
1732873728715238100,11.884238037109375,2.431243658065796,0.41661009192466736,-0.11239920556545258
1732873728725226000,11.89422607421875,2.4294111728668213,0.3628539443016052,-0.17409659922122955
1732873728735257600,11.904257568359375,2.4214699268341064,0.31520646810531616,-0.19853121042251587
1732873728745214700,11.914214599609375,2.3964242935180664,0.29077184200286865,-0.19547687470912933
1732873728755246600,11.92424658203125,2.3609941005706787,0.2834414839744568,-0.1869247704744339
1732873728765234400,11.934234375,2.342668294906616,0.25961771607398987,-0.18387043476104736
1732873728775235600,11.944235595703125,2.3212878704071045,0.2168571650981903,-0.2028072625398636
1732873728785223700,11.9542236328125,2.314568519592285,0.18325957655906677,-0.22113321721553802
1732873728795255300,11.96425537109375,2.306016206741333,0.1820378452539444,-0.24495697021484375
1732873728805212700,11.974212646484375,2.302962064743042,0.19364428520202637,-0.2632829248905182
1732873728815244300,11.984244384765624,2.3035728931427,0.20586158335208893,-0.27000242471694946
1732873728825232100,11.994232177734375,2.2992968559265137,0.21502456068992615,-0.27061331272125244
1732873728835233300,12.0042333984375,2.289522886276245,0.23457226157188416,-0.27061331272125244
1732873728845220900,12.014220947265626,2.2821924686431885,0.251676470041275,-0.28099802136421204
1732873728855252700,12.024252685546875,2.285857677459717,0.2528982162475586,-0.3017674386501312
1732873728865210000,12.034210205078125,2.2925772666931152,0.24862214922904968,-0.33719760179519653
1732873728875242000,12.044241943359374,2.283414363861084,0.2223549485206604,-0.3805690407752991
1732873728885229600,12.0542294921875,2.2430970668792725,0.17959438264369965,-0.42577308416366577
1732873728895231000,12.06423095703125,2.1704041957855225,0.10812314599752426,-0.4612032473087311
1732873728905218800,12.07421875,2.0812180042266846,0.02382374368607998,-0.4703662395477295
1732873728915250400,12.08425048828125,1.9382754564285278,-0.11423180252313614,-0.3988949954509735
1732873728925207600,12.09420751953125,1.8503108024597168,-0.18570303916931152,-0.2919935882091522
1732873728935239400,12.104239501953124,1.7806721925735474,-0.22479841113090515,-0.1362229436635971
1732873728945227000,12.11422705078125,1.740355134010315,-0.19975294172763824,0.04703662544488907
1732873728955259100,12.124259033203124,1.7299703359603882,-0.11239920556545258,0.2382374405860901
1732873728965216000,12.134216064453126,1.7177530527114868,0.006719517521560192,0.4129449129104614
1732873728975248100,12.144248046875,1.7043139934539795,0.13377949595451355,0.5387831330299377
1732873728985235700,12.154235595703126,1.693318486213684,0.26083946228027344,0.5845980644226074
1732873728995236900,12.16423681640625,1.6658295392990112,0.45692721009254456,0.47708576917648315
1732873729005224700,12.174224609375,1.6420058012008667,0.5540547966957092,0.3066543638706207
1732873729015256600,12.184256591796874,1.5961909294128418,0.5937610268592834,0.08979719132184982
1732873729025213700,12.194213623046876,1.529606580734253,0.5613851547241211,-0.12339477986097336
1732873729035245600,12.20424560546875,1.434922456741333,0.45265114307403564,-0.2816088795661926
1732873729045233200,12.214233154296876,1.321912407875061,0.3182607889175415,-0.36224308609962463
1732873729055234600,12.224234619140624,1.205847978591919,0.18936823308467865,-0.36529740691185
1732873729065222400,12.234222412109375,1.054964303970337,0.06963863968849182,-0.2583959996700287
1732873729075254000,12.24425390625,0.9731083512306213,0.05009094998240471,-0.1569923609495163
1732873729085211400,12.25421142578125,0.9065240025520325,0.0507018156349659,-0.06902777403593063
1732873729095243000,12.264242919921875,0.8436049222946167,0.07208210229873657,-0.012828170321881771
1732873729105230800,12.27423095703125,0.7916813492774963,0.09407325088977814,0.012217304669320583
1732873729115232000,12.28423193359375,0.7648032903671265,0.08429940044879913,0.015271631069481373
1732873729125220000,12.29422021484375,0.7531968355178833,0.048258353024721146,-0.0024434609804302454
1732873729135251500,12.30425146484375,0.7348709106445312,-0.0006108652451075613,-0.03237585723400116
1732873729145208800,12.314208740234376,0.6951646208763123,0.0012217304902151227,-0.027488935738801956
1732873729155240400,12.324240478515625,0.6340781450271606,0.039095375686883926,-0.005497787147760391
1732873729165228300,12.334228271484376,0.5601634383201599,0.09346238523721695,0.031154127791523933
1732873729175229400,12.3442294921875,0.47280970215797424,0.12767083942890167,0.06719517707824707
1732873729185217500,12.354217529296875,0.3988949954509735,0.10445795953273773,0.09040805697441101
1732873729195249200,12.364249267578124,0.3286454975605011,0.025656340643763542,0.0910189226269722
1732873729205236700,12.37423681640625,0.23640485107898712,-0.08918632566928864,0.07147123664617538
1732873729215238400,12.38423828125,0.09285151958465576,-0.32681289315223694,0.03237585723400116
1732873729225226000,12.39422607421875,0.02382374368607998,-0.49785518646240234,-0.0006108652451075613
1732873729235257600,12.404257568359375,-0.012828170321881771,-0.5992587804794312,-0.04092797264456749
1732873729245214700,12.414214599609375,-0.00427605677396059,-0.6010913848876953,-0.06475171446800232
1732873729255246600,12.42424658203125,0.025045474991202354,-0.5051855444908142,-0.05742133408784866
1732873729265234400,12.434234375,0.05314527451992035,-0.36529740691185,-0.018325956538319588
1732873729275235300,12.4442353515625,0.0555887371301651,-0.23396138846874237,0.04581489413976669
1732873729285223400,12.454223388671876,0.01466076634824276,-0.08246681094169617,0.14355333149433136
1732873729295255000,12.464255126953125,-0.012217304669320583,-0.03237585723400116,0.16432274878025055
1732873729305212700,12.474212646484375,-0.04337143152952194,-0.015271631069481373,0.13072516024112701
