time,seconds_elapsed,z,y,x
1732873717005629200,0.174629150390625,-0.05253441259264946,0.01710422709584236,0.01466076634824276
1732873717015190300,0.184190185546875,-0.03848451003432274,0.018936822190880775,0.02382374368607998
1732873717025155600,0.194155517578125,-0.025656340643763542,-0.0006108652451075613,0.036041051149368286
1732873717035157200,0.2041572265625,-0.006108652334660292,-0.010995574295520782,0.05803219974040985
1732873717045144600,0.21414453125,0.006108652334660292,0.01160643994808197,0.08735372871160507
1732873717055145700,0.224145751953125,0.025656340643763542,0.07208210229873657,0.1264491081237793
1732873717065133600,0.234133544921875,0.06169738993048668,0.1765400618314743,0.16798794269561768
1732873717075165200,0.244165283203125,0.10934487730264664,0.30970868468284607,0.21930062770843506
1732873717085122800,0.254122802734375,0.15821409225463867,0.4092797040939331,0.2736676335334778
1732873717095154400,0.264154541015625,0.182648703455925,0.4386012554168701,0.29077184200286865
1732873717105142300,0.274142333984375,0.17959438264369965,0.3738495409488678,0.24495697021484375
1732873717115143400,0.284143310546875,0.09712757170200348,0.13927727937698364,0.12095131725072861
1732873717125131300,0.29413134765625,0.01771509274840355,-0.04092797264456749,0.02382374368607998
1732873717135163000,0.304162841796875,-0.05009094998240471,-0.1771509200334549,-0.07208210229873657
1732873717145120300,0.314120361328125,-0.09468411654233932,-0.24923302233219147,-0.1313360333442688
1732873717155152000,0.32415185546875,-0.11239920556545258,-0.2767219543457031,-0.1411098688840866
1732873717165140000,0.334139892578125,-0.1062905490398407,-0.27061331272125244,-0.11789698898792267
1732873717175140900,0.344140869140625,-0.08307767659425735,-0.2431243658065796,-0.07452555745840073
1732873717185129000,0.35412890625,-0.04459316283464432,-0.18570303916931152,0.0024434609804302454
1732873717195160300,0.364160400390625,-0.016493361443281174,-0.1270599663257599,0.0403171069920063
1732873717205148400,0.3741484375,0.009773843921720982,-0.06841690838336945,0.06414084881544113
1732873717215149600,0.384149658203125,0.02382374368607998,-0.024434609338641167,0.07941248267889023
1732873717225137200,0.39413720703125,0.024434609338641167,-0.01466076634824276,0.08552113175392151
1732873717235169300,0.404169189453125,0.009773843921720982,-0.04398229718208313,0.08307767659425735
1732873717245126400,0.41412646484375,-0.010995574295520782,-0.08857546001672745,0.06475171446800232
1732873717255158000,0.424157958984375,-0.04886921867728233,-0.1466076523065567,0.025045474991202354
1732873717265145900,0.434145751953125,-0.06780604273080826,-0.1875356286764145,0.00855211354792118
1732873717275147000,0.44414697265625,-0.09224065393209457,-0.27122417092323303,-0.0024434609804302454
1732873717285135000,0.454135009765625,-0.11728613078594208,-0.31154128909111023,-0.010995574295520782
1732873717295166500,0.46416650390625,-0.11728613078594208,-0.30970868468284607,-0.01160643994808197
1732873717305123800,0.474123779296875,-0.09896016865968704,-0.2993239760398865,-0.004886921960860491
1732873717315155700,0.48415576171875,-0.06658431142568588,-0.2889392673969269,0.009162978269159794
1732873717325143300,0.494143310546875,-0.036041051149368286,-0.2583959996700287,0.0354301854968071
1732873717335144400,0.50414453125,-0.001832595793530345,-0.21807889640331268,0.09896016865968704
1732873717345132300,0.51413232421875,0.00366519158706069,-0.19914206862449646,0.13316862285137177
1732873717355164200,0.5241640625,-0.006719517521560192,-0.18020524084568024,0.15454891324043274
1732873717365121500,0.53412158203125,-0.02382374368607998,-0.16554448008537292,0.17409659922122955
1732873717375153200,0.544153076171875,-0.021380282938480377,-0.16798794269561768,0.18936823308467865
1732873717385141000,0.55414111328125,-0.015271631069481373,-0.18081611394882202,0.2021963894367218
1732873717395142100,0.56414208984375,-0.007941247895359993,-0.16920967400074005,0.2076941877603531
1732873717405130000,0.5741298828125,0.03420845419168472,-0.09773843735456467,0.2021963894367218
1732873717415160800,0.584160888671875,0.05742133408784866,-0.02687807008624077,0.18325957655906677
1732873717425119000,0.594118896484375,0.0806342139840126,0.028099801391363144,0.14905111491680145
1732873717435150000,0.604150146484375,0.09285151958465576,0.05009094998240471,0.1014036312699318
1732873717445138400,0.614138427734375,0.08491026610136032,0.04092797264456749,0.04948008432984352
1732873717455169500,0.62416943359375,0.06536258012056351,0.015271631069481373,0.00427605677396059
1732873717465127700,0.634127685546875,0.04581489413976669,-0.009162978269159794,-0.031154127791523933
1732873717475159300,0.6441591796875,0.03176499158143997,-0.016493361443281174,-0.05803219974040985
1732873717485147100,0.654147216796875,0.03481931984424591,-0.001832595793530345,-0.04886921867728233
1732873717495148300,0.664148193359375,0.03237585723400116,0.01466076634824276,-0.02076941914856434
1732873717505136000,0.67413623046875,0.025045474991202354,0.015271631069481373,0.00855211354792118
1732873717515167700,0.684167724609375,0.02321287989616394,0.010995574295520782,0.019547687843441963
1732873717525125000,0.694125,0.021991148591041565,0.003054326167330146,0.015271631069481373
1732873717535156000,0.704156005859375,0.013439035043120384,-0.042760565876960754,-0.01038470957428217
1732873717545144800,0.714144775390625,-0.014049900695681572,-0.12522737681865692,-0.06780604273080826
1732873717555145200,0.724145263671875,-0.06414084881544113,-0.24923302233219147,-0.18387043476104736
1732873717565133800,0.7341337890625,-0.07330382615327835,-0.28099802136421204,-0.2272418737411499
1732873717575165000,0.7441650390625,-0.04886921867728233,-0.24495697021484375,-0.2223549485206604
1732873717585122800,0.754122802734375,-0.01038470957428217,-0.15821409225463867,-0.16310101747512817
1732873717595153400,0.7641533203125,0.01710422709584236,-0.05619960278272629,-0.06658431142568588
1732873717605141800,0.774141845703125,0.04337143152952194,0.054367005825042725,0.021380282938480377
1732873717615143000,0.784142822265625,0.06230825558304787,0.12339477986097336,0.0806342139840126
1732873717625130800,0.794130859375,0.054367005825042725,0.13011430203914642,0.10201449692249298
1732873717635162400,0.804162353515625,0.033597588539123535,0.09773843735456467,0.0806342139840126
1732873717645119700,0.81411962890625,0.015271631069481373,0.06475171446800232,0.04581489413976669
1732873717655151400,0.8241513671875,-0.0012217304902151227,0.03787364438176155,0.015882495790719986
1732873717665139200,0.83413916015625,-0.013439035043120384,0.028099801391363144,-0.01038470957428217
1732873717675139800,0.844139892578125,-0.01771509274840355,0.03176499158143997,-0.02932153269648552
1732873717685128200,0.854128173828125,-0.02321287989616394,0.039095375686883926,-0.03420845419168472
1732873717695160600,0.86416064453125,-0.02871066704392433,0.054367005825042725,-0.01771509274840355
1732873717705148200,0.874148193359375,-0.029932396486401558,0.0708603709936142,-0.0012217304902151227
1732873717715149600,0.884149658203125,-0.02932153269648552,0.0861319974064827,0.012828170321881771
1732873717725137200,0.89413720703125,-0.029932396486401558,0.09040805697441101,0.025045474991202354
1732873717735169300,0.904169189453125,-0.029932396486401558,0.07391469180583954,0.02932153269648552
1732873717745126400,0.91412646484375,-0.03298672288656235,0.05192354694008827,0.024434609338641167
1732873717755157500,0.924157470703125,-0.03787364438176155,0.028099801391363144,0.015271631069481373
1732873717765145900,0.934145751953125,-0.03420845419168472,0.02321287989616394,0.009773843921720982
1732873717775147000,0.94414697265625,-0.05864306539297104,0.03481931984424591,-0.0006108652451075613
1732873717785134800,0.954134765625,-0.07696902006864548,0.042760565876960754,-0.009773843921720982
1732873717795166500,0.96416650390625,-0.09285151958465576,0.04764748737215996,-0.012828170321881771
1732873717805123800,0.974123779296875,-0.1160643994808197,0.04214970022439957,0
1732873717815155700,0.98415576171875,-0.14233160018920898,0.03848451003432274,0.022602014243602753
1732873717825171700,0.994171630859375,-0.16554448008537292,0.04459316283464432,0.036651913076639175
1732873717835144000,1.00414404296875,-0.18814650177955627,0.04337143152952194,0.039706241339445114
1732873717845132300,1.01413232421875,-0.2480112910270691,-0.00733038317412138,0.021380282938480377
1732873717855163600,1.02416357421875,-0.304210901260376,-0.05619960278272629,-0.013439035043120384
1732873717865121500,1.03412158203125,-0.36163222789764404,-0.07757988572120667,-0.05925392732024193
1732873717875152600,1.044152587890625,-0.4178318381309509,-0.06475171446800232,-0.08918632566928864
1732873717885141000,1.05414111328125,-0.46364670991897583,-0.007941247895359993,-0.06536258012056351
1732873717895142100,1.06414208984375,-0.4709770977497101,0.11178833991289139,0.036041051149368286
1732873717905130000,1.0741298828125,-0.4764748811721802,0.19364428520202637,0.22479841113090515
1732873717915160600,1.08416064453125,-0.5607742667198181,0.14538592100143433,0.5552765130996704
1732873717925119000,1.094118896484375,-0.6670648455619812,-0.03481931984424591,0.7061602473258972
1732873717935149300,1.1041494140625,-0.8045095205307007,-0.2981022298336029,0.7660250067710876
1732873717945138400,1.114138427734375,-0.9187413454055786,-0.5998696684837341,0.7305948138237
1732873717955169300,1.124169189453125,-0.970054030418396,-0.8820894360542297,0.5833762884140015
1732873717965127400,1.13412744140625,-0.9676105380058289,-1.0848966836929321,0.34513887763023376
1732873717975158000,1.144157958984375,-0.8906415104866028,-1.1136072874069214,0.0757472887635231
1732873717985147100,1.154147216796875,-0.8148942589759827,-1.0555751323699951,-0.2119702398777008
1732873717995147000,1.16414697265625,-1.0378600358963013,-0.7648032903671265,-0.41233405470848083
1732873718005136100,1.17413623046875,-1.1252137422561646,-0.5290092825889587,-0.37079519033432007
1732873718015166700,1.184166748046875,-1.1649199724197388,-0.26939156651496887,-0.2675589919090271
1732873718025125000,1.194125,-1.2021827697753906,-0.04214970022439957,-0.13744467496871948
1732873718035157200,1.2041572265625,-1.2021827697753906,0.09285151958465576,-0.004886921960860491
1732873718045144600,1.21414453125,-1.179580807685852,0.11423180252313614,0.11667526513338089
1732873718055145200,1.224145263671875,-1.1771373748779297,0.021991148591041565,0.21013765037059784
1732873718065133600,1.234133544921875,-1.2296717166900635,-0.20586158335208893,0.24007004499435425
1732873718075164400,1.244164306640625,-1.3029755353927612,-0.33169981837272644,0.152105450630188
1732873718085122800,1.254122802734375,-1.3964380025863647,-0.4141666293144226,-0.005497787147760391
1732873718095153200,1.264153076171875,-1.519832730293274,-0.4764748811721802,-0.1875356286764145
1732873718105142300,1.274142333984375,-1.6548339128494263,-0.5296201705932617,-0.35063666105270386
1732873718115143700,1.284143798828125,-1.7776178121566772,-0.59803706407547,-0.43615779280662537
1732873718125131300,1.29413134765625,-1.871691107749939,-0.6682865619659424,-0.37629300355911255
1732873718135163100,1.3041630859375,-1.891238808631897,-0.7617489695549011,-0.02321287989616394
1732873718145120300,1.314120361328125,-1.8643606901168823,-0.7568620443344116,0.3084869384765625
1732873718155152100,1.324152099609375,-1.8417587280273438,-0.6921103000640869,0.6316346526145935
1732873718165140000,1.334139892578125,-1.8234328031539917,-0.5418374538421631,0.8576548099517822
1732873718175141000,1.34414111328125,-1.797776460647583,-0.2974913716316223,0.9162978529930115
1732873718185129000,1.35412890625,-1.803274154663086,-0.012217304669320583,0.8045095205307007
1732873718195160000,1.36416015625,-1.8307631015777588,0.2174680233001709,0.5473352670669556
1732873718205148200,1.374148193359375,-1.8741345405578613,0.3243694305419922,0.18448130786418915
1732873718215149600,1.384149658203125,-1.9773707389831543,0.17837265133857727,-0.3988949954509735
1732873718225137400,1.394137451171875,-2.0897700786590576,-0.05864306539297104,-0.685390830039978
1732873718235169300,1.404169189453125,-2.1655173301696777,-0.3341432809829712,-0.8228355050086975
1732873718245126400,1.41412646484375,-2.2516493797302246,-0.626747727394104,-0.8038986921310425
1732873718255158300,1.424158203125,-2.353052854537964,-0.8680394887924194,-0.6872233748435974
1732873718265145900,1.434145751953125,-2.4251351356506348,-1.0305296182632446,-0.5393940210342407
1732873718275147000,1.44414697265625,-2.4575109481811523,-1.0910053253173828,-0.39767327904701233
1732873718285135000,1.454135009765625,-2.392759084701538,-0.9266825914382935,-0.22540926933288574
1732873718295166700,1.464166748046875,-2.30051851272583,-0.6762278079986572,-0.1270599663257599
1732873718305123800,1.474123779296875,-2.1991147994995117,-0.41233405470848083,-0.04764748737215996
1732873718315155700,1.48415576171875,-2.102598190307617,-0.1918116807937622,0
1732873718325143300,1.494143310546875,-2.0470094680786133,-0.07391469180583954,0.01710422709584236
1732873718335145000,1.50414501953125,-2.026850938796997,-0.0555887371301651,0.01466076634824276
1732873718345132500,1.514132568359375,-2.0201313495635986,-0.10445795953273773,-0.003054326167330146
1732873718355164400,1.524164306640625,-2.0311269760131836,-0.26145032048225403,-0.04581489413976669
1732873718365121500,1.53412158203125,-2.0531179904937744,-0.37262779474258423,-0.08735372871160507
1732873718375153200,1.544153076171875,-2.0757200717926025,-0.4495968222618103,-0.1319468915462494
1732873718385141000,1.55414111328125,-2.102598190307617,-0.4893030524253845,-0.16004669666290283
1732873718395142400,1.564142333984375,-2.13008713722229,-0.5076290369033813,-0.15943582355976105
1732873718405130000,1.5741298828125,-2.1478021144866943,-0.513737678527832,-0.13805554807186127
1732873718415161900,1.584161865234375,-2.155743360519409,-0.5112941861152649,-0.10445795953273773
1732873718425119000,1.594118896484375,-2.1533000469207764,-0.5088507533073425,-0.06291911751031876
1732873718435150800,1.60415087890625,-2.14902400970459,-0.4960225820541382,-0.003054326167330146
1732873718445138400,1.614138427734375,-2.1453588008880615,-0.4856378734111786,0.03481931984424591
1732873718455170300,1.62417041015625,-2.1453588008880615,-0.47708576917648315,0.06658431142568588
1732873718465127700,1.634127685546875,-2.144136905670166,-0.4697553813457489,0.08735372871160507
1732873718475159300,1.6441591796875,-2.144136905670166,-0.4642575979232788,0.09529497474431992
1732873718485147100,1.654147216796875,-2.146580457687378,-0.4508185386657715,0.08796459436416626
1732873718495148300,1.664148193359375,-2.1447479724884033,-0.4300491213798523,0.06780604273080826
1732873718505136000,1.67413623046875,-2.1368067264556885,-0.3488040566444397,-0.0012217304902151227
1732873718515168000,1.68416796875,-2.1227567195892334,-0.2480112910270691,-0.08674286305904388
1732873718525125000,1.694125,-2.1233675479888916,-0.15882496535778046,-0.19364428520202637
1732873718535157000,1.704156982421875,-2.144136905670166,-0.11667526513338089,-0.3188716471195221
1732873718545144600,1.71414453125,-2.177734613418579,-0.12339477986097336,-0.45631635189056396
1732873718555145700,1.724145751953125,-2.222327709197998,-0.19303341209888458,-0.5736024379730225
1732873718565133600,1.734133544921875,-2.275473117828369,-0.29626965522766113,-0.6524040699005127
1732873718575165400,1.74416552734375,-2.3151793479919434,-0.4282165467739105,-0.684779942035675
1732873718585122800,1.754122802734375,-2.302962064743042,-0.46364670991897583,-0.6548475623130798
1732873718595153700,1.764153564453125,-2.272418737411499,-0.46364670991897583,-0.5827654600143433
1732873718605141800,1.774141845703125,-2.22477126121521,-0.4251621961593628,-0.4807509481906891
1732873718615143000,1.784142822265625,-2.1514673233032227,-0.3280346393585205,-0.34636059403419495
1732873718625130800,1.794130859375,-2.0567831993103027,-0.182648703455925,-0.192422553896904
1732873718635162400,1.804162353515625,-1.9529361724853516,-0.033597588539123535,-0.036651913076639175
1732873718645119700,1.81411962890625,-1.8613064289093018,0.06352998316287994,0.10384709388017654
1732873718655151600,1.824151611328125,-1.7550158500671387,0.08429940044879913,0.2217440903186798
1732873718665139200,1.83413916015625,-1.701259732246399,0.01710422709584236,0.2321287989616394
1732873718675140600,1.844140625,-1.6578882932662964,-0.08491026610136032,0.19975294172763824
1732873718685128400,1.85412841796875,-1.6108516454696655,-0.18509216606616974,0.13377949595451355
1732873718695159000,1.864158935546875,-1.5467108488082886,-0.2583959996700287,0.0507018156349659
1732873718705148200,1.874148193359375,-1.463022232055664,-0.30970868468284607,-0.03298672288656235
1732873718715148300,1.884148193359375,-1.3652838468551636,-0.34208452701568604,-0.10812314599752426
1732873718725137200,1.89413720703125,-1.208902359008789,-0.3188716471195221,-0.18325957655906677
1732873718735168000,1.90416796875,-1.0977247953414917,-0.2779437005519867,-0.20402899384498596
1732873718745126400,1.91412646484375,-0.988990843296051,-0.22479841113090515,-0.19914206862449646
1732873718755156700,1.92415673828125,-0.8881980776786804,-0.17776179313659668,-0.17837265133857727
1732873718765145900,1.934145751953125,-0.797789990901947,-0.15515977144241333,-0.15882496535778046
1732873718775145700,1.944145751953125,-0.7128797173500061,-0.16432274878025055,-0.15577064454555511
1732873718785134800,1.954134765625,-0.6346889734268188,-0.19853121042251587,-0.17043140530586243
1732873718795165400,1.96416552734375,-0.5473352670669556,-0.2828305959701538,-0.19975294172763824
1732873718805123600,1.97412353515625,-0.4960225820541382,-0.3341432809829712,-0.21991148591041565
1732873718815154400,1.984154541015625,-0.4398229718208313,-0.3494149148464203,-0.23090706765651703
1732873718825143300,1.994143310546875,-0.37629300355911255,-0.3127630054950714,-0.2168571650981903
1732873718835143400,2.004143310546875,-0.303600013256073,-0.21868975460529327,-0.16859880089759827
1732873718845132300,2.01413232421875,-0.22357667982578278,-0.09162978827953339,-0.10445795953273773
1732873718855163100,2.0241630859375,-0.1508837193250656,0.03481931984424591,-0.04214970022439957
1732873718865121500,2.03412158203125,-0.09834930300712585,0.10873401165008545,-0.003054326167330146
1732873718875152600,2.044152587890625,-0.05619960278272629,0.08857546001672745,-0.021380282938480377
1732873718885141000,2.05414111328125,-0.042760565876960754,0.012217304669320583,-0.05925392732024193
1732873718895141600,2.0641416015625,-0.031154127791523933,-0.07147123664617538,-0.08857546001672745
1732873718905147400,2.0741474609375,-0.021380282938480377,-0.12950342893600464,-0.08429940044879913
1732873718915178500,2.084178466796875,-0.0024434609804302454,-0.14538592100143433,-0.054367005825042725
1732873718925136600,2.09413671875,0.02687807008624077,-0.12461651116609573,0.00427605677396059
1732873718935167500,2.10416748046875,0.05803219974040985,-0.08979719132184982,0.08735372871160507
1732873718945156000,2.114156005859375,0.1215621829032898,-0.013439035043120384,0.21013765037059784
1732873718955187000,2.12418701171875,0.17348572611808777,0.04886921867728233,0.2583959996700287
1732873718965145000,2.13414501953125,0.2223549485206604,0.10445795953273773,0.28038713335990906
1732873718975176200,2.14417626953125,0.2583959996700287,0.1661553531885147,0.2871066629886627
1732873718985164500,2.15416455078125,0.2638937830924988,0.21563543379306793,0.2883284091949463
1732873718995165400,2.16416552734375,0.22479841113090515,0.2382374405860901,0.29016098380088806
1732873719005153500,2.174153564453125,0.16310101747512817,0.2064724564552307,0.2730567753314972
1732873719015184600,2.1841845703125,0.059864792972803116,0.10812314599752426,0.19364428520202637
1732873719025142800,2.194142822265625,0.006108652334660292,0.039706241339445114,0.10323622822761536
1732873719035173600,2.204173583984375,-0.03787364438176155,-0.02871066704392433,-0.003054326167330146
1732873719045162200,2.214162353515625,-0.07757988572120667,-0.08491026610136032,-0.0959058403968811
1732873719055162400,2.224162353515625,-0.09346238523721695,-0.10812314599752426,-0.1466076523065567
1732873719065151000,2.23415087890625,-0.07819075137376785,-0.10751228034496307,-0.13439035415649414
1732873719075182800,2.244182861328125,-0.001832595793530345,-0.07819075137376785,-0.0555887371301651
1732873719085140200,2.25414013671875,0.06902777403593063,-0.036041051149368286,0.07269296050071716
1732873719095171800,2.264171875,0.10995574295520782,-0.02626720629632473,0.2718350291252136
1732873719105159700,2.27415966796875,0.11667526513338089,-0.03787364438176155,0.35246923565864563
1732873719115160300,2.284160400390625,0.11178833991289139,-0.054367005825042725,0.38179078698158264
1732873719125149000,2.29414892578125,0.09346238523721695,-0.07819075137376785,0.37629300355911255
1732873719135179800,2.3041796875,0.06108652427792549,-0.09834930300712585,0.34513887763023376
1732873719145137700,2.3141376953125,0.06108652427792549,-0.1111774742603302,0.2883284091949463
1732873719155168800,2.324168701171875,0.07696902006864548,-0.10445795953273773,0.2217440903186798
1732873719165157000,2.3341572265625,0.07635815441608429,-0.07635815441608429,0.1466076523065567
1732873719175157800,2.34415771484375,0.04948008432984352,-0.0354301854968071,0.10445795953273773
1732873719185146400,2.354146484375,0.01160643994808197,0.013439035043120384,0.048258353024721146
1732873719195177500,2.364177490234375,-0.02015855349600315,0.045204028487205505,-0.04642575979232788
1732873719205165800,2.374165771484375,-0.04642575979232788,0.03787364438176155,-0.16859880089759827
1732873719215166200,2.384166259765625,-0.06963863968849182,0.018936822190880775,-0.2889392673969269
1732873719225154800,2.39415478515625,-0.08002334833145142,0.006719517521560192,-0.38179078698158264
1732873719235186000,2.40418603515625,-0.0757472887635231,0.013439035043120384,-0.45142942667007446
1732873719245143800,2.414143798828125,-0.05742133408784866,0.02871066704392433,-0.4660901725292206
1732873719255175000,2.4241748046875,-0.06841690838336945,-0.0006108652451075613,-0.484416127204895
1732873719265163300,2.434163330078125,-0.14538592100143433,-0.006719517521560192,-0.5442809462547302
1732873719275164000,2.444163818359375,-0.2730567753314972,-0.02321287989616394,-0.6481280326843262
1732873719285152300,2.45415234375,-0.30604347586631775,-0.04703662544488907,-0.7018841505050659
1732873719295183400,2.464183349609375,-0.2993239760398865,-0.08857546001672745,-0.6829473376274109
1732873719305141500,2.4741416015625,-0.35124751925468445,-0.07513642311096191,-0.6188064813613892
1732873719315172600,2.484172607421875,-0.47769662737846375,-0.06475171446800232,-0.504574716091156
1732873719325161000,2.494160888671875,-0.5338962078094482,-0.10934487730264664,-0.4105014503002167
1732873719335161900,2.504161865234375,-0.5601634383201599,-0.1765400618314743,-0.2767219543457031
1732873719345150000,2.51414990234375,-0.5742133259773254,-0.21868975460529327,-0.09040805697441101
1732873719355181300,2.524181396484375,-0.5815436840057373,-0.21135938167572021,0.1508837193250656
1732873719365139000,2.534138916015625,-0.5699372887611389,-0.15882496535778046,0.4178318381309509
1732873719375170000,2.544170166015625,-0.5400048494338989,-0.07635815441608429,0.6713408827781677
1732873719385158400,2.554158447265625,-0.49785518646240234,-0.003054326167330146,0.901637077331543
1732873719395159300,2.5641591796875,-0.44654250144958496,0.05192354694008827,0.9095783233642578
1732873719405147600,2.574147705078125,-0.39706242084503174,0.09224065393209457,0.8252789378166199
1732873719415180000,2.584179931640625,-0.3628539443016052,0.1062905490398407,0.66584312915802
1732873719425136600,2.59413671875,-0.34758231043815613,0.0910189226269722,0.4508185386657715
1732873719435167700,2.604167724609375,-0.34025195240974426,0.07391469180583954,0.18509216606616974
1732873719445156000,2.614156005859375,-0.3433062732219696,0.0507018156349659,-0.07880161702632904
1732873719455187500,2.6241875,-0.3732386529445648,-0.0555887371301651,-0.3628539443016052
1732873719465145300,2.634145263671875,-0.394618958234787,-0.1472185254096985,-0.46853363513946533
1732873719475176000,2.644176025390625,-0.40194934606552124,-0.2376265823841095,-0.504574716091156
1732873719485164500,2.65416455078125,-0.39217549562454224,-0.2926044464111328,-0.48808133602142334
1732873719495165200,2.664165283203125,-0.36102136969566345,-0.2932153046131134,-0.43737950921058655
1732873719505153500,2.674153564453125,-0.3066543638706207,-0.23518311977386475,-0.3689626157283783
1732873719515185000,2.684184814453125,-0.2431243658065796,-0.12278391420841217,-0.28649580478668213
1732873719525142800,2.694142822265625,-0.1765400618314743,0.01160643994808197,-0.2015855312347412
1732873719535174100,2.704174072265625,-0.07880161702632904,0.2028072625398636,-0.12950342893600464
1732873719545162200,2.714162353515625,-0.031154127791523933,0.29565876722335815,-0.1270599663257599
1732873719555163000,2.724162841796875,-0.0012217304902151227,0.34636059403419495,-0.1667662113904953
1732873719565151200,2.734151123046875,0.022602014243602753,0.35124751925468445,-0.24862214922904968
1732873719575182300,2.744182373046875,0.0403171069920063,0.3225368559360504,-0.3585779070854187
1732873719585140200,2.75414013671875,0.05009094998240471,0.26083946228027344,-0.46364670991897583
1732873719595171000,2.764171142578125,0.056810468435287476,0.17898350954055786,-0.543059229850769
1732873719605159400,2.774159423828125,0.06230825558304787,0.02871066704392433,-0.5791002511978149
1732873719615160300,2.784160400390625,0.05009094998240471,-0.09529497474431992,-0.5241223573684692
1732873719625148400,2.7941484375,0.02321287989616394,-0.2541199326515198,-0.4086688458919525
1732873719635180000,2.804179931640625,-0.018936822190880775,-0.43615779280662537,-0.22907446324825287
1732873719645137200,2.81413720703125,-0.05925392732024193,-0.5913175344467163,0.012828170321881771
1732873719655169000,2.8241689453125,-0.0806342139840126,-0.6591235995292664,0.29565876722335815
1732873719665156900,2.834156982421875,-0.05803219974040985,-0.6120869517326355,0.5852088928222656
1732873719675157800,2.84415771484375,0.04703662544488907,-0.3530801236629486,0.9639453291893005
1732873719685145900,2.854145751953125,0.10567969083786011,-0.08796459436416626,1.1264355182647705
1732873719695177200,2.86417724609375,0.1459967941045761,0.19547687470912933,1.178359031677246
1732873719705165800,2.874165771484375,0.17287486791610718,0.45326200127601624,1.1117748022079468
1732873719715165700,2.884165771484375,0.2028072625398636,0.6017022728919983,0.9199630618095398
1732873719725155000,2.894155029296875,0.23518311977386475,0.5998696684837341,0.6249151229858398
1732873719735185200,2.90418505859375,0.24923302233219147,0.44837507605552673,0.2681698501110077
1732873719745143800,2.914143798828125,0.2577851414680481,0.2070833146572113,-0.10445795953273773
1732873719755174400,2.92417431640625,0.24984388053417206,-0.24923302233219147,-0.5375614166259766
1732873719765163300,2.934163330078125,0.24007004499435425,-0.4960225820541382,-0.6805039048194885
1732873719775163100,2.9441630859375,0.2278527319431305,-0.6096435189247131,-0.6908885836601257
1732873719785152300,2.95415234375,0.22296582162380219,-0.5564982295036316,-0.6059783101081848
1732873719795183900,2.964183837890625,0.2370157092809677,-0.394008070230484,-0.4612032473087311
1732873719805141500,2.9741416015625,0.2626720666885376,-0.1973094791173935,-0.294437050819397
1732873719815172900,2.9841728515625,0.2779437005519867,-0.06536258012056351,-0.10812314599752426
1732873719825189000,2.994189208984375,0.2687807083129883,-0.012217304669320583,0.16798794269561768
1732873719835161900,3.004161865234375,0.2840523421764374,-0.027488935738801956,0.3335324227809906
1732873719845150000,3.01414990234375,0.29504790902137756,-0.027488935738801956,0.4612032473087311
1732873719855180800,3.024180908203125,0.303600013256073,-0.018325956538319588,0.5558874011039734
1732873719865139000,3.034138916015625,0.3121521472930908,-0.00855211354792118,0.6059783101081848
1732873719875170000,3.044170166015625,0.31642818450927734,-0.00366519158706069,0.5955936312675476
1732873719885158400,3.054158447265625,0.31459560990333557,-0.009773843921720982,0.5125159621238708
1732873719895159000,3.064158935546875,0.3084869384765625,-0.042760565876960754,0.27977627515792847
1732873719905147600,3.074147705078125,0.3292563557624817,-0.028099801391363144,0.1007927656173706
1732873719915178800,3.0841787109375,0.3481931984424591,0.022602014243602753,-0.031154127791523933
1732873719925136600,3.09413671875,0.3677408695220947,0.09529497474431992,-0.09529497474431992
1732873719935167700,3.104167724609375,0.39156460762023926,0.17592918872833252,-0.1215621829032898
1732873719945156000,3.114156005859375,0.41599923372268677,0.23945917189121246,-0.14844025671482086
1732873719955187200,3.124187255859375,0.43615779280662537,0.2620611786842346,-0.18814650177955627
1732873719965144800,3.134144775390625,0.44776421785354614,0.23579397797584534,-0.2382374405860901
1732873719975176200,3.14417626953125,0.4605923891067505,0.15027284622192383,-0.304210901260376
1732873719985164500,3.15416455078125,0.4703662395477295,0.1319468915462494,-0.32620203495025635
1732873719995165400,3.16416552734375,0.4801400899887085,0.15943582355976105,-0.3072652220726013
1732873720005153500,3.174153564453125,0.48747047781944275,0.21563543379306793,-0.2431243658065796
1732873720015185000,3.184184814453125,0.47219884395599365,0.2571742534637451,-0.1368338167667389
1732873720025142800,3.194142822265625,0.4306600093841553,0.24862214922904968,-0.005497787147760391
1732873720035173600,3.204173583984375,0.36529740691185,0.1771509200334549,0.11789698898792267
1732873720045162200,3.214162353515625,0.2480112910270691,-0.001832595793530345,0.23396138846874237
1732873720055162600,3.22416259765625,0.17592918872833252,-0.10201449692249298,0.2590068578720093
1732873720065151000,3.23415087890625,0.11362093687057495,-0.16798794269561768,0.24678955972194672
1732873720075182000,3.24418212890625,0.06169738993048668,-0.19364428520202637,0.20952677726745605
1732873720085140200,3.25414013671875,0.024434609338641167,-0.19364428520202637,0.15454891324043274
1732873720095171300,3.26417138671875,-0.00366519158706069,-0.18997909128665924,0.1007927656173706
1732873720105159700,3.27415966796875,-0.04214970022439957,-0.20341812074184418,0.07452555745840073
1732873720115160300,3.284160400390625,-0.10567969083786011,-0.18448130786418915,0.12339477986097336
1732873720125148700,3.294148681640625,-0.1258382350206375,-0.09407325088977814,0.20036379992961884
1732873720135180300,3.30418017578125,-0.13744467496871948,0.06780604273080826,0.294437050819397
1732873720145137700,3.3141376953125,-0.16554448008537292,0.2376265823841095,0.38667771220207214
1732873720155169300,3.324169189453125,-0.2076941877603531,0.35185837745666504,0.4593706727027893
1732873720165157000,3.3341572265625,-0.2632829248905182,0.35735616087913513,0.5222898125648499
1732873720175158500,3.344158447265625,-0.32498031854629517,0.25595253705978394,0.607200026512146
1732873720185146400,3.354146484375,-0.38240164518356323,0.09040805697441101,0.7232644557952881
1732873720195177200,3.36417724609375,-0.4147774875164032,-0.08002334833145142,0.8509352803230286
1732873720205165800,3.374165771484375,-0.3830125033855438,-0.09040805697441101,0.8515461683273315
1732873720215166200,3.384166259765625,-0.34025195240974426,-0.021380282938480377,0.7922922372817993
1732873720225154800,3.39415478515625,-0.3176499307155609,0.09407325088977814,0.675616979598999
1732873720235185200,3.40418505859375,-0.31154128909111023,0.1820378452539444,0.5112941861152649
1732873720245144000,3.41414404296875,-0.30970868468284607,0.2021963894367218,0.3121521472930908
1732873720255174400,3.42417431640625,-0.3029891550540924,0.1661553531885147,0.0910189226269722
1732873720265163300,3.434163330078125,-0.33719760179519653,0.018325956538319588,-0.2021963894367218
1732873720275164700,3.44416455078125,-0.35063666105270386,-0.060475658625364304,-0.3885102868080139
1732873720285152300,3.45415234375,-0.3121521472930908,-0.09773843735456467,-0.5723807215690613
1732873720295184000,3.464183837890625,-0.24434609711170197,-0.14233160018920898,-0.7354817390441895
1732873720305141500,3.4741416015625,-0.1820378452539444,-0.22846360504627228,-0.8411614298820496
1732873720315173000,3.484173095703125,-0.11789698898792267,-0.3579670190811157,-0.8607091307640076
1732873720325161000,3.494160888671875,-0.05375614017248154,-0.48197266459465027,-0.7574729323387146
1732873720335162000,3.504162109375,0.027488935738801956,-0.5015203952789307,-0.39645153284072876
1732873720345150000,3.51414990234375,0.06352998316287994,-0.3885102868080139,-0.11911872029304504
1732873720355181600,3.524181640625,0.09896016865968704,-0.21563543379306793,0.11362093687057495
1732873720365139000,3.534138916015625,0.13011430203914642,-0.04092797264456749,0.27550023794174194
1732873720375170000,3.544170166015625,0.12767083942890167,0.07941248267889023,0.3604104816913605
1732873720385158400,3.554158447265625,0.08796459436416626,0.11972958594560623,0.3500257730484009
1732873720395159000,3.564158935546875,0.02687807008624077,0.05192354694008827,0.25106561183929443
1732873720405147600,3.574147705078125,-0.042760565876960754,-0.08674286305904388,0.08368854224681854
1732873720415178800,3.5841787109375,-0.15454891324043274,-0.3084869384765625,-0.21380282938480377
1732873720425136600,3.59413671875,-0.2015855312347412,-0.3854559659957886,-0.3903428912162781
1732873720435167500,3.60416748046875,-0.21930062770843506,-0.3787364661693573,-0.5204572081565857
1732873720445156400,3.61415625,-0.1973094791173935,-0.2681698501110077,-0.5974262356758118
1732873720455187200,3.624187255859375,-0.14844025671482086,-0.09957103431224823,-0.6414085030555725
1732873720465145000,3.63414501953125,-0.07941248267889023,0.08185594528913498,-0.6835582256317139
1732873720475176000,3.644176025390625,-0.00733038317412138,0.24923302233219147,-0.7269296646118164
1732873720485164500,3.65416455078125,0.06352998316287994,0.4544837474822998,-0.7434229850769043
1732873720495166000,3.664166015625,0.09040805697441101,0.5247332453727722,-0.7202101349830627
1732873720505153800,3.67415380859375,0.11667526513338089,0.5448917746543884,-0.6786713004112244
1732873720515185400,3.684185302734375,0.1270599663257599,0.5149593949317932,-0.6035348773002625
1732873720525142800,3.694142822265625,0.11850785464048386,0.4092797040939331,-0.47708576917648315
1732873720535174100,3.704174072265625,0.08307767659425735,0.23579397797584534,-0.32009339332580566
1732873720545162200,3.714162353515625,0.02382374368607998,0.025656340643763542,-0.1569923609495163
1732873720555163400,3.724163330078125,-0.06352998316287994,-0.18997909128665924,0.04642575979232788
1732873720565151200,3.734151123046875,-0.09896016865968704,-0.22296582162380219,0.12034045159816742
1732873720575182000,3.74418212890625,-0.11545353382825851,-0.19486601650714874,0.1514945775270462
1732873720585140200,3.75414013671875,-0.10384709388017654,-0.13500121235847473,0.15760323405265808
1732873720595170800,3.7641708984375,-0.08429940044879913,-0.05192354694008827,0.14844025671482086
1732873720605159400,3.774159423828125,-0.07208210229873657,0.00366519158706069,0.12461651116609573
1732873720615159800,3.784159912109375,-0.07269296050071716,0.02076941914856434,0.09346238523721695
1732873720625148200,3.794148193359375,-0.07880161702632904,-0.006108652334660292,0.06291911751031876
1732873720635179500,3.804179443359375,-0.08918632566928864,-0.09040805697441101,0.05497787147760391
1732873720645137200,3.81413720703125,-0.07757988572120667,-0.1160643994808197,0.05314527451992035
1732873720655168300,3.824168212890625,-0.04214970022439957,-0.11301007121801376,0.039706241339445114
1732873720665156900,3.834156982421875,0.005497787147760391,-0.08918632566928864,0.003054326167330146
1732873720675157200,3.8441572265625,0.054367005825042725,-0.05497787147760391,-0.0708603709936142
1732873720685145900,3.854145751953125,0.09529497474431992,-0.013439035043120384,-0.1563815027475357
1732873720695177700,3.864177734375,0.12828169763088226,0.029932396486401558,-0.22418753802776337
1732873720705165800,3.874165771484375,0.13316862285137177,0.06780604273080826,-0.2736676335334778
1732873720715166700,3.884166748046875,0.1160643994808197,0.0959058403968811,-0.27550023794174194
1732873720725154800,3.89415478515625,0.11850785464048386,0.17409659922122955,-0.25961771607398987
1732873720735186400,3.9041865234375,0.152105450630188,0.2376265823841095,-0.27550023794174194
1732873720745143800,3.914143798828125,0.1918116807937622,0.2382374405860901,-0.3677408695220947
1732873720755175400,3.924175537109375,0.23884831368923187,0.13805554807186127,-0.4966334402561188
1732873720765163500,3.93416357421875,0.28099802136421204,-0.03237585723400116,-0.5632177591323853
1732873720775164400,3.944164306640625,0.2987131178379059,-0.31459560990333557,-0.3072652220726013
1732873720785152300,3.95415234375,0.2791654169559479,-0.4178318381309509,0.12950342893600464
1732873720795183900,3.964183837890625,0.24984388053417206,-0.38667771220207214,0.6627888083457947
1732873720805141500,3.9741416015625,0.2571742534637451,-0.21135938167572021,1.156978726387024
1732873720815172900,3.9841728515625,0.2822197377681732,0.05803219974040985,1.5460999011993408
1732873720825161000,3.994160888671875,0.30054569244384766,0.37262779474258423,1.7690657377243042
1732873720835161300,4.004161376953125,0.3072652220726013,0.6383541822433472,1.7971655130386353
1732873720845150000,4.01414990234375,0.31642818450927734,0.8210029006004333,1.6218472719192505
1732873720855182300,4.024182373046875,0.34086281061172485,0.930347740650177,1.0286970138549805
1732873720865139000,4.034138916015625,0.3549126982688904,0.856433093547821,0.48808133602142334
1732873720875169500,4.04416943359375,0.3396410644054413,0.6212499737739563,-0.10751228034496307
1732873720885158400,4.054158447265625,0.2828305959701538,0.24495697021484375,-0.6969972252845764
1732873720895159800,4.064159912109375,0.20341812074184418,-0.2028072625398636,-1.197295904159546
1732873720905147400,4.0741474609375,0.12339477986097336,-0.6212499737739563,-1.5369369983673096
1732873720915179000,4.084178955078125,0.060475658625364304,-0.9132435321807861,-1.6682729721069336
1732873720925136600,4.09413671875,0.05619960278272629,-0.9419541954994202,-1.4966198205947876
1732873720935168300,4.104168212890625,0.13316862285137177,-0.7293730974197388,-1.205847978591919
1732873720945156000,4.114156005859375,0.2278527319431305,-0.39767327904701233,-0.8234463334083557
1732873720955187700,4.124187744140625,0.3121521472930908,-0.02932153269648552,-0.41233405470848083
1732873720965145000,4.13414501953125,0.37201693654060364,0.294437050819397,-0.054367005825042725
1732873720975175700,4.14417578125,0.4178318381309509,0.48319441080093384,0.16920967400074005
1732873720985164500,4.15416455078125,0.4282165467739105,0.5448917746543884,0.2577851414680481
1732873720995165200,4.164165283203125,0.3689626157283783,0.4508185386657715,0.1973094791173935
1732873721005153500,4.174153564453125,0.30543261766433716,0.2822197377681732,0.06719517707824707
1732873721015185000,4.184184814453125,0.22052235901355743,0.09773843735456467,-0.0806342139840126
1732873721025142800,4.194142822265625,0.13011430203914642,-0.08857546001672745,-0.2168571650981903
1732873721035174000,4.204173828125,0.0555887371301651,-0.24007004499435425,-0.3121521472930908
1732873721045162200,4.214162353515625,0.01710422709584236,-0.30543261766433716,-0.3378084897994995
1732873721055162400,4.224162353515625,0.02076941914856434,-0.2828305959701538,-0.2993239760398865
1732873721065151000,4.23415087890625,0.05375614017248154,-0.19486601650714874,-0.20830504596233368
1732873721075182800,4.244182861328125,0.10262536257505417,-0.02626720629632473,-0.01771509274840355
1732873721085140200,4.25414013671875,0.11789698898792267,0.07452555745840073,0.09773843735456467
1732873721095171600,4.264171630859375,0.12095131725072861,0.12400564551353455,0.17287486791610718
1732873721105159700,4.27415966796875,0.11239920556545258,0.1014036312699318,0.19792033731937408
1732873721115160800,4.284160888671875,0.09468411654233932,0.027488935738801956,0.18448130786418915
1732873721125149000,4.29414892578125,0.07147123664617538,-0.07208210229873657,0.1417207419872284
1732873721135180300,4.30418017578125,0.045204028487205505,-0.17348572611808777,0.09651670604944229
1732873721145137700,4.3141376953125,0.02076941914856434,-0.23273965716362,0.07391469180583954
1732873721155169300,4.324169189453125,0.025045474991202354,-0.1814269721508026,0.08918632566928864
1732873721165157000,4.3341572265625,0.03787364438176155,-0.1007927656173706,0.10262536257505417
1732873721175157800,4.34415771484375,0.07024950534105301,-0.012217304669320583,0.08918632566928864
1732873721185146400,4.354146484375,0.1007927656173706,0.06536258012056351,0.039095375686883926
1732873721195178000,4.364177978515625,0.11239920556545258,0.11667526513338089,-0.021991148591041565
1732873721205165800,4.374165771484375,0.11728613078594208,0.16310101747512817,-0.08979719132184982
1732873721215167000,4.3841669921875,0.08857546001672745,0.23273965716362,-0.19547687470912933
1732873721225154800,4.39415478515625,0.03420845419168472,0.21074850857257843,-0.2779437005519867
1732873721235186400,4.4041865234375,-0.02626720629632473,0.10323622822761536,-0.3628539443016052
1732873721245143800,4.414143798828125,-0.09896016865968704,-0.1111774742603302,-0.42088615894317627
1732873721255175400,4.424175537109375,-0.18387043476104736,-0.38667771220207214,-0.4080579876899719
1732873721265163300,4.434163330078125,-0.252287358045578,-0.6090326309204102,-0.32131510972976685
1732873721275164400,4.444164306640625,-0.2742784917354584,-0.6976081132888794,-0.20036379992961884
1732873721285152500,4.454152587890625,-0.25473082065582275,-0.6359107494354248,-0.11178833991289139
1732873721295184000,4.464183837890625,-0.20891591906547546,-0.39767327904701233,-0.05925392732024193
1732873721305141500,4.4741416015625,-0.20097467303276062,-0.23945917189121246,-0.042760565876960754
1732873721315171600,4.484171630859375,-0.2480112910270691,-0.13866640627384186,0.04703662544488907
1732873721325161000,4.494160888671875,-0.3445279896259308,-0.13561208546161652,0.2926044464111328
1732873721335162000,4.504162109375,-0.44837507605552673,-0.20341812074184418,0.6676757335662842
1732873721345150000,4.51414990234375,-0.5277875661849976,-0.2125810980796814,1.0684033632278442
1732873721355180300,4.52418017578125,-0.5723807215690613,-0.20341812074184418,1.433700680732727
1732873721365139000,4.534138916015625,-0.5864306092262268,-0.13377949595451355,1.7556266784667969
1732873721375169500,4.54416943359375,-0.5455026626586914,-0.03481931984424591,1.7348573207855225
1732873721385158400,4.554158447265625,-0.48869219422340393,0.09468411654233932,1.5173892974853516
1732873721395160600,4.56416064453125,-0.4349360466003418,0.23029619455337524,1.1331549882888794
1732873721405147400,4.5741474609375,-0.39645153284072876,0.34513887763023376,0.616973876953125
1732873721415180000,4.584179931640625,-0.3897320330142975,0.40683624148368835,0.02932153269648552
1732873721425136600,4.59413671875,-0.4294382631778717,0.34636059403419495,-0.5314527750015259
1732873721435168300,4.604168212890625,-0.5424483418464661,0.10201449692249298,-1.0677924156188965
1732873721445156000,4.614156005859375,-0.5760459303855896,-0.02626720629632473,-1.1789699792861938
1732873721455187700,4.624187744140625,-0.5900958180427551,-0.08674286305904388,-1.0946705341339111
1732873721465145000,4.63414501953125,-0.5919284224510193,-0.0861319974064827,-0.8552113175392151
1732873721475176700,4.6441767578125,-0.5711590051651001,-0.036651913076639175,-0.5442809462547302
1732873721485164500,4.65416455078125,-0.5119050741195679,0.05314527451992035,-0.23945917189121246
1732873721495166000,4.664166015625,-0.43249258399009705,0.15882496535778046,-0.01710422709584236
1732873721505153500,4.674153564453125,-0.38117989897727966,0.2217440903186798,0.09651670604944229
1732873721515185000,4.684184814453125,-0.34147366881370544,0.24129177629947662,0.09957103431224823
1732873721525142800,4.694142822265625,-0.33597588539123535,0.21013765037059784,0.04459316283464432
1732873721535174100,4.704174072265625,-0.33658674359321594,0.16004669666290283,-0.02871066704392433
1732873721545162500,4.71416259765625,-0.33292156457901,0.10751228034496307,-0.10751228034496307
1732873721555163000,4.724162841796875,-0.32131510972976685,0.07024950534105301,-0.17409659922122955
1732873721565151200,4.734151123046875,-0.2883284091949463,0.05253441259264946,-0.21563543379306793
1732873721575182300,4.744182373046875,-0.24617868661880493,0.05803219974040985,-0.23640485107898712
1732873721585140200,4.75414013671875,-0.16432274878025055,0.09773843735456467,-0.21135938167572021
1732873721595170800,4.7641708984375,-0.0959058403968811,0.13377949595451355,-0.17287486791610718
1732873721605159400,4.774159423828125,-0.04459316283464432,0.1618792861700058,-0.10751228034496307
1732873721615159800,4.784159912109375,-0.01771509274840355,0.17470745742321014,-0.0354301854968071
1732873721625148400,4.7941484375,-0.018325956538319588,0.16982053220272064,0.03298672288656235
1732873721635179300,4.80417919921875,-0.036651913076639175,0.1411098688840866,0.07757988572120667
1732873721645137200,4.81413720703125,-0.05925392732024193,0.10201449692249298,0.07941248267889023
1732873721655168300,4.824168212890625,-0.0806342139840126,0.015882495790719986,0.036651913076639175
1732873721665156900,4.834156982421875,-0.08979719132184982,-0.03237585723400116,-0.01038470957428217
1732873721675157500,4.844157470703125,-0.08307767659425735,-0.060475658625364304,-0.051312681287527084
1732873721685145900,4.854145751953125,-0.06536258012056351,-0.05192354694008827,-0.0708603709936142
1732873721695177500,4.864177490234375,-0.039095375686883926,-0.015882495790719986,-0.07147123664617538
1732873721705165800,4.874165771484375,-0.010995574295520782,0.04642575979232788,-0.05803219974040985
1732873721715166500,4.88416650390625,0.028099801391363144,0.1215621829032898,-0.05742133408784866
1732873721725154800,4.89415478515625,0.06536258012056351,0.16859880089759827,-0.060475658625364304
1732873721735186400,4.9041865234375,0.08002334833145142,0.1508837193250656,-0.06230825558304787
1732873721745143800,4.914143798828125,0.07147123664617538,0.1007927656173706,-0.06536258012056351
1732873721755175400,4.924175537109375,0.05253441259264946,0.03481931984424591,-0.05803219974040985
1732873721765163300,4.934163330078125,0.03237585723400116,-0.02687807008624077,-0.031154127791523933
1732873721775164400,4.944164306640625,0.02321287989616394,-0.06902777403593063,0.01160643994808197
1732873721785152300,4.95415234375,0.04153883829712868,-0.056810468435287476,0.08429940044879913
1732873721795183900,4.964183837890625,0.08979719132184982,0.030543262138962746,0.17409659922122955
1732873721805141500,4.9741416015625,0.18997909128665924,0.26572638750076294,0.2675589919090271
1732873721815172400,4.98417236328125,0.2480112910270691,0.4343251883983612,0.2541199326515198
1732873721825189400,4.994189453125,0.2889392673969269,0.5766568183898926,0.13805554807186127
1732873721835161900,5.004161865234375,0.2932153046131134,0.6585127115249634,-0.09468411654233932
1732873721845150000,5.01414990234375,0.27061331272125244,0.656069278717041,-0.40683624148368835
1732873721855181600,5.024181640625,0.2168571650981903,0.5125159621238708,-0.7257078886032104
1732873721865139000,5.034138916015625,0.11911872029304504,0.1612684279680252,-0.9621127843856812
1732873721875170600,5.044170654296875,-0.05803219974040985,-0.6414085030555725,-0.9321803450584412
1732873721885158400,5.054158447265625,-0.15821409225463867,-1.1203268766403198,-0.5442809462547302
1732873721895159800,5.064159912109375,-0.2070833146572113,-1.3622294664382935,0.12767083942890167
1732873721905147600,5.074147705078125,-0.2321287989616394,-1.3237450122833252,0.960280179977417
1732873721915179000,5.084178955078125,-0.1918116807937622,-1.027475357055664,1.7715091705322266
1732873721925136600,5.09413671875,-0.08674286305904388,-0.5742133259773254,2.394591808319092
1732873721935168300,5.104168212890625,0.04337143152952194,-0.09651670604944229,2.7256808280944824
1732873721945156000,5.114156005859375,0.17043140530586243,0.31520646810531616,2.7623326778411865
1732873721955186700,5.124186767578125,0.30115658044815063,0.7483099102973938,2.29746413230896
1732873721965145000,5.13414501953125,0.3341432809829712,0.8356636762619019,1.7018705606460571
1732873721975175400,5.144175537109375,0.31520646810531616,0.7648032903671265,0.9743300676345825
1732873721985164500,5.15416455078125,0.2583959996700287,0.5503895878791809,0.19792033731937408
1732873721995166700,5.164166748046875,0.182648703455925,0.23640485107898712,-0.513737678527832
1732873722005153500,5.174153564453125,0.11850785464048386,-0.10873401165008545,-1.086118459701538
1732873722015185200,5.18418505859375,0.06108652427792549,-0.41599923372268677,-1.513113260269165
1732873722025142500,5.194142578125,-0.02687807008624077,-0.7092145681381226,-1.8069393634796143
1732873722035174100,5.204174072265625,-0.07391469180583954,-0.7971791625022888,-1.7763961553573608
1732873722045162000,5.214161865234375,-0.11972958594560623,-0.79840087890625,-1.635897159576416
1732873722055163400,5.224163330078125,-0.17470745742321014,-0.7275404930114746,-1.4257594347000122
1732873722065151000,5.23415087890625,-0.21930062770843506,-0.59803706407547,-1.1844676733016968
1732873722075182800,5.244182861328125,-0.23335053026676178,-0.394008070230484,-0.9511171579360962
1732873722085140200,5.25414013671875,-0.22602014243602753,-0.12828169763088226,-0.7605272531509399
1732873722095171600,5.264171630859375,-0.23335053026676178,0.25961771607398987,-0.5552765130996704
1732873722105159700,5.27415966796875,-0.2632829248905182,0.44776421785354614,-0.47342056035995483
1732873722115160800,5.284160888671875,-0.3139847218990326,0.5540547966957092,-0.42210787534713745
1732873722125148700,5.294148681640625,-0.3842342495918274,0.5638286471366882,-0.384845107793808
1732873722135180500,5.3041806640625,-0.4599815309047699,0.485027015209198,-0.3488040566444397
1732873722145137700,5.3141376953125,-0.5283984541893005,0.3634648323059082,-0.3023782968521118
1732873722155169800,5.324169677734375,-0.5839871764183044,0.23518311977386475,-0.23457226157188416
1732873722165157000,5.3341572265625,-0.6334672570228577,0.12278391420841217,-0.12950342893600464
1732873722175158800,5.34415869140625,-0.6933320760726929,0.02015855349600315,0.08735372871160507
1732873722185146000,5.35414599609375,-0.7067710757255554,0.028099801391363144,0.23579397797584534
1732873722195178000,5.364177978515625,-0.7128797173500061,0.07330382615327835,0.36590829491615295
1732873722205165800,5.374165771484375,-0.7232644557952881,0.12461651116609573,0.4709770977497101
1732873722215167000,5.3841669921875,-0.7312057018280029,0.16065755486488342,0.5259549617767334
1732873722225154800,5.39415478515625,-0.7483099102973938,0.17348572611808777,0.5174028873443604
1732873722235186700,5.404186767578125,-0.778853178024292,0.1514945775270462,0.4550946056842804
1732873722245143800,5.414143798828125,-0.8442157506942749,0.08307767659425735,0.28588494658470154
1732873722255175700,5.42417578125,-0.9004153609275818,0.006108652334660292,0.15821409225463867
1732873722265163300,5.434163330078125,-0.9676105380058289,-0.10018189996480942,0.04153883829712868
1732873722275164700,5.44416455078125,-1.035416603088379,-0.20586158335208893,-0.04214970022439957
1732873722285152300,5.45415234375,-1.0897835493087769,-0.2840523421764374,-0.0806342139840126
1732873722295184100,5.46418408203125,-1.1343767642974854,-0.3323107063770294,-0.08429940044879913
1732873722305141500,5.4741416015625,-1.1722503900527954,-0.33047810196876526,-0.07696902006864548
1732873722315173000,5.484173095703125,-1.2223412990570068,-0.2583959996700287,-0.0910189226269722
1732873722325161000,5.494160888671875,-1.2418889999389648,-0.182648703455925,-0.12889257073402405
1732873722335162000,5.504162109375,-1.2571606636047363,-0.11362093687057495,-0.18631389737129211
1732873722345150000,5.51414990234375,-1.274264931678772,-0.07208210229873657,-0.24190263450145721
1732873722355181800,5.524181884765625,-1.2932016849517822,-0.05375614017248154,-0.28588494658470154
1732873722365139000,5.534138916015625,-1.3127493858337402,-0.04337143152952194,-0.3243694305419922
1732873722375170800,5.5441708984375,-1.3255776166915894,-0.02687807008624077,-0.3439171314239502
1732873722385158400,5.554158447265625,-1.3426817655563354,-0.009162978269159794,-0.34086281061172485
1732873722395159800,5.564159912109375,-1.3744467496871948,-0.00733038317412138,-0.31581732630729675
1732873722405147600,5.574147705078125,-1.4086552858352661,-0.04886921867728233,-0.27122417092323303
1732873722415179300,5.58417919921875,-1.4477506875991821,-0.11301007121801376,-0.21380282938480377
1732873722425136600,5.59413671875,-1.4892895221710205,-0.17959438264369965,-0.15882496535778046
1732873722435168300,5.604168212890625,-1.5277739763259888,-0.24373523890972137,-0.09896016865968704
1732873722445156000,5.614156005859375,-1.560760736465454,-0.2889392673969269,-0.04703662544488907
1732873722455188000,5.62418798828125,-1.5845844745635986,-0.29565876722335815,-0.021991148591041565
1732873722465145000,5.63414501953125,-1.5937473773956299,-0.23579397797584534,-0.021380282938480377
1732873722475177000,5.644177001953125,-1.5943583250045776,-0.1722639948129654,-0.05375614017248154
1732873722485164500,5.65416455078125,-1.5968017578125,-0.12095131725072861,-0.09834930300712585
1732873722495166000,5.664166015625,-1.6029103994369507,-0.10018189996480942,-0.1466076523065567
1732873722505153500,5.674153564453125,-1.6114624738693237,-0.10445795953273773,-0.2021963894367218
1732873722515185400,5.684185302734375,-1.616349458694458,-0.12889257073402405,-0.25595253705978394
1732873722525142800,5.694142822265625,-1.6145168542861938,-0.14294247329235077,-0.3029891550540924
1732873722535174400,5.70417431640625,-1.5974125862121582,-0.11911872029304504,-0.34574973583221436
1732873722545162200,5.714162353515625,-1.5894713401794434,-0.09773843735456467,-0.3494149148464203
1732873722555163600,5.72416357421875,-1.6016886234283447,-0.09896016865968704,-0.33292156457901
1732873722565151000,5.73415087890625,-1.6273449659347534,-0.14233160018920898,-0.2981022298336029
1732873722575183000,5.74418310546875,-1.6603317260742188,-0.22663100063800812,-0.2431243658065796
1732873722585140200,5.75414013671875,-1.6951510906219482,-0.33536502718925476,-0.16249015927314758
1732873722595171000,5.764171142578125,-1.709811806678772,-0.42638394236564636,-0.06536258012056351
1732873722605159400,5.774159423828125,-1.6945401430130005,-0.4715879559516907,0.04459316283464432
1732873722615160600,5.78416064453125,-1.6450600624084473,-0.44715335965156555,0.23884831368923187
1732873722625148200,5.794148193359375,-1.5943583250045776,-0.3781255781650543,0.35185837745666504
1732873722635180000,5.804179931640625,-1.5375478267669678,-0.2871066629886627,0.4349360466003418
1732873722645137200,5.81413720703125,-1.4758504629135132,-0.2021963894367218,0.48747047781944275
1732873722655169300,5.824169189453125,-1.4098769426345825,-0.12522737681865692,0.5174028873443604
1732873722665156900,5.834156982421875,-1.350012183189392,-0.06108652427792549,0.5314527750015259
1732873722675158300,5.844158203125,-1.3029755353927612,-0.0354301854968071,0.5302310585975647
1732873722685145900,5.854145751953125,-1.2486085891723633,-0.06291911751031876,0.47280970215797424
1732873722695178000,5.864177978515625,-1.2113457918167114,-0.11911872029304504,0.375071257352829
1732873722705165800,5.874165771484375,-1.1759155988693237,-0.1814269721508026,0.24495697021484375
1732873722715167000,5.8841669921875,-1.1362093687057495,-0.23640485107898712,0.09712757170200348
1732873722725154800,5.89415478515625,-1.0910053253173828,-0.25106561183929443,-0.05803219974040985
1732873722735186700,5.904186767578125,-1.036027431488037,-0.24068090319633484,-0.19303341209888458
1732873722745143800,5.914143798828125,-0.9920451641082764,-0.22052235901355743,-0.2926044464111328
1732873722755175700,5.92417578125,-0.9419541954994202,-0.14782938361167908,-0.3830125033855438
1732873722765163300,5.934163330078125,-0.9077457785606384,-0.08185594528913498,-0.4098905920982361
1732873722775165000,5.9441650390625,-0.8900306820869446,-0.05497787147760391,-0.413555771112442
1732873722785152300,5.95415234375,-0.8851437568664551,-0.07147123664617538,-0.40622538328170776
1732873722795184400,5.964184326171875,-0.8723155856132507,-0.13561208546161652,-0.40683624148368835
1732873722805141200,5.974141357421875,-0.8436049222946167,-0.2321287989616394,-0.42271876335144043
1732873722815173000,5.984173095703125,-0.8008443117141724,-0.33169981837272644,-0.42638394236564636
1732873722825161000,5.994160888671875,-0.7538077235221863,-0.38240164518356323,-0.3830125033855438
1732873722835162000,6.004162109375,-0.6823364496231079,-0.3017674386501312,-0.18509216606616974
1732873722845150000,6.01414990234375,-0.6505714654922485,-0.1918116807937622,0.024434609338641167
1732873722855181800,6.024181884765625,-0.6218608021736145,-0.08491026610136032,0.24068090319633484
1732873722865139000,6.034138916015625,-0.5827654600143433,0.0024434609804302454,0.3952298164367676
1732873722875170800,6.0441708984375,-0.5338962078094482,0.07757988572120667,0.46303585171699524
1732873722885158400,6.054158447265625,-0.4801400899887085,0.13072516024112701,0.46364670991897583
1732873722895159300,6.0641591796875,-0.4355469346046448,0.1612684279680252,0.423329621553421
1732873722905147600,6.074147705078125,-0.384845107793808,0.17104226350784302,0.33597588539123535
1732873722915178800,6.0841787109375,-0.35613444447517395,0.15760323405265808,0.27977627515792847
1732873722925136600,6.09413671875,-0.33108896017074585,0.1362229436635971,0.23396138846874237
1732873722935168000,6.10416796875,-0.31031954288482666,0.09651670604944229,0.19547687470912933
1732873722945156000,6.114156005859375,-0.2828305959701538,0.060475658625364304,0.14844025671482086
1732873722955187200,6.124187255859375,-0.2565633952617645,0.039095375686883926,0.09346238523721695
1732873722965145000,6.13414501953125,-0.22907446324825287,0.02871066704392433,0.03176499158143997
1732873722975176200,6.14417626953125,-0.18387043476104736,0.009162978269159794,-0.05192354694008827
1732873722985164500,6.15416455078125,-0.1514945775270462,-0.015271631069481373,-0.09346238523721695
1732873722995165200,6.164165283203125,-0.1258382350206375,-0.05864306539297104,-0.11728613078594208
1732873723005153500,6.174153564453125,-0.10445795953273773,-0.10812314599752426,-0.12034045159816742
1732873723015185400,6.184185302734375,-0.09285151958465576,-0.14905111491680145,-0.1007927656173706
1732873723025142800,6.194142822265625,-0.08429940044879913,-0.16859880089759827,-0.06291911751031876
1732873723035173400,6.20417333984375,-0.07147123664617538,-0.14538592100143433,-0.02382374368607998
1732873723045162200,6.214162353515625,-0.05925392732024193,-0.09773843735456467,0.009773843921720982
1732873723055162600,6.22416259765625,-0.02687807008624077,0.00733038317412138,0.02321287989616394
1732873723065151000,6.23415087890625,-0.0012217304902151227,0.07819075137376785,0.0006108652451075613
1732873723075182600,6.2441826171875,0.018936822190880775,0.1215621829032898,-0.03726277872920036
1732873723085140200,6.25414013671875,0.04092797264456749,0.14538592100143433,-0.09346238523721695
1732873723095171000,6.264171142578125,0.07208210229873657,0.1264491081237793,-0.15577064454555511
1732873723105159700,6.27415966796875,0.09224065393209457,0.07330382615327835,-0.20952677726745605
1732873723115160300,6.284160400390625,0.09346238523721695,0.006719517521560192,-0.23518311977386475
1732873723125148700,6.294148681640625,0.08124507963657379,-0.0959058403968811,-0.19120082259178162
1732873723135179500,6.304179443359375,0.06658431142568588,-0.13927727937698364,-0.11484266817569733
1732873723145137700,6.3141376953125,0.04764748737215996,-0.15882496535778046,-0.024434609338641167
1732873723155168500,6.32416845703125,0.03726277872920036,-0.13744467496871948,0.031154127791523933
1732873723165157000,6.3341572265625,0.03726277872920036,-0.08674286305904388,0.01710422709584236
1732873723175157800,6.34415771484375,0.02871066704392433,-0.05375614017248154,-0.04581489413976669
1732873723185146400,6.354146484375,0.01771509274840355,-0.048258353024721146,-0.12034045159816742
1732873723195177500,6.364177490234375,0.02932153269648552,-0.02871066704392433,-0.2064724564552307
1732873723205165800,6.374165771484375,0.042760565876960754,-0.01038470957428217,-0.21135938167572021
1732873723215166700,6.384166748046875,0.04581489413976669,-0.003054326167330146,-0.16737708449363708
1732873723225154800,6.39415478515625,0.04581489413976669,0.00427605677396059,-0.09651670604944229
1732873723235185700,6.404185546875,0.048258353024721146,0.01710422709584236,-0.019547687843441963
1732873723245143800,6.414143798828125,0.054367005825042725,0.03298672288656235,0.048258353024721146
1732873723255174700,6.424174560546875,0.05925392732024193,0.0507018156349659,0.11178833991289139
1732873723265163300,6.434163330078125,0.056810468435287476,0.08552113175392151,0.1612684279680252
1732873723275164000,6.444163818359375,0.0659734457731247,0.15271630883216858,0.20952677726745605
1732873723285152500,6.454152587890625,0.08307767659425735,0.1966986060142517,0.23273965716362
1732873723295183400,6.464183349609375,0.09896016865968704,0.2217440903186798,0.26083946228027344
1732873723305141200,6.474141357421875,0.11484266817569733,0.24434609711170197,0.2840523421764374
1732873723315172600,6.484172607421875,0.1319468915462494,0.2565633952617645,0.2926044464111328
1732873723325161000,6.494160888671875,0.15454891324043274,0.24068090319633484,0.28649580478668213
1732873723335161300,6.504161376953125,0.1765400618314743,0.20341812074184418,0.26145032048225403
1732873723345150000,6.51414990234375,0.2070833146572113,0.13439035415649414,0.2321287989616394
1732873723355181000,6.52418115234375,0.242513507604599,0.10567969083786011,0.2174680233001709
1732873723365139000,6.534138916015625,0.28038713335990906,0.09040805697441101,0.21930062770843506
1732873723375170000,6.544170166015625,0.32070425152778625,0.08552113175392151,0.24556782841682434
1732873723385158400,6.554158447265625,0.36529740691185,0.09162978827953339,0.2871066629886627
1732873723395159300,6.5641591796875,0.4056145250797272,0.11362093687057495,0.3194825351238251
1732873723405147600,6.574147705078125,0.4337143301963806,0.15577064454555511,0.31581732630729675
1732873723415178800,6.5841787109375,0.48197266459465027,0.21074850857257843,0.20402899384498596
1732873723425136600,6.59413671875,0.50335294008255,0.242513507604599,0.04948008432984352
1732873723435167700,6.604167724609375,0.5161811113357544,0.25106561183929443,-0.18936823308467865
1732873723445156000,6.614156005859375,0.5198463201522827,0.24678955972194672,-0.5290092825889587
1732873723455187700,6.624187744140625,0.5210680365562439,0.24556782841682434,-0.9578366875648499
1732873723465145000,6.63414501953125,0.5302310585975647,0.20586158335208893,-1.3781119585037231
1732873723475176700,6.6441767578125,0.4948008358478546,0.01710422709584236,-1.6365079879760742
1732873723485164500,6.65416455078125,0.394008070230484,-0.34758231043815613,-1.6108516454696655
1732873723495165700,6.664165771484375,0.21319197118282318,-0.9419541954994202,-0.960280179977417
1732873723505153500,6.674153564453125,0.15332718193531036,-1.1362093687057495,-0.2431243658065796
1732873723515185200,6.68418505859375,0.15943582355976105,-1.0421360731124878,0.5100724697113037
1732873723525142800,6.694142822265625,0.22907446324825287,-0.685390830039978,1.1691961288452148
1732873723535174400,6.70417431640625,0.36529740691185,-0.18631389737129211,1.6450600624084473
1732873723545162500,6.71416259765625,0.5112941861152649,0.32498031854629517,1.880243182182312
1732873723555163400,6.724163330078125,0.6212499737739563,0.7629706859588623,1.8710802793502808
1732873723565151000,6.73415087890625,0.6487388610839844,1.187522053718567,1.540602207183838
1732873723575181600,6.744181640625,0.5962044596672058,1.2889256477355957,1.254717230796814
1732873723585140200,6.75414013671875,0.5296201705932617,1.2779301404953003,0.9841039180755615
1732873723595169800,6.764169677734375,0.46242499351501465,1.1520918607711792,0.7379252314567566
1732873723605159400,6.774159423828125,0.38240164518356323,0.8827002644538879,0.5149593949317932
1732873723615159300,6.7841591796875,0.2919935882091522,0.485027015209198,0.29504790902137756
1732873723625148400,6.7941484375,0.2321287989616394,0.03787364438176155,0.04092797264456749
1732873723635178800,6.8041787109375,0.21624629199504852,-0.5351179838180542,-0.4544837474822998
1732873723645137200,6.81413720703125,0.22907446324825287,-0.759916365146637,-0.788627028465271
1732873723655168300,6.824168212890625,0.2681698501110077,-0.8100073337554932,-1.0482447147369385
1732873723665156900,6.834156982421875,0.32009339332580566,-0.7220427393913269,-1.2021827697753906
1732873723675157800,6.84415771484375,0.35674530267715454,-0.5815436840057373,-1.2370021343231201
1732873723685145900,6.854145751953125,0.3878994286060333,-0.4331034719944,-1.1734721660614014
1732873723695177700,6.864177734375,0.42149701714515686,-0.2736676335334778,-1.0458012819290161
1732873723705165800,6.874165771484375,0.45875978469848633,-0.12767083942890167,-0.8735373020172119
1732873723715167000,6.8841669921875,0.4948008358478546,0.024434609338641167,-0.5797111392021179
1732873723725154800,6.89415478515625,0.50335294008255,0.08307767659425735,-0.39767327904701233
1732873723735186700,6.904186767578125,0.4954117238521576,0.11301007121801376,-0.24556782841682434
1732873723745143800,6.914143798828125,0.4703662395477295,0.09712757170200348,-0.13500121235847473
1732873723755175000,6.9241748046875,0.4398229718208313,0.039706241339445114,-0.06902777403593063
1732873723765163300,6.934163330078125,0.4141666293144226,-0.033597588539123535,-0.051312681287527084
1732873723775164400,6.944164306640625,0.39645153284072876,-0.10567969083786011,-0.059864792972803116
1732873723785152500,6.954152587890625,0.37079519033432007,-0.1661553531885147,-0.08491026610136032
1732873723795183600,6.96418359375,0.35063666105270386,-0.17104226350784302,-0.09773843735456467
1732873723805141500,6.9741416015625,0.33108896017074585,-0.15271630883216858,-0.10873401165008545
1732873723815172600,6.984172607421875,0.31642818450927734,-0.11911872029304504,-0.10873401165008545
1732873723825189400,6.994189453125,0.304210901260376,-0.06780604273080826,-0.09285151958465576
1732873723835162000,7.004162109375,0.2926044464111328,-0.02932153269648552,-0.054367005825042725
1732873723845150000,7.01414990234375,0.2736676335334778,-0.010995574295520782,0.015271631069481373
1732873723855181800,7.024181884765625,0.251676470041275,0.010995574295520782,0.14782938361167908
1732873723865139000,7.034138916015625,0.24678955972194672,0.04886921867728233,0.23884831368923187
1732873723875170800,7.0441708984375,0.2382374405860901,0.10812314599752426,0.3225368559360504
1732873723885158400,7.054158447265625,0.2382374405860901,0.19120082259178162,0.394618958234787
1732873723895159000,7.064158935546875,0.25595253705978394,0.31093040108680725,0.4538728892803192
1732873723905147600,7.074147705078125,0.2871066629886627,0.455705463886261,0.5015203952789307
1732873723915179000,7.084178955078125,0.3274237811565399,0.6126978397369385,0.5485569834709167
1732873723925136600,7.09413671875,0.3677408695220947,0.7666358947753906,0.59803706407547
1732873723935168300,7.104168212890625,0.3927863538265228,0.9230173826217651,0.6615670323371887
1732873723945156000,7.114156005859375,0.3549126982688904,0.940121591091156,0.6279694437980652
1732873723955187700,7.124187744140625,0.25534167885780334,0.8735373020172119,0.5143485069274902
1732873723965145000,7.13414501953125,0.10690141469240189,0.6768386960029602,0.3439171314239502
1732873723975176200,7.14417626953125,-0.06658431142568588,0.3378084897994995,0.15027284622192383
1732873723985164500,7.15416455078125,-0.22418753802776337,-0.0959058403968811,-0.03176499158143997
1732873723995165200,7.164165283203125,-0.34513887763023376,-0.5375614166259766,-0.16493362188339233
1732873724005153500,7.174153564453125,-0.41111230850219727,-0.8827002644538879,-0.28649580478668213
1732873724015185200,7.18418505859375,-0.4001167416572571,-0.9138544201850891,-0.3378084897994995
1732873724025142800,7.194142822265625,-0.3439171314239502,-0.8381071090698242,-0.3891211748123169
1732873724035174400,7.20417431640625,-0.27977627515792847,-0.7104362845420837,-0.41233405470848083
1732873724045162200,7.214162353515625,-0.24862214922904968,-0.5913175344467163,-0.3390302062034607
1732873724055163100,7.2241630859375,-0.29138273000717163,-0.5583308339118958,-0.07330382615327835
1732873724065151200,7.234151123046875,-0.38117989897727966,-0.5876523852348328,0.38728857040405273
1732873724075182800,7.244182861328125,-0.4398229718208313,-0.5619960427284241,1.1728612184524536
1732873724085140200,7.25414013671875,-0.4386012554168701,-0.49785518646240234,1.5809192657470703
1732873724095171800,7.264171875,-0.42149701714515686,-0.4398229718208313,1.8038851022720337
1732873724105159700,7.27415966796875,-0.3830125033855438,-0.4129449129104614,1.813048005104065
1732873724115162400,7.284162353515625,-0.3433062732219696,-0.37140607833862305,1.5937473773956299
1732873724125148700,7.294148681640625,-0.29077184200286865,-0.33658674359321594,1.1917980909347534
1732873724135181300,7.304181396484375,-0.23396138846874237,-0.2687807083129883,0.675616979598999
1732873724145137700,7.3141376953125,-0.19914206862449646,-0.17776179313659668,0.1111774742603302
1732873724155168300,7.324168212890625,-0.2278527319431305,-0.09957103431224823,-0.6597344875335693
1732873724165157000,7.3341572265625,-0.2767219543457031,-0.16554448008537292,-1.0115928649902344
1732873724175158300,7.344158203125,-0.32009339332580566,-0.2730567753314972,-1.2064588069915771
1732873724185146000,7.35414599609375,-0.34758231043815613,-0.34147366881370544,-1.2498302459716797
1732873724195177700,7.364177734375,-0.3646865487098694,-0.3903428912162781,-1.1435397863388062
1732873724205165800,7.374165771484375,-0.3689626157283783,-0.41599923372268677,-0.9480628371238708
1732873724215167000,7.3841669921875,-0.36529740691185,-0.39767327904701233,-0.7287622094154358
1732873724225154800,7.39415478515625,-0.34086281061172485,-0.26083946228027344,-0.4495968222618103
1732873724235186400,7.4041865234375,-0.3139847218990326,-0.12034045159816742,-0.3341432809829712
1732873724245143800,7.414143798828125,-0.2791654169559479,0.0403171069920063,-0.2638937830924988
1732873724255174700,7.424174560546875,-0.24678955972194672,0.18509216606616974,-0.21013765037059784
1732873724265163300,7.434163330078125,-0.21991148591041565,0.294437050819397,-0.15821409225463867
1732873724275164200,7.4441640625,-0.19425514340400696,0.39095374941825867,-0.10873401165008545
1732873724285152500,7.454152587890625,-0.17531833052635193,0.45875978469848633,-0.059864792972803116
1732873724295183600,7.46418359375,-0.15821409225463867,0.5021312236785889,-0.010995574295520782
1732873724305141500,7.4741416015625,-0.16432274878025055,0.4948008358478546,0.010995574295520782
1732873724315172600,7.484172607421875,-0.16737708449363708,0.4612032473087311,0.025656340643763542
1732873724325161000,7.494160888671875,-0.17287486791610718,0.40683624148368835,0.042760565876960754
1732873724335161600,7.50416162109375,-0.18570303916931152,0.3170390725135803,0.06902777403593063
1732873724345150200,7.514150146484375,-0.20463985204696655,0.20891591906547546,0.09407325088977814
1732873724355181000,7.52418115234375,-0.22296582162380219,0.1007927656173706,0.09957103431224823
1732873724365139000,7.534138916015625,-0.23335053026676178,-0.009162978269159794,0.09651670604944229
1732873724375170000,7.544170166015625,-0.2474004179239273,-0.1514945775270462,0.11545353382825851
1732873724385158400,7.554158447265625,-0.26022860407829285,-0.2321287989616394,0.14782938361167908
1732873724395159000,7.564158935546875,-0.27550023794174194,-0.304210901260376,0.19120082259178162
1732873724405147400,7.5741474609375,-0.2883284091949463,-0.36102136969566345,0.24068090319633484
1732873724415178800,7.5841787109375,-0.2877175211906433,-0.37140607833862305,0.2718350291252136
1732873724425136600,7.59413671875,-0.2736676335334778,-0.31031954288482666,0.2791654169559479
1732873724435167700,7.604167724609375,-0.25045475363731384,-0.19303341209888458,0.2590068578720093
1732873724445156000,7.614156005859375,-0.20097467303276062,0.05192354694008827,0.15027284622192383
1732873724455187200,7.624187255859375,-0.1466076523065567,0.21624629199504852,0.02015855349600315
1732873724465145000,7.63414501953125,-0.08857546001672745,0.323147714138031,-0.14905111491680145
1732873724475176200,7.64417626953125,-0.036651913076639175,0.3488040566444397,-0.34147366881370544
1732873724485164500,7.65416455078125,0.0006108652451075613,0.30970868468284607,-0.5222898125648499
1732873724495165200,7.664165283203125,0.025656340643763542,0.23335053026676178,-0.6786713004112244
1732873724505153500,7.674153564453125,0.021991148591041565,0.12339477986097336,-0.7867944240570068
1732873724515185200,7.68418505859375,-0.05497787147760391,-0.04581489413976669,-0.8423831462860107
1732873724525142800,7.694142822265625,-0.10384709388017654,-0.1111774742603302,-0.8234463334083557
1732873724535174100,7.704174072265625,-0.11362093687057495,-0.12522737681865692,-0.79840087890625
1732873724545162200,7.714162353515625,-0.06291911751031876,-0.09346238523721695,-0.7929030656814575
1732873724555161900,7.724161865234375,0.03726277872920036,-0.05742133408784866,-0.8161159753799438
1732873724565151200,7.734151123046875,0.2119702398777008,-0.06902777403593063,-0.8051204085350037
1732873724575182800,7.744182861328125,0.39584067463874817,-0.18020524084568024,-0.6884451508522034
1732873724585140200,7.75414013671875,0.43676865100860596,-0.37690386176109314,-0.4239404797554016
1732873724595171000,7.764171142578125,0.25534167885780334,-0.6163630485534668,0.22052235901355743
1732873724605159400,7.774159423828125,0.13255776464939117,-0.5522221922874451,0.7367035150527954
1732873724615160600,7.78416064453125,0.06963863968849182,-0.25961771607398987,1.238223910331726
1732873724625148200,7.794148193359375,0.0507018156349659,0.23273965716362,1.643227458000183
1732873724635178800,7.8041787109375,0.07696902006864548,0.7855727076530457,1.880243182182312
1732873724645137200,7.81413720703125,0.16371189057826996,1.3096951246261597,1.8942930698394775
1732873724655167700,7.824167724609375,0.28527405858039856,1.6872098445892334,1.6560556888580322
1732873724665156900,7.834156982421875,0.46181413531303406,1.7776178121566772,0.8497135639190674
1732873724675159000,7.844158935546875,0.5161811113357544,1.4666874408721924,0.11789698898792267
1732873724685145900,7.854145751953125,0.4642575979232788,0.8949176073074341,-0.5742133259773254
1732873724695176400,7.864176513671875,0.34208452701568604,0.17104226350784302,-1.0641272068023682
1732873724705165800,7.874165771484375,0.21868975460529327,-0.49357911944389343,-1.3237450122833252
1732873724715166700,7.884166748046875,0.1258382350206375,-0.9156870245933533,-1.3744467496871948
1732873724725154800,7.89415478515625,0.08735372871160507,-1.0739010572433472,-1.2504411935806274
1732873724735186400,7.9041865234375,0.12034045159816742,-1.0036516189575195,-0.8448266386985779
1732873724745143800,7.914143798828125,0.17959438264369965,-0.8313875794410706,-0.5369505286216736
1732873724755175400,7.924175537109375,0.24862214922904968,-0.6053674817085266,-0.2590068578720093
1732873724765163300,7.934163330078125,0.3127630054950714,-0.375071257352829,-0.02687807008624077
1732873724775164000,7.944163818359375,0.3640756905078888,-0.16554448008537292,0.14233160018920898
1732873724785152300,7.95415234375,0.39767327904701233,-0.012217304669320583,0.2370157092809677
1732873724795183600,7.96418359375,0.40683624148368835,0.06536258012056351,0.24495697021484375
1732873724805141200,7.974141357421875,0.38606682419776917,0.06963863968849182,0.1765400618314743
1732873724815172600,7.984172607421875,0.30604347586631775,-0.04948008432984352,-0.012217304669320583
1732873724825161000,7.994160888671875,0.22968533635139465,-0.19303341209888458,-0.16310101747512817
1732873724835161600,8.00416162109375,0.1661553531885147,-0.34513887763023376,-0.31520646810531616
1732873724845150000,8.01414990234375,0.1264491081237793,-0.46242499351501465,-0.45204028487205505
1732873724855181600,8.024181640625,0.1014036312699318,-0.5271766781806946,-0.5540547966957092
1732873724865139000,8.034138916015625,0.07269296050071716,-0.5644394755363464,-0.5858197808265686
1732873724875170800,8.0441708984375,0.05375614017248154,-0.5638286471366882,-0.5510004758834839
1732873724885158400,8.054158447265625,0.048258353024721146,-0.45326200127601624,-0.3982841372489929
1732873724895159600,8.06415966796875,0.05009094998240471,-0.3243694305419922,-0.22479841113090515
1732873724905147600,8.074147705078126,0.060475658625364304,-0.17409659922122955,-0.024434609338641167
1732873724915179000,8.084178955078125,0.07513642311096191,-0.00733038317412138,0.15577064454555511
1732873724925136600,8.09413671875,0.08246681094169617,0.14966198801994324,0.2871066629886627
1732873724935167500,8.10416748046875,0.08674286305904388,0.2736676335334778,0.34697145223617554
1732873724945156000,8.114156005859375,0.09162978827953339,0.34758231043815613,0.3335324227809906
1732873724955186700,8.124186767578125,0.09773843735456467,0.34208452701568604,0.1820378452539444
1732873724965145000,8.13414501953125,0.09896016865968704,0.2932153046131134,0.02015855349600315
1732873724975176000,8.144176025390625,0.09224065393209457,0.2370157092809677,-0.16004669666290283
1732873724985164500,8.15416455078125,0.06719517707824707,0.20036379992961884,-0.3292563557624817
1732873724995165400,8.16416552734375,0.04153883829712868,0.192422553896904,-0.47769662737846375
1732873725005153500,8.174153564453125,0.00733038317412138,0.192422553896904,-0.5962044596672058
1732873725015185200,8.18418505859375,-0.03726277872920036,0.16432274878025055,-0.6866125464439392
1732873725025142800,8.194142822265626,-0.09712757170200348,0.09162978827953339,-0.7367035150527954
1732873725035174100,8.204174072265625,-0.2125810980796814,-0.12461651116609573,-0.6774495840072632
1732873725045162200,8.214162353515626,-0.28588494658470154,-0.303600013256073,-0.543059229850769
1732873725055163100,8.2241630859375,-0.32131510972976685,-0.43737950921058655,-0.3597996234893799
1732873725065151000,8.23415087890625,-0.25534167885780334,-0.4856378734111786,-0.1667662113904953
1732873725075182800,8.244182861328126,-0.12400564551353455,-0.3481931984424591,-0.024434609338641167
1732873725085140200,8.25414013671875,0.021380282938480377,-0.09468411654233932,0.08552113175392151
1732873725095171000,8.264171142578125,0.10751228034496307,0.14355333149433136,0.19853121042251587
1732873725105159700,8.27415966796875,0.029932396486401558,0.342695415019989,0.42271876335144043
1732873725115159600,8.28415966796875,-0.13561208546161652,0.33536502718925476,0.6542366743087769
1732873725125148700,8.294148681640625,-0.30543261766433716,0.242513507604599,0.941343367099762
1732873725135180300,8.30418017578125,-0.4184426963329315,0.14782938361167908,1.2278391122817993
1732873725145137700,8.3141376953125,-0.45753806829452515,0.08368854224681854,1.4624114036560059
1732873725155169500,8.32416943359375,-0.44654250144958496,0.02871066704392433,1.578475832939148
1732873725165157000,8.3341572265625,-0.403781920671463,0.018325956538319588,1.5063936710357666
1732873725175157200,8.3441572265625,-0.3280346393585205,0.07269296050071716,1.0610729455947876
1732873725185146000,8.35414599609375,-0.27550023794174194,0.12889257073402405,0.59803706407547
1732873725195176700,8.3641767578125,-0.2480112910270691,0.18081611394882202,0.06963863968849182
1732873725205165800,8.374165771484375,-0.2681698501110077,0.16249015927314758,-0.4306600093841553
1732873725215165700,8.384165771484374,-0.33597588539123535,0.05803219974040985,-0.79840087890625
1732873725225154800,8.39415478515625,-0.4349360466003418,-0.1661553531885147,-0.9938777685165405
1732873725235186400,8.4041865234375,-0.5296201705932617,-0.31093040108680725,-1.0317513942718506
1732873725245143800,8.414143798828125,-0.5833762884140015,-0.4080579876899719,-0.9175195693969727
1732873725255175400,8.424175537109376,-0.6133087277412415,-0.4453207552433014,-0.5393940210342407
1732873725265163300,8.434163330078125,-0.5778785347938538,-0.4153883755207062,-0.2730567753314972
1732873725275165000,8.4441650390625,-0.5210680365562439,-0.3683517575263977,-0.07819075137376785
1732873725285152300,8.45415234375,-0.46547931432724,-0.313373863697052,0.016493361443281174
1732873725295183400,8.464183349609375,-0.4331034719944,-0.23579397797584534,0.03237585723400116
1732873725305141500,8.4741416015625,-0.41599923372268677,-0.14233160018920898,0.005497787147760391
1732873725315172600,8.484172607421876,-0.40622538328170776,-0.039095375686883926,-0.03726277872920036
1732873725325161000,8.494160888671875,-0.40622538328170776,0.11178833991289139,-0.06352998316287994
1732873725335161300,8.504161376953125,-0.4196644127368927,0.17287486791610718,-0.07391469180583954
1732873725345150200,8.514150146484376,-0.4202753007411957,0.2028072625398636,-0.10018189996480942
1732873725355181300,8.524181396484375,-0.39156460762023926,0.2070833146572113,-0.13439035415649414
1732873725365139000,8.534138916015625,-0.33108896017074585,0.20586158335208893,-0.1771509200334549
1732873725375170300,8.54417041015625,-0.24617868661880493,0.2174680233001709,-0.2064724564552307
1732873725385158400,8.554158447265625,-0.1612684279680252,0.24495697021484375,-0.2064724564552307
1732873725395159800,8.564159912109375,-0.0659734457731247,0.3170390725135803,-0.1514945775270462
1732873725405147600,8.574147705078126,-0.018325956538319588,0.37262779474258423,-0.08368854224681854
1732873725415179000,8.584178955078125,0.014049900695681572,0.4098905920982361,0.006108652334660292
1732873725425136600,8.59413671875,0.05619960278272629,0.37262779474258423,0.10934487730264664
1732873725435168300,8.604168212890626,0.0959058403968811,0.3378084897994995,0.2125810980796814
1732873725445156000,8.614156005859375,0.1368338167667389,0.34513887763023376,0.2791654169559479
1732873725455187000,8.62418701171875,0.19058994948863983,0.32009339332580566,0.32620203495025635
1732873725465145000,8.63414501953125,0.24129177629947662,0.30604347586631775,0.3194825351238251
1732873725475176000,8.644176025390625,0.2620611786842346,0.23457226157188416,0.18081611394882202
1732873725485164500,8.65416455078125,0.26083946228027344,0.152105450630188,0.028099801391363144
1732873725495166200,8.664166259765626,0.2590068578720093,0.05375614017248154,-0.1508837193250656
1732873725505153500,8.674153564453125,0.26022860407829285,-0.03237585723400116,-0.3243694305419922
1732873725515185400,8.684185302734376,0.25595253705978394,-0.12034045159816742,-0.4550946056842804
1732873725525142800,8.694142822265626,0.24129177629947662,-0.19425514340400696,-0.5345070958137512
1732873725535174400,8.70417431640625,0.2119702398777008,-0.2638937830924988,-0.5326744914054871
1732873725545162200,8.714162353515626,0.15454891324043274,-0.3677408695220947,-0.3995058834552765
1732873725555163400,8.724163330078126,0.1270599663257599,-0.41111230850219727,-0.25595253705978394
1732873725565151000,8.73415087890625,0.11545353382825851,-0.423329621553421,-0.10751228034496307
1732873725575183000,8.74418310546875,0.11301007121801376,-0.39584067463874817,0.027488935738801956
1732873725585140200,8.75414013671875,0.11301007121801376,-0.31459560990333557,0.12278391420841217
1732873725595171000,8.764171142578125,0.1258382350206375,-0.18020524084568024,0.15027284622192383
1732873725605159400,8.774159423828126,0.1771509200334549,-0.015271631069481373,0.05742133408784866
1732873725615160600,8.78416064453125,0.31520646810531616,0.3017674386501312,-0.27550023794174194
1732873725625148400,8.7941484375,0.38240164518356323,0.49296826124191284,-0.4605923891067505
1732873725635180000,8.804179931640626,0.3732386529445648,0.5613851547241211,-0.484416127204895
1732873725645137200,8.81413720703125,0.29565876722335815,0.4337143301963806,-0.3182607889175415
1732873725655168800,8.824168701171875,0.1569923609495163,0.16859880089759827,0.022602014243602753
1732873725665156900,8.834156982421876,0.010995574295520782,-0.15821409225463867,0.4599815309047699
1732873725675157800,8.84415771484375,-0.07330382615327835,-0.4196644127368927,0.8930850028991699
1732873725685145900,8.854145751953125,-0.10934487730264664,-0.5057964324951172,1.253495454788208
1732873725695178000,8.864177978515626,-0.10995574295520782,-0.27122417092323303,1.5827518701553345
1732873725705165800,8.874165771484375,-0.12767083942890167,0.001832595793530345,1.635897159576416
1732873725715165400,8.88416552734375,-0.13011430203914642,0.26511552929878235,1.5460999011993408
1732873725725154800,8.89415478515625,-0.07452555745840073,0.49724429845809937,1.291369080543518
1732873725735187500,8.9041875,0.036651913076639175,0.6065891981124878,0.9034696817398071
1732873725745143800,8.914143798828125,0.18509216606616974,0.5558874011039734,0.44654250144958496
1732873725755176200,8.92417626953125,0.342695415019989,0.38606682419776917,-0.022602014243602753
1732873725765163500,8.93416357421875,0.5320636034011841,0.01038470957428217,-0.6023131608963013
1732873725775163400,8.944163330078124,0.6188064813613892,-0.24862214922904968,-0.8234463334083557
1732873725785152500,8.954152587890626,0.6591235995292664,-0.48808133602142334,-0.9040805697441101
1732873725795184000,8.96418408203125,0.6572909951210022,-0.6383541822433472,-0.8869763612747192
1732873725805141200,8.974141357421875,0.6340781450271606,-0.645684540271759,-0.8038986921310425
1732873725815173000,8.984173095703126,0.618195652961731,-0.5461135506629944,-0.6774495840072632
1732873725825187300,8.994187255859375,0.6004805564880371,-0.39156460762023926,-0.5314527750015259
1732873725835162000,9.004162109375,0.5308418869972229,-0.192422553896904,-0.3500257730484009
1732873725845150000,9.01414990234375,0.4715879559516907,-0.1362229436635971,-0.2877175211906433
1732873725855181800,9.024181884765625,0.42699480056762695,-0.13561208546161652,-0.2840523421764374
1732873725865139200,9.03413916015625,0.40194934606552124,-0.1716531366109848,-0.32620203495025635
1732873725875170000,9.044170166015626,0.4050036668777466,-0.2730567753314972,-0.38117989897727966
1732873725885158400,9.054158447265625,0.4190535545349121,-0.3396410644054413,-0.41599923372268677
1732873725895158800,9.06415869140625,0.43249258399009705,-0.3579670190811157,-0.4001167416572571
1732873725905147600,9.074147705078126,0.4447098970413208,-0.32681289315223694,-0.3378084897994995
1732873725915179300,9.08417919921875,0.4300491213798523,-0.17898350954055786,-0.19792033731937408
1732873725925136600,9.09413671875,0.41722095012664795,-0.06658431142568588,-0.11545353382825851
1732873725935168300,9.104168212890626,0.394618958234787,0.05375614017248154,-0.05925392732024193
1732873725945156000,9.114156005859375,0.36163222789764404,0.19425514340400696,-0.021991148591041565
1732873725955188000,9.12418798828125,0.30115658044815063,0.3084869384765625,0.02687807008624077
1732873725965145000,9.13414501953125,0.21013765037059784,0.37140607833862305,0.09346238523721695
1732873725975176700,9.1441767578125,0.09529497474431992,0.37201693654060364,0.17898350954055786
1732873725985164500,9.15416455078125,0.04398229718208313,0.2431243658065796,0.33047810196876526
1732873725995165700,9.164165771484376,0.03176499158143997,0.21319197118282318,0.4098905920982361
1732873726005153500,9.174153564453125,0.014049900695681572,0.1514945775270462,0.44837507605552673
1732873726015184600,9.1841845703125,0.033597588539123535,0.1270599663257599,0.4288274049758911
1732873726025142800,9.194142822265626,0.07208210229873657,0.15332718193531036,0.34513887763023376
1732873726035173600,9.204173583984375,0.13072516024112701,0.19303341209888458,0.22663100063800812
1732873726045162000,9.214161865234376,0.1875356286764145,0.2382374405860901,0.09468411654233932
1732873726055163400,9.224163330078126,0.22540926933288574,0.24617868661880493,-0.06963863968849182
1732873726065151000,9.23415087890625,0.20341812074184418,0.2217440903186798,-0.13561208546161652
1732873726075182800,9.244182861328126,0.1618792861700058,0.19792033731937408,-0.1771509200334549
1732873726085140200,9.25414013671875,0.10567969083786011,0.17348572611808777,-0.22113321721553802
1732873726095171600,9.264171630859375,0.045204028487205505,0.12400564551353455,-0.28099802136421204
1732873726105159700,9.27415966796875,-0.02015855349600315,0.021991148591041565,-0.35735616087913513
1732873726115160800,9.284160888671876,-0.08002334833145142,-0.12095131725072861,-0.423329621553421
1732873726125149000,9.29414892578125,-0.13805554807186127,-0.2968805134296417,-0.4605923891067505
1732873726135180300,9.30418017578125,-0.19425514340400696,-0.4954117238521576,-0.485027015209198
1732873726145137700,9.3141376953125,-0.19058994948863983,-0.4960225820541382,-0.523511528968811
1732873726155169500,9.32416943359375,-0.13866640627384186,-0.37140607833862305,-0.5907067060470581
1732873726165157000,9.3341572265625,-0.06169738993048668,-0.16371189057826996,-0.6475171446800232
1732873726175158500,9.344158447265626,-0.00366519158706069,0.007941247895359993,-0.6090326309204102
1732873726185146000,9.35414599609375,0.009162978269159794,0.06658431142568588,-0.4196644127368927
1732873726195178000,9.364177978515626,-0.07696902006864548,0.009773843921720982,-0.07635815441608429
1732873726205165800,9.374165771484375,-0.2565633952617645,-0.07147123664617538,0.656069278717041
1732873726215167000,9.3841669921875,-0.2938261926174164,-0.02687807008624077,1.1441506147384644
1732873726225154800,9.39415478515625,-0.26572638750076294,0.15515977144241333,1.4978415966033936
1732873726235186400,9.4041865234375,-0.22113321721553802,0.38240164518356323,1.690264105796814
1732873726245143800,9.414143798828125,-0.20097467303276062,0.617584764957428,1.720807433128357
1732873726255174400,9.42417431640625,-0.1771509200334549,0.7776314616203308,1.560760736465454
1732873726265163500,9.43416357421875,-0.16371189057826996,0.8460483551025391,1.208902359008789
1732873726275165200,9.444165283203125,-0.19486601650714874,0.7428121566772461,0.43615779280662537
1732873726285152300,9.45415234375,-0.25045475363731384,0.5125159621238708,-0.13011430203914642
1732873726295182800,9.464182861328124,-0.3335324227809906,0.21380282938480377,-0.6102544069290161
1732873726305141200,9.474141357421875,-0.4129449129104614,-0.08857546001672745,-0.9388998746871948
1732873726315172900,9.4841728515625,-0.4495968222618103,-0.30054569244384766,-1.0965031385421753
1732873726325161000,9.494160888671875,-0.45142942667007446,-0.37751471996307373,-1.1001683473587036
1732873726335161900,9.504161865234375,-0.44287729263305664,-0.3695734739303589,-0.9773843884468079
1732873726345150000,9.51414990234375,-0.4190535545349121,-0.30054569244384766,-0.7666358947753906
1732873726355181600,9.524181640625,-0.3732386529445648,-0.11178833991289139,-0.41233405470848083
1732873726365139000,9.534138916015625,-0.34513887763023376,-0.014049900695681572,-0.21074850857257843
1732873726375170800,9.5441708984375,-0.32559117674827576,0.029932396486401558,-0.07269296050071716
1732873726385158700,9.55415869140625,-0.32070425152778625,0.039095375686883926,0.00427605677396059
1732873726395159800,9.564159912109375,-0.3182607889175415,0.039706241339445114,0.05314527451992035
1732873726405147600,9.574147705078126,-0.31642818450927734,0.05192354694008827,0.09285151958465576
1732873726415179500,9.584179443359375,-0.30115658044815063,0.1014036312699318,0.12950342893600464
1732873726425136600,9.59413671875,-0.24984388053417206,0.19914206862449646,0.17409659922122955
1732873726435167500,9.60416748046875,-0.2028072625398636,0.26450464129447937,0.18875735998153687
1732873726445156000,9.614156005859375,-0.15393804013729095,0.3292563557624817,0.19364428520202637
1732873726455187700,9.624187744140626,-0.11239920556545258,0.38240164518356323,0.20097467303276062
1732873726465145000,9.63414501953125,-0.0861319974064827,0.41111230850219727,0.22052235901355743
1732873726475176000,9.644176025390625,-0.06719517707824707,0.4190535545349121,0.2431243658065796
1732873726485164500,9.65416455078125,-0.05497787147760391,0.4031710624694824,0.2571742534637451
1732873726495165700,9.664165771484376,-0.059864792972803116,0.3280346393585205,0.24984388053417206
1732873726505153500,9.674153564453125,-0.07696902006864548,0.24862214922904968,0.23151792585849762
1732873726515184600,9.6841845703125,-0.09651670604944229,0.15027284622192383,0.20036379992961884
1732873726525142800,9.694142822265626,-0.11484266817569733,0.04092797264456749,0.15515977144241333
1732873726535173600,9.704173583984375,-0.1270599663257599,-0.06658431142568588,0.11423180252313614
1732873726545162200,9.714162353515626,-0.12217304855585098,-0.1459967941045761,0.07452555745840073
1732873726555163400,9.724163330078126,-0.11178833991289139,-0.18997909128665924,0.04886921867728233
1732873726565151200,9.734151123046875,-0.10262536257505417,-0.19058994948863983,0.048258353024721146
1732873726575182000,9.74418212890625,-0.08735372871160507,-0.12095131725072861,0.0806342139840126
1732873726585140200,9.75414013671875,-0.06658431142568588,-0.03726277872920036,0.08979719132184982
1732873726595170600,9.764170654296874,-0.051312681287527084,0.06475171446800232,0.0806342139840126
1732873726605159400,9.774159423828126,-0.04214970022439957,0.15760323405265808,0.05803219974040985
1732873726615159800,9.784159912109375,-0.039095375686883926,0.22540926933288574,0.019547687843441963
1732873726625148400,9.7941484375,-0.06352998316287994,0.24984388053417206,-0.033597588539123535
1732873726635180000,9.804179931640626,-0.09896016865968704,0.23579397797584534,-0.09224065393209457
1732873726645137200,9.81413720703125,-0.14966198801994324,0.18387043476104736,-0.16920967400074005
1732873726655169300,9.824169189453125,-0.1661553531885147,0.17043140530586243,-0.1918116807937622
1732873726665156900,9.834156982421876,-0.15760323405265808,0.18325957655906677,-0.16982053220272064
1732873726675158000,9.844157958984376,-0.11972958594560623,0.21868975460529327,-0.10506882518529892
1732873726685145900,9.854145751953125,-0.0555887371301651,0.2620611786842346,0.0012217304902151227
1732873726695178000,9.864177978515626,0.02626720629632473,0.294437050819397,0.13866640627384186
1732873726705165800,9.874165771484375,0.1014036312699318,0.3237585723400116,0.2840523421764374
1732873726715165700,9.884165771484374,0.21563543379306793,0.3695734739303589,0.37201693654060364
1732873726725154800,9.89415478515625,0.2932153046131134,0.403781920671463,0.27611109614372253
1732873726735185200,9.90418505859375,0.34758231043815613,0.33169981837272644,0.04948008432984352
1732873726745143800,9.914143798828125,0.35552358627319336,0.05864306539297104,-0.24923302233219147
1732873726755175700,9.92417578125,0.3170390725135803,-0.3982841372489929,-0.5283984541893005
1732873726765163500,9.93416357421875,0.2382374405860901,-0.9224064946174622,-0.6481280326843262
1732873726775164700,9.94416455078125,0.14294247329235077,-1.3463469743728638,-0.4709770977497101
1732873726785152300,9.95415234375,0.06902777403593063,-1.5540411472320557,-0.0012217304902151227
1732873726795184000,9.96418408203125,0.08491026610136032,-1.3182471990585327,0.9737191796302795
1732873726805141200,9.974141357421875,0.16432274878025055,-0.9169087409973145,1.5564846992492676
1732873726815171800,9.984171875,0.24862214922904968,-0.3836233615875244,1.9266690015792847
1732873726825161000,9.994160888671875,0.2932153046131134,0.17409659922122955,2.088548183441162
1732873726835163100,10.0041630859375,0.3738495409488678,0.5516113042831421,2.0146336555480957
1732873726845150000,10.01414990234375,0.46303585171699524,0.7586946487426758,1.7006487846374512
1732873726855182600,10.0241826171875,0.5210680365562439,0.789237916469574,1.207680583000183
1732873726865139000,10.034138916015625,0.50335294008255,0.4294382631778717,0.31031954288482666
1732873726875171000,10.044171142578126,0.4440990388393402,-0.02626720629632473,-0.24923302233219147
1732873726885158400,10.054158447265625,0.35246923565864563,-0.5143485069274902,-0.6786713004112244
1732873726895159600,10.06415966796875,0.251676470041275,-0.9010262489318848,-0.940121591091156
1732873726905147600,10.074147705078126,0.1814269721508026,-1.0726794004440308,-1.0445796251296997
1732873726915179000,10.084178955078125,0.16432274878025055,-1.017701506614685,-1.016479730606079
1732873726925136600,10.09413671875,0.19303341209888458,-0.7666358947753906,-0.8772025108337402
1732873726935168300,10.104168212890626,0.2871066629886627,-0.1918116807937622,-0.5326744914054871
1732873726945156000,10.114156005859375,0.34513887763023376,0.19608774781227112,-0.2828305959701538
1732873726955187200,10.124187255859376,0.384845107793808,0.5186246037483215,-0.06780604273080826
1732873726965145000,10.13414501953125,0.39645153284072876,0.7134906053543091,0.08796459436416626
1732873726975176000,10.144176025390625,0.37262779474258423,0.7525860071182251,0.17470745742321014
1732873726985164500,10.15416455078125,0.3090978264808655,0.6829473376274109,0.18814650177955627
1732873726995165200,10.164165283203126,0.23396138846874237,0.5320636034011841,0.14905111491680145
1732873727005153800,10.17415380859375,0.16004669666290283,0.34636059403419495,0.0806342139840126
1732873727015184600,10.1841845703125,0.07208210229873657,0.07208210229873657,-0.05497787147760391
1732873727025142800,10.194142822265626,0.039095375686883926,-0.08002334833145142,-0.13805554807186127
1732873727035173600,10.204173583984375,0.018936822190880775,-0.19058994948863983,-0.18631389737129211
1732873727045162000,10.214161865234376,0.015271631069481373,-0.22968533635139465,-0.19303341209888458
1732873727055162400,10.224162353515625,0.02321287989616394,-0.19120082259178162,-0.15454891324043274
1732873727065151000,10.23415087890625,0.04398229718208313,-0.09773843735456467,-0.08979719132184982
1732873727075182000,10.24418212890625,0.07941248267889023,0.03298672288656235,-0.01160643994808197
1732873727085140200,10.25414013671875,0.13805554807186127,0.1966986060142517,0.07941248267889023
1732873727095171600,10.264171630859375,0.14905111491680145,0.2742784917354584,0.12034045159816742
1732873727105159700,10.27415966796875,0.13439035415649414,0.3225368559360504,0.1667662113904953
1732873727115160800,10.284160888671876,0.1062905490398407,0.33475416898727417,0.21502456068992615
1732873727125148700,10.294148681640625,0.07513642311096191,0.3323107063770294,0.2565633952617645
1732873727135179500,10.304179443359375,0.039095375686883926,0.3078760802745819,0.2871066629886627
1732873727145137700,10.3141376953125,-0.00733038317412138,0.25534167885780334,0.2871066629886627
1732873727155168800,10.324168701171875,-0.06536258012056351,0.16554448008537292,0.21013765037059784
1732873727165157400,10.334157470703126,-0.07880161702632904,0.11239920556545258,0.12461651116609573
1732873727175157800,10.34415771484375,-0.07147123664617538,0.07819075137376785,0.02871066704392433
1732873727185146000,10.35414599609375,-0.06536258012056351,0.05619960278272629,-0.05925392732024193
1732873727195178200,10.36417822265625,-0.06841690838336945,0.04337143152952194,-0.12095131725072861
1732873727205165800,10.374165771484375,-0.08307767659425735,0.045204028487205505,-0.14049901068210602
1732873727215167000,10.3841669921875,-0.11545353382825851,0.028099801391363144,-0.11362093687057495
1732873727225154800,10.39415478515625,-0.17592918872833252,-0.016493361443281174,-0.048258353024721146
1732873727235186200,10.404186279296875,-0.2767219543457031,-0.18814650177955627,0.07941248267889023
1732873727245143800,10.414143798828125,-0.3219259977340698,-0.34758231043815613,0.13072516024112701
1732873727255174700,10.424174560546875,-0.33047810196876526,-0.4605923891067505,0.09957103431224823
1732873727265163500,10.43416357421875,-0.31093040108680725,-0.49357911944389343,-0.024434609338641167
1732873727275164700,10.44416455078125,-0.2675589919090271,-0.44593164324760437,-0.22052235901355743
1732873727285152500,10.454152587890626,-0.19486601650714874,-0.37751471996307373,-0.44715335965156555
1732873727295184000,10.464183837890625,-0.13500121235847473,-0.33047810196876526,-0.6426302194595337
1732873727305141500,10.4741416015625,-0.16493362188339233,-0.5424483418464661,-0.5858197808265686
1732873727315172900,10.4841728515625,-0.24129177629947662,-0.8448266386985779,-0.2767219543457031
1732873727325161000,10.494160888671875,-0.31459560990333557,-1.1129964590072632,0.1869247704744339
1732873727335162000,10.504162109375,-0.3530801236629486,-1.2192870378494263,0.6890559792518616
1732873727345150000,10.51414990234375,-0.40072759985923767,-1.149037480354309,1.1362093687057495
1732873727355181600,10.524181640625,-0.4337143301963806,-0.9205739498138428,1.5192219018936157
1732873727365139000,10.534138916015625,-0.3903428912162781,-0.5711590051651001,1.8154915571212769
1732873727375172400,10.54417236328125,-0.16982053220272064,0.13561208546161652,1.9541579484939575
1732873727385158400,10.554158447265625,0.018936822190880775,0.645684540271759,1.7898352146148682
1732873727395160600,10.56416064453125,0.1508837193250656,1.0598511695861816,1.42637038230896
1732873727404983000,10.573983154296876,0.18936823308467865,1.289536476135254,0.9040805697441101
1732873727415178000,10.584177978515624,0.14355333149433136,1.2852604389190674,0.28038713335990906
1732873727425136600,10.59413671875,0.05864306539297104,1.0396926403045654,-0.37629300355911255
1732873727435168300,10.604168212890626,-0.029932396486401558,0.6487388610839844,-0.9822713136672974
1732873727445156000,10.614156005859375,-0.11545353382825851,0.1661553531885147,-1.4526375532150269
1732873727455187700,10.624187744140626,-0.24556782841682434,-0.5064072608947754,-1.7721201181411743
1732873727465144800,10.634144775390626,-0.3023782968521118,-0.8063421249389648,-1.7165313959121704
1732873727475176700,10.6441767578125,-0.3072652220726013,-0.9327912330627441,-1.4929546117782593
1732873727485164500,10.65416455078125,-0.28466320037841797,-0.856433093547821,-1.1594222784042358
1732873727495166000,10.664166015625,-0.25045475363731384,-0.6255260109901428,-0.7678576111793518
1732873727505153500,10.674153564453125,-0.19914206862449646,-0.29138273000717163,-0.38117989897727966
1732873727515185200,10.68418505859375,-0.12034045159816742,0.07757988572120667,-0.04642575979232788
1732873727525142800,10.694142822265626,0.022602014243602753,0.5601634383201599,0.27977627515792847
1732873727535173600,10.704173583984375,0.10873401165008545,0.7367035150527954,0.38179078698158264
1732873727545162200,10.714162353515626,0.16798794269561768,0.7965682744979858,0.40256020426750183
1732873727555163000,10.724162841796876,0.19547687470912933,0.7580837607383728,0.3591887652873993
1732873727565151000,10.73415087890625,0.2076941877603531,0.6505714654922485,0.2724458873271942
1732873727575182600,10.7441826171875,0.2174680233001709,0.504574716091156,0.1569923609495163
1732873727585140200,10.75414013671875,0.22602014243602753,0.3433062732219696,0.02626720629632473
1732873727595170600,10.764170654296874,0.23884831368923187,0.11423180252313614,-0.15821409225463867
1732873727605159400,10.774159423828126,0.25106561183929443,0.006719517521560192,-0.25595253705978394
1732873727615159600,10.78415966796875,0.2730567753314972,-0.05009094998240471,-0.31642818450927734
1732873727625148400,10.7941484375,0.2938261926174164,-0.04703662544488907,-0.34086281061172485
1732873727635180000,10.804179931640626,0.30970868468284607,0.00855211354792118,-0.3384193480014801
1732873727645137200,10.81413720703125,0.33658674359321594,0.10995574295520782,-0.32681289315223694
1732873727655169000,10.8241689453125,0.3787364661693573,0.22846360504627228,-0.31581732630729675
1732873727665156900,10.834156982421876,0.4239404797554016,0.33108896017074585,-0.304210901260376
1732873727675158300,10.844158203125,0.48319441080093384,0.4080579876899719,-0.29077184200286865
1732873727685145900,10.854145751953125,0.5222898125648499,0.4092797040939331,-0.29016098380088806
1732873727695178000,10.864177978515626,0.5461135506629944,0.38240164518356323,-0.29565876722335815
1732873727705165800,10.874165771484375,0.5583308339118958,0.34208452701568604,-0.3121521472930908
1732873727715167000,10.8841669921875,0.5564982295036316,0.28588494658470154,-0.3335324227809906
1732873727725154800,10.89415478515625,0.5491678714752197,0.21441370248794556,-0.3628539443016052
1732873727735186700,10.904186767578125,0.5418374538421631,0.11728613078594208,-0.3897320330142975
1732873727745143800,10.914143798828125,0.5283984541893005,-0.07452555745840073,-0.39645153284072876
1732873727755175700,10.92417578125,0.5198463201522827,-0.21380282938480377,-0.3536909818649292
1732873727765163500,10.93416357421875,0.5119050741195679,-0.3170390725135803,-0.2730567753314972
1732873727775165000,10.9441650390625,0.513126790523529,-0.36713001132011414,-0.15943582355976105
1732873727785152300,10.95415234375,0.5363397002220154,-0.3628539443016052,-0.02015855349600315
1732873727795184000,10.96418408203125,0.5839871764183044,-0.3017674386501312,0.12400564551353455
1732873727805141500,10.9741416015625,0.6450737118721008,-0.19303341209888458,0.25473082065582275
1732873727815173000,10.984173095703126,0.7293730974197388,0.00733038317412138,0.3744603991508484
1732873727825189000,10.994189208984375,0.7867944240570068,0.15027284622192383,0.35185837745666504
1732873727835162000,11.004162109375,0.8491026759147644,0.2779437005519867,0.2223549485206604
1732873727845150000,11.01414990234375,0.8857545852661133,0.3500257730484009,-0.00366519158706069
1732873727855181800,11.024181884765625,0.8845328688621521,0.3170390725135803,-0.2974913716316223
1732873727865139000,11.034138916015625,0.8552113175392151,0.15454891324043274,-0.607810914516449
1732873727875170800,11.0441708984375,0.8051204085350037,-0.13316862285137177,-0.846659243106842
1732873727885158400,11.054158447265625,0.7409795522689819,-0.4801400899887085,-0.940732479095459
1732873727895159600,11.06415966796875,0.6444628238677979,-0.8875871896743774,-0.7171558141708374
1732873727905147600,11.074147705078126,0.6218608021736145,-0.931569516658783,-0.36651915311813354
1732873727915179300,11.08417919921875,0.6713408827781677,-0.769079327583313,0.04459316283464432
1732873727925136600,11.09413671875,0.7183775305747986,-0.4001167416572571,0.44837507605552673
1732873727935168300,11.104168212890626,0.778853178024292,0.03420845419168472,0.807563841342926
1732873727945156000,11.114156005859375,0.8655960559844971,0.4447098970413208,1.0824532508850098
1732873727955186200,11.124186279296875,0.9669997096061707,0.7666358947753906,1.2528846263885498
1732873727965145000,11.13414501953125,1.0494664907455444,0.9645562171936035,1.3536773920059204
1732873727975175400,11.144175537109374,1.0427470207214355,0.8827002644538879,1.3231340646743774
1732873727985164500,11.15416455078125,1.0012081861495972,0.6627888083457947,1.217454433441162
1732873727995164400,11.164164306640625,0.9419541954994202,0.3500257730484009,1.0476338863372803
1732873728005153500,11.174153564453125,0.8704829812049866,0.0024434609804302454,0.8234463334083557
1732873728015185200,11.18418505859375,0.7837401032447815,-0.3280346393585205,0.5650503635406494
1732873728025142500,11.194142578125,0.6872233748435974,-0.5821545720100403,0.29138273000717163
1732873728035173000,11.204173095703124,0.6102544069290161,-0.7874053120613098,-0.13072516024112701
1732873728045162200,11.214162353515626,0.626747727394104,-0.789237916469574,-0.394008070230484
1732873728055162000,11.224162109375,0.6939429044723511,-0.7195992469787598,-0.6163630485534668
1732873728065151000,11.23415087890625,0.789237916469574,-0.6249151229858398,-0.7684684991836548
1732873728075181600,11.244181640625,0.8875871896743774,-0.5229006409645081,-0.8301658630371094
1732873728085140200,11.25414013671875,0.9773843884468079,-0.3982841372489929,-0.8032878041267395
1732873728095170600,11.264170654296874,1.0482447147369385,-0.2474004179239273,-0.7147123217582703
1732873728105159700,11.27415966796875,1.092837929725647,-0.1014036312699318,-0.5919284224510193
1732873728115161000,11.2841611328125,1.1313223838806152,0.09957103431224823,-0.40622538328170776
1732873728125148700,11.294148681640625,1.1643091440200806,0.2321287989616394,-0.30970868468284607
1732873728135180500,11.3041806640625,1.205847978591919,0.36163222789764404,-0.23335053026676178
1732873728145138000,11.314137939453126,1.2565498352050781,0.4593706727027893,-0.16554448008537292
1732873728155169500,11.32416943359375,1.3060299158096313,0.5277875661849976,-0.0910189226269722
1732873728165157000,11.3341572265625,1.3518447875976562,0.5668829679489136,-0.009773843921720982
1732873728175158800,11.34415869140625,1.397048830986023,0.5852088928222656,0.07941248267889023
1732873728185146000,11.35414599609375,1.4685200452804565,0.5937610268592834,0.2070833146572113
1732873728195176700,11.3641767578125,1.5106697082519531,0.5693264007568359,0.27000242471694946
1732873728205165800,11.374165771484375,1.5454890727996826,0.5436700582504272,0.29138273000717163
1732873728215166200,11.384166259765625,1.588249683380127,0.5222898125648499,0.2736676335334778
1732873728225154800,11.39415478515625,1.642616629600525,0.5094616413116455,0.23090706765651703
1732873728235185400,11.404185302734374,1.7104226350784302,0.5180137157440186,0.18387043476104736
1732873728245144000,11.41414404296875,1.7904460430145264,0.5583308339118958,0.14049901068210602
1732873728255174400,11.42417431640625,1.8979582786560059,0.656680166721344,0.11301007121801376
1732873728265163500,11.43416357421875,1.9339994192123413,0.6994407176971436,0.14355333149433136
1732873728275163400,11.444163330078124,1.938886284828186,0.6951646208763123,0.21563543379306793
1732873728285152500,11.454152587890626,1.9181169271469116,0.6340781450271606,0.3078760802745819
1732873728295184100,11.46418408203125,1.8839083909988403,0.5229006409645081,0.39217549562454224
1732873728305141500,11.4741416015625,1.855197787284851,0.40744712948799133,0.44654250144958496
1732873728315173000,11.484173095703126,1.8393152952194214,0.3396410644054413,0.45814892649650574
1732873728325161000,11.494160888671875,1.8411478996276855,0.32620203495025635,0.43249258399009705
1732873728335162000,11.504162109375,1.8668042421340942,0.4105014503002167,0.33719760179519653
1732873728345150000,11.51414990234375,1.9034560918807983,0.49846604466438293,0.252287358045578
1732873728355180500,11.5241806640625,1.9529361724853516,0.5681046843528748,0.16859880089759827
1732873728365139000,11.534138916015625,2.0109684467315674,0.6023131608963013,0.08124507963657379
1732873728375170800,11.5441708984375,2.0732767581939697,0.6010913848876953,0.0024434609804302454
1732873728385158400,11.554158447265625,2.120924234390259,0.5503895878791809,-0.04337143152952194
1732873728395159800,11.564159912109375,2.1368067264556885,0.4648684561252594,-0.03787364438176155
1732873728405147400,11.5741474609375,2.1178698539733887,0.35735616087913513,0.06963863968849182
1732873728415179500,11.584179443359375,2.0958786010742188,0.3481931984424591,0.19425514340400696
1732873728425136600,11.59413671875,2.079385280609131,0.41661009192466736,0.33169981837272644
1732873728435168500,11.60416845703125,2.0696115493774414,0.5338962078094482,0.45875978469848633
1732873728445156000,11.614156005859375,2.0696115493774414,0.6493497490882874,0.5461135506629944
1732873728455188000,11.62418798828125,2.079996109008789,0.7434229850769043,0.5687155723571777
1732873728465145000,11.63414501953125,2.0958786010742188,0.8014551997184753,0.5204572081565857
1732873728475177000,11.644177001953125,2.1233675479888916,0.817337691783905,0.3500257730484009
1732873728485164500,11.65416455078125,2.1569652557373047,0.8112290501594543,0.1966986060142517
1732873728495166000,11.664166015625,2.183232307434082,0.769079327583313,0.05497787147760391
1732873728505153500,11.674153564453125,2.2003366947174072,0.7073819637298584,-0.056810468435287476
1732873728515185400,11.684185302734376,2.214386463165283,0.6517932415008545,-0.14233160018920898
1732873728525142800,11.694142822265626,2.2296581268310547,0.6304129362106323,-0.2168571650981903
1732873728535174400,11.70417431640625,2.2516493797302246,0.6420193910598755,-0.29504790902137756
1732873728545162200,11.714162353515626,2.271807909011841,0.6530149579048157,-0.403781920671463
1732873728555163600,11.72416357421875,2.308459758758545,0.6261368989944458,-0.6212499737739563
1732873728565151200,11.734151123046875,2.3383922576904297,0.5742133259773254,-0.7825183868408203
1732873728575183000,11.74418310546875,2.3664920330047607,0.47830748558044434,-0.912021815776825
1732873728585140200,11.75414013671875,2.387261390686035,0.34574973583221436,-0.9944885969161987
1732873728595171000,11.764171142578125,2.389704942703247,0.18814650177955627,-0.9914342761039734
1732873728605159400,11.774159423828126,2.362215995788574,0.02382374368607998,-0.8881980776786804
1732873728615160600,11.78416064453125,2.3096814155578613,-0.10995574295520782,-0.6908885836601257
1732873728625148400,11.7941484375,2.2632558345794678,-0.17531833052635193,-0.32009339332580566
1732873728635180000,11.804179931640626,2.2711970806121826,-0.04581489413976669,-0.09834930300712585
1732873728645137200,11.81413720703125,2.305405378341675,0.1411098688840866,0.09285151958465576
1732873728655169300,11.824169189453125,2.3542747497558594,0.3695734739303589,0.22296582162380219
1732873728665156900,11.834156982421876,2.3994786739349365,0.5705481171607971,0.2816088795661926
1732873728675158000,11.844157958984376,2.428189277648926,0.7037167549133301,0.2718350291252136
1732873728685145900,11.854145751953125,2.451402187347412,0.7263187766075134,0.20891591906547546
1732873728695178200,11.86417822265625,2.4685065746307373,0.636521577835083,0.06108652427792549
1732873728705165800,11.874165771484375,2.4782803058624268,0.5387831330299377,-0.04153883829712868
1732873728715167000,11.8841669921875,2.481334686279297,0.4593706727027893,-0.13072516024112701
1732873728725154800,11.89415478515625,2.479501962661743,0.4056145250797272,-0.192422553896904
1732873728735186400,11.9041865234375,2.4715607166290283,0.3579670190811157,-0.2168571650981903
1732873728745143800,11.914143798828125,2.4465153217315674,0.3335324227809906,-0.21380282938480377
1732873728755175700,11.92417578125,2.4110851287841797,0.32620203495025635,-0.20525072515010834
1732873728765163300,11.934163330078125,2.392759084701538,0.3023782968521118,-0.2021963894367218
1732873728775165000,11.9441650390625,2.3713788986206055,0.25961771607398987,-0.22113321721553802
1732873728785152500,11.954152587890626,2.364659309387207,0.22602014243602753,-0.23945917189121246
1732873728795184400,11.964184326171875,2.356107234954834,0.22479841113090515,-0.2632829248905182
1732873728805141200,11.974141357421875,2.353052854537964,0.23640485107898712,-0.2816088795661926
1732873728815173000,11.984173095703126,2.353663682937622,0.24862214922904968,-0.2883284091949463
1732873728825161000,11.994160888671875,2.3493876457214355,0.2577851414680481,-0.2889392673969269
1732873728835162000,12.004162109375,2.339613914489746,0.2773328125476837,-0.2889392673969269
1732873728845150000,12.01414990234375,2.3322834968566895,0.294437050819397,-0.2993239760398865
1732873728855181800,12.024181884765625,2.3359487056732178,0.29565876722335815,-0.32009339332580566
1732873728865139000,12.034138916015625,2.342668294906616,0.29138273000717163,-0.35552358627319336
1732873728875170800,12.0441708984375,2.333505153656006,0.26511552929878235,-0.3988949954509735
1732873728885158400,12.054158447265625,2.2931880950927734,0.2223549485206604,-0.4440990388393402
1732873728895160000,12.06416015625,2.2204952239990234,0.1508837193250656,-0.4795292317867279
1732873728905147600,12.074147705078126,2.1313087940216064,0.06658431142568588,-0.48869219422340393
1732873728915179300,12.08417919921875,1.9883663654327393,-0.07147123664617538,-0.41722095012664795
1732873728925136600,12.09413671875,1.9004018306732178,-0.14294247329235077,-0.31031954288482666
1732873728935168300,12.104168212890626,1.8307631015777588,-0.1820378452539444,-0.15454891324043274
1732873728945156000,12.114156005859375,1.7904460430145264,-0.1569923609495163,0.02871066704392433
1732873728955188000,12.12418798828125,1.7800613641738892,-0.06963863968849182,0.21991148591041565
1732873728965145000,12.13414501953125,1.7678439617156982,0.04948008432984352,0.394618958234787
1732873728975177000,12.144177001953125,1.7544050216674805,0.1765400618314743,0.5204572081565857
1732873728985164500,12.15416455078125,1.7434093952178955,0.303600013256073,0.5662720799446106
1732873728995166200,12.164166259765626,1.7159204483032227,0.4996877610683441,0.45875978469848633
1732873729005153500,12.174153564453125,1.6920967102050781,0.5968153476715088,0.2883284091949463
1732873729015185400,12.184185302734376,1.6462818384170532,0.636521577835083,0.07147123664617538
1732873729025142800,12.194142822265626,1.5796974897384644,0.6041457056999207,-0.1417207419872284
1732873729035174400,12.20417431640625,1.4850133657455444,0.4954117238521576,-0.29993483424186707
1732873729045162200,12.214162353515626,1.3720033168792725,0.36102136969566345,-0.3805690407752991
1732873729055163400,12.224163330078126,1.2559388875961304,0.2321287989616394,-0.3836233615875244
1732873729065151200,12.234151123046875,1.1050552129745483,0.11239920556545258,-0.2767219543457031
1732873729075183000,12.24418310546875,1.0231993198394775,0.09285151958465576,-0.17531833052635193
1732873729085140200,12.25414013671875,0.9566149711608887,0.09346238523721695,-0.08735372871160507
1732873729095172000,12.264172119140625,0.8936958312988281,0.11484266817569733,-0.031154127791523933
1732873729105159700,12.27415966796875,0.8417723178863525,0.1368338167667389,-0.006108652334660292
1732873729115161000,12.2841611328125,0.8148942589759827,0.1270599663257599,-0.003054326167330146
1732873729125149000,12.29414892578125,0.8032878041267395,0.0910189226269722,-0.02076941914856434
1732873729135180300,12.30418017578125,0.7849618196487427,0.04214970022439957,-0.0507018156349659
1732873729145137700,12.3141376953125,0.7452555894851685,0.04398229718208313,-0.04581489413976669
1732873729155169500,12.32416943359375,0.6841690540313721,0.08185594528913498,-0.02382374368607998
1732873729165157000,12.3341572265625,0.6102544069290161,0.1362229436635971,0.012828170321881771
1732873729175158500,12.344158447265626,0.5229006409645081,0.17043140530586243,0.04886921867728233
1732873729185146000,12.35414599609375,0.4489859640598297,0.1472185254096985,0.07208210229873657
1732873729195178200,12.36417822265625,0.3787364661693573,0.06841690838336945,0.07269296050071716
1732873729205165800,12.374165771484375,0.28649580478668213,-0.04642575979232788,0.05314527451992035
1732873729215167200,12.384167236328125,0.14294247329235077,-0.2840523421764374,0.014049900695681572
1732873729225154800,12.39415478515625,0.07391469180583954,-0.4550946056842804,-0.018936822190880775
1732873729235186400,12.4041865234375,0.03726277872920036,-0.5564982295036316,-0.05925392732024193
1732873729245144000,12.41414404296875,0.04581489413976669,-0.5583308339118958,-0.08307767659425735
1732873729255175400,12.424175537109376,0.07513642311096191,-0.46242499351501465,-0.0757472887635231
1732873729265163500,12.43416357421875,0.10323622822761536,-0.3225368559360504,-0.036651913076639175
1732873729275164700,12.44416455078125,0.10567969083786011,-0.19120082259178162,0.027488935738801956
1732873729285152300,12.45415234375,0.06475171446800232,-0.039706241339445114,0.12522737681865692
1732873729295184100,12.46418408203125,0.03787364438176155,0.01038470957428217,0.1459967941045761
