time,seconds_elapsed,z,y,x
1732873717015104000,0.18410400390625,9.976638793945312,1.5394717454910278,-0.7541735172271729
1732873717025083100,0.194083251953125,9.926360130310059,1.580173134803772,-0.7565677165985107
1732873717035062300,0.204062255859375,9.832986831665039,1.5825673341751099,-0.6943184733390808
1732873717045072100,0.214072021484375,9.713275909423828,1.6112977266311646,-0.6416460275650024
1732873717055051300,0.22405126953125,9.569623947143555,1.6089035272598267,-0.7206547260284424
1732873717065061000,0.23406103515625,9.560047149658203,1.6136919260025024,-0.7805097699165344
1732873717075071000,0.244071044921875,9.751583099365234,1.6687586307525635,-0.8236053586006165
1732873717085050000,0.254050048828125,9.701305389404297,1.577778935432434,-0.706289529800415
1732873717095060000,0.26406005859375,9.624691009521484,1.4508862495422363,-0.5530605912208557
1732873717105069800,0.27406982421875,9.612719535827637,1.3000515699386597,-0.2298433631658554
1732873717115049000,0.284049072265625,9.583989143371582,1.2401964664459229,0.009576806798577309
1732873717125058800,0.294058837890625,9.485827445983887,1.1971008777618408,0.014365210197865963
1732873717135068400,0.304068359375,9.5624418258667,1.2737152576446533,-0.10295066982507706
1732873717145047800,0.3140478515625,9.835380554199219,1.3623007535934448,-0.3734954595565796
1732873717155057400,0.324057373046875,10.04846477508545,1.434126853942871,-0.524330198764801
1732873717165067300,0.3340673828125,10.17296314239502,1.4915876388549805,-0.6919242739677429
1732873717175046400,0.34404638671875,10.211270332336426,1.50355863571167,-0.6607996821403503
1732873717185056300,0.35405615234375,10.062829971313477,1.534683346748352,-0.6368576288223267
1732873717195066000,0.364066162109375,9.907206535339355,1.5658079385757446,-0.6177040338516235
1732873717205075700,0.37407568359375,9.80904483795166,1.5107412338256836,-0.507570743560791
1732873717215055000,0.38405517578125,9.823410034179688,1.4748282432556152,-0.3902548849582672
1732873717225065000,0.39406494140625,9.81143856048584,1.4484920501708984,-0.3208230137825012
1732873717235074600,0.404074462890625,9.68933391571045,1.4197616577148438,-0.26096799969673157
1732873717245054000,0.414053955078125,9.57441234588623,1.4101848602294922,-0.181959331035614
1732873717255063600,0.4240634765625,9.555258750915527,1.4317326545715332,-0.19153612852096558
1732873717265073200,0.4340732421875,9.890447616577148,1.4245500564575195,-0.2944868206977844
1732873717275052500,0.444052490234375,10.019734382629395,1.3886369466781616,-0.24660277366638184
1732873717285062400,0.4540625,9.86650562286377,1.4867992401123047,-0.3495534360408783
1732873717295072000,0.464072021484375,9.904812812805176,1.5418659448623657,-0.5793967843055725
1732873717305051400,0.474051513671875,10.019734382629395,1.6519991159439087,-0.7829039692878723
1732873717315061200,0.484061279296875,10.043676376342773,1.6208745241165161,-0.6177040338516235
1732873717325070800,0.49407080078125,10.050858497619629,1.6184803247451782,-0.507570743560791
1732873717335050200,0.50405029296875,9.962273597717285,1.5203180313110352,-0.3256114423274994
1732873717345059800,0.514059814453125,9.80904483795166,1.3982137441635132,-0.0071826050989329815
1732873717355069700,0.524069580078125,9.744400978088379,1.3479355573654175,0.14844051003456116
1732873717365048800,0.534048828125,9.761159896850586,1.4413094520568848,-0.09816227108240128
1732873717375058700,0.54405859375,9.823410034179688,1.4844050407409668,-0.17717093229293823
1732873717385068500,0.554068603515625,9.667786598205566,1.5442601442337036,-0.23942017555236816
1732873717395047700,0.564047607421875,9.457097053527832,1.656787633895874,-0.45010992884635925
1732873717405057500,0.5740576171875,9.162610054016113,1.7549498081207275,-0.33039984107017517
1732873717415067400,0.5840673828125,8.87291145324707,1.8267759084701538,-0.33518823981285095
1732873717425046500,0.594046630859375,8.729259490966797,1.8602946996688843,-0.22505496442317963
1732873717435056000,0.60405615234375,8.78432559967041,1.8076223134994507,0.023942016065120697
1732873717445066000,0.61406591796875,8.951920509338379,1.721431016921997,0.2298433631658554
1732873717455075600,0.62407568359375,9.047688484191895,1.6950948238372803,0.22744916379451752
1732873717465055000,0.634054931640625,9.260771751403809,1.6352397203445435,0.16519992053508759
1732873717475064800,0.64406494140625,9.536105155944824,1.6089035272598267,0.07182604819536209
1732873717485074700,0.65407470703125,9.818621635437012,1.5753847360610962,0.002394201699644327
1732873717495053800,0.6640537109375,9.971850395202637,1.5131354331970215,0.0694318488240242
1732873717505063700,0.674063720703125,9.890447616577148,1.5514427423477173,-0.0454898327589035
1732873717515073500,0.684073486328125,9.694122314453125,1.644816517829895,-0.1173158809542656
1732873717525052700,0.694052734375,9.524134635925293,1.7381904125213623,-0.08379705995321274
1732873717535062300,0.704062255859375,9.27034854888916,1.7070658206939697,0.12210428714752197
1732873717545072000,0.714072021484375,9.002198219299316,1.7094600200653076,0.16998831927776337
1732873717555051300,0.72405126953125,9.047688484191895,1.742978811264038,0.031124621629714966
1732873717565061000,0.73406103515625,9.315838813781738,1.6950948238372803,-0.043095629662275314
1732873717575071000,0.744071044921875,9.75637149810791,1.7381904125213623,-0.272938996553421
1732873717585050000,0.754050048828125,10.177751541137695,1.5945383310317993,-0.028730420395731926
1732873717595060000,0.76406005859375,10.20887565612793,1.5442601442337036,0.0071826050989329815
1732873717605069800,0.77406982421875,10.125079154968262,1.534683346748352,0.08379705995321274
1732873717615049000,0.784049072265625,9.945513725280762,1.479616641998291,0.20350714027881622
1732873717625058800,0.794058837890625,9.718064308166504,1.4939818382263184,0.2944868206977844
1732873717635068400,0.804068359375,9.5624418258667,1.522712230682373,0.3064578175544739
1732873717645047800,0.8140478515625,9.454702377319336,1.5682021379470825,0.2753331959247589
1732873717655057400,0.824057373046875,9.361329078674316,1.6065093278884888,0.24181437492370605
1732873717665067300,0.8340673828125,9.35893440246582,1.6711528301239014,0.14604631066322327
1732873717675046400,0.84404638671875,9.478644371032715,1.6735470294952393,0.12928688526153564
1732873717685056300,0.85405615234375,9.612719535827637,1.6950948238372803,0.10055647045373917
1732873717695066000,0.864066162109375,9.677363395690918,1.6663644313812256,0.08858546614646912
1732873717705075700,0.87407568359375,9.667786598205566,1.680729627609253,0.12928688526153564
1732873717715055000,0.88405517578125,9.674968719482422,1.6855180263519287,0.13168109953403473
1732873717725065000,0.89406494140625,9.696516990661621,1.6855180263519287,0.12689268589019775
1732873717735074600,0.904074462890625,9.619902610778809,1.6424223184585571,0.181959331035614
1732873717745054000,0.914053955078125,9.548076629638672,1.6376339197158813,0.3064578175544739
1732873717755063600,0.9240634765625,9.533711433410645,1.6927006244659424,0.1843535304069519
1732873717765073200,0.9340732421875,9.495404243469238,1.6280571222305298,0.3878606855869293
1732873717775052500,0.944052490234375,9.509769439697266,1.601720929145813,0.4381389021873474
1732873717785062400,0.9540625,9.658209800720215,1.577778935432434,0.4405331015586853
1732873717795072000,0.964072021484375,9.876082420349121,1.5825673341751099,0.5267243981361389
1732873717805051400,0.974051513671875,9.983820915222168,1.6280571222305298,0.6129156351089478
1732873717815061200,0.984061279296875,9.93593692779541,1.7070658206939697,0.6057330369949341
1732873717825070800,0.99407080078125,9.828198432922363,1.9153614044189453,0.6200982332229614
1732873717835050000,1.004050048828125,9.849745750427246,2.056619167327881,0.811634361743927
1732873717845059800,1.014059814453125,9.801861763000488,2.1332337856292725,1.0678139925003052
1732873717855069700,1.024069580078125,9.710882186889648,2.1763293743133545,1.1659762859344482
1732873717865048800,1.034048828125,9.856928825378418,2.073378562927246,1.137245774269104
1732873717875058700,1.04405859375,10.381258964538574,1.9369091987609863,1.161187767982483
1732873717885068500,1.054068603515625,11.130643844604492,1.7980455160140991,0.9744400978088379
1732873717895047700,1.064047607421875,12.083536148071289,1.8148049116134644,1.235408067703247
1732873717905057500,1.0740576171875,12.516886711120605,1.4939818382263184,2.0231003761291504
1732873717915067400,1.0840673828125,12.162544250488281,1.2449848651885986,2.9065608978271484
1732873717925046500,1.094046630859375,11.408370971679688,1.0295066833496094,3.5410242080688477
1732873717935056100,1.10405615234375,10.383652687072754,1.1348515748977661,3.955221176147461
1732873717945066000,1.11406591796875,9.320627212524414,1.3527239561080933,3.5721490383148193
1732873717955075600,1.12407568359375,8.20732307434082,1.3934253454208374,3.1507694721221924
1732873717965055000,1.134054931640625,7.568071365356445,2.169146776199341,2.3247697353363037
1732873717975064800,1.14406494140625,7.005434036254883,0.9888052940368652,3.1220390796661377
1732873717985074700,1.15407470703125,7.738059997558594,0.5626373887062073,4.963180065155029
1732873717995053800,1.1640537109375,9.239224433898926,0.629675030708313,4.812345504760742
1732873718005063700,1.174063720703125,9.888052940368652,0.6775590777397156,4.170699596405029
1732873718015073500,1.184073486328125,10.319009780883789,0.9528923034667969,3.6822822093963623
1732873718025052700,1.194052734375,10.5344877243042,1.4724340438842773,2.5785553455352783
1732873718035062300,1.204062255859375,10.685321807861328,1.900996208190918,1.8387469053268433
1732873718045072100,1.214072021484375,10.556035041809082,2.209848165512085,1.6328455209732056
1732873718055051300,1.22405126953125,10.113107681274414,2.3750481605529785,1.802833914756775
1732873718065061000,1.23406103515625,9.14345645904541,2.3989901542663574,2.1380221843719482
1732873718075071000,1.244071044921875,8.339004516601562,2.2170307636260986,2.22660756111145
1732873718085050000,1.254050048828125,8.13789176940918,1.4772224426269531,2.274491548538208
1732873718095060000,1.26406005859375,8.53293514251709,0.6991068720817566,2.1045033931732178
1732873718105069800,1.27406982421875,9.765948295593262,-0.0694318488240242,1.6831238269805908
1732873718115049000,1.284049072265625,11.224017143249512,-0.4668693244457245,1.1540051698684692
1732873718125058800,1.294058837890625,12.627019882202148,-0.38546648621559143,0.10773907601833344
1732873718135068700,1.304068603515625,12.85207462310791,-0.15322890877723694,-0.6799532771110535
1732873718145047800,1.3140478515625,11.990161895751953,0.07182604819536209,-0.6823474764823914
1732873718155057400,1.324057373046875,10.20887565612793,0.2777273952960968,-0.15083470940589905
1732873718165067300,1.3340673828125,7.9846625328063965,0.7015010714530945,-0.06224924325942993
1732873718175046400,1.34404638671875,5.913678169250488,0.9074024558067322,0.44771572947502136
1732873718185056300,1.35405615234375,4.867412090301514,0.9888052940368652,0.7230489253997803
1732873718195066000,1.364066162109375,4.654327869415283,1.192312479019165,0.3687070608139038
1732873718205075700,1.37407568359375,5.4252610206604,1.2210428714752197,-0.040701430290937424
1732873718215055000,1.38405517578125,7.237671852111816,1.0342950820922852,-0.26575639843940735
1732873718225065000,1.39406494140625,9.244012832641602,1.0127472877502441,-0.828393816947937
1732873718235074600,1.404074462890625,11.446678161621094,0.7996633648872375,-0.8738836050033569
1732873718245054000,1.414053955078125,12.72996997833252,0.3471592366695404,-0.16519992053508759
1732873718255063600,1.4240634765625,12.864046096801758,0.2561795711517334,0.040701430290937424
1732873718265073200,1.4340732421875,12.239158630371094,0.23702596127986908,-0.0694318488240242
1732873718275052500,1.444052490234375,11.408370971679688,0.35434186458587646,-0.23942017555236816
1732873718285062400,1.4540625,10.680533409118652,0.48602294921875,-0.28730419278144836
1732873718295072000,1.464072021484375,10.201693534851074,0.6344634294509888,-0.31603461503982544
1732873718305051400,1.474051513671875,9.730035781860352,0.8643068075180054,-0.42377370595932007
1732873718315061200,1.484061279296875,9.47146224975586,0.9313444495201111,-0.38307225704193115
1732873718325070800,1.49407080078125,9.346963882446289,0.9145850539207458,-0.49320554733276367
1732873718335050200,1.50405029296875,9.27034854888916,0.9648633003234863,-0.7924807667732239
1732873718345059800,1.514059814453125,9.308655738830566,0.9481038451194763,-1.0558429956436157
1732873718355069700,1.524069580078125,9.287108421325684,0.8523358106613159,-1.173158884048462
1732873718365048800,1.534048828125,9.315838813781738,0.7254431247711182,-1.213860273361206
1732873718375058700,1.54405859375,9.567230224609375,0.5554547905921936,-1.1348515748977661
1732873718385068500,1.554068603515625,9.938331604003906,0.3878606855869293,-1.0606313943862915
1732873718395047700,1.564047607421875,10.335768699645996,0.2753331959247589,-1.015141487121582
1732873718405057500,1.5740576171875,10.515334129333496,0.21787235140800476,-1.0079588890075684
1732873718415067400,1.5840673828125,10.625467300415039,0.17717093229293823,-1.0271124839782715
1732873718425046500,1.594046630859375,10.565611839294434,0.1364694982767105,-0.9169792532920837
1732873718435056000,1.60405615234375,10.42195987701416,0.05506663769483566,-0.751779317855835
1732873718445066000,1.61406591796875,10.285490036010742,0.028730420395731926,-0.6512228846549988
1732873718455075600,1.62407568359375,10.065223693847656,0.009576806798577309,-0.5626373887062073
1732873718465055000,1.634054931640625,9.816226959228516,0.019153613597154617,-0.42856210470199585
1732873718475064800,1.64406494140625,9.581595420837402,0.038307227194309235,-0.3232172429561615
1732873718485074700,1.65407470703125,9.263166427612305,0.19871874153614044,-0.272938996553421
1732873718495053800,1.6640537109375,8.882488250732422,0.3519476354122162,-0.24660277366638184
1732873718505063700,1.674063720703125,8.257601737976074,0.49320554733276367,-0.3926490843296051
1732873718515073500,1.684073486328125,8.020575523376465,0.4836287498474121,-0.38546648621559143
1732873718525052700,1.694052734375,8.145073890686035,0.4165911078453064,-0.31124621629714966
1732873718535062300,1.704062255859375,8.513781547546387,0.3711012601852417,-0.31842881441116333
1732873718545072000,1.714072021484375,9.21288776397705,0.2322375625371933,-0.3471592366695404
1732873718555051300,1.72405126953125,9.93593692779541,0.0933738648891449,-0.3758896589279175
1732873718565061000,1.73406103515625,10.625467300415039,0.08379705995321274,-0.5434837937355042
1732873718575070700,1.74407080078125,11.125855445861816,0.1628057211637497,-0.8068459630012512
1732873718585050000,1.754050048828125,11.499350547790527,0.24660277366638184,-0.9265560507774353
1732873718595060000,1.76406005859375,11.659762382507324,0.3232172429561615,-1.1061211824417114
1732873718605069800,1.77406982421875,11.652579307556152,0.44771572947502136,-1.170764684677124
1732873718615049000,1.784049072265625,11.446678161621094,0.6823474764823914,-1.3862427473068237
1732873718625058800,1.794058837890625,11.293449401855469,0.8930372595787048,-1.5107412338256836
1732873718635068700,1.804068603515625,11.061211585998535,1.036689281463623,-1.3886369466781616
1732873718645047800,1.8140478515625,10.620678901672363,1.1468225717544556,-1.3239935636520386
1732873718655057400,1.824057373046875,10.041281700134277,1.3239935636520386,-1.3431471586227417
1732873718665067300,1.8340673828125,9.576807022094727,1.400607943534851,-1.2545616626739502
1732873718675046400,1.84404638671875,9.069235801696777,1.4844050407409668,-1.3215993642807007
1732873718685056300,1.85405615234375,8.710105895996094,1.6112977266311646,-1.5322890281677246
1732873718695066000,1.864066162109375,8.580819129943848,1.7166426181793213,-1.8171991109848022
1732873718705075700,1.87407568359375,8.65743350982666,1.7477672100067139,-2.0015525817871094
1732873718715055000,1.88405517578125,8.815450668334961,1.7334020137786865,-1.9800047874450684
1732873718725065000,1.89406494140625,9.100360870361328,1.702277421951294,-2.03507137298584
1732873718735074600,1.904074462890625,9.425971984863281,1.659181833267212,-2.0374655723571777
1732873718745054000,1.914053955078125,9.725247383117676,1.647210717201233,-2.006340980529785
1732873718755063600,1.9240634765625,9.847352027893066,1.644816517829895,-2.03507137298584
1732873718765073200,1.9340732421875,9.854534149169922,1.7118542194366455,-2.145204782485962
1732873718775052500,1.944052490234375,9.78989028930664,1.8195933103561401,-2.3247697353363037
1732873718785062400,1.9540625,9.785101890563965,1.9033904075622559,-2.343923568725586
1732873718795072000,1.964072021484375,9.75397777557373,2.0039467811584473,-2.4181437492370605
1732873718805051400,1.974051513671875,9.75397777557373,2.1763293743133545,-2.454056739807129
1732873718815061200,1.984061279296875,9.797073364257812,2.3582887649536133,-2.425326347351074
1732873718825070800,1.99407080078125,9.86650562286377,2.4851813316345215,-2.410961151123047
1732873718835050200,2.00405029296875,9.885659217834473,2.655169725418091,-2.2912509441375732
1732873718845059800,2.014059814453125,9.914389610290527,2.63362193107605,-2.1308395862579346
1732873718855069700,2.024069580078125,9.876082420349121,2.5522189140319824,-1.889025092124939
1732873718865048800,2.034048828125,9.792284965515137,2.3942017555236816,-1.6376339197158813
1732873718875058700,2.04405859375,9.816226959228516,2.229001760482788,-1.4508862495422363
1732873718885068500,2.054068603515625,9.931148529052734,2.142810583114624,-1.2976573705673218
1732873718895047700,2.064047607421875,10.204087257385254,2.006340980529785,-1.0965443849563599
1732873718905075000,2.074074951171875,10.467450141906738,1.922544002532959,-1.0199298858642578
1732873718915084800,2.084084716796875,10.65898609161377,1.9393033981323242,-0.9768342971801758
1732873718925064000,2.09406396484375,10.766724586486816,1.9991583824157715,-0.8930372595787048
1732873718935073800,2.10407373046875,10.54645824432373,2.1523873805999756,-0.8595184087753296
1732873718945083600,2.114083740234375,10.038887977600098,2.3367409706115723,-0.7134721279144287
1732873718955093200,2.12409326171875,9.550470352172852,2.4827871322631836,-0.395043283700943
1732873718965072600,2.13407275390625,9.224859237670898,2.5522189140319824,0.09816227108240128
1732873718975082500,2.14408251953125,9.114726066589355,2.5115175247192383,0.6057330369949341
1732873718985092000,2.154092041015625,9.131484985351562,2.456450939178467,1.1037269830703735
1732873718995071200,2.1640712890625,9.167398452758789,2.5450363159179688,1.1803414821624756
1732873719005081000,2.1740810546875,9.066842079162598,2.5234885215759277,0.9672574996948242
1732873719015090700,2.184090576171875,8.892065048217773,2.5330653190612793,0.5434837937355042
1732873719025070000,2.194070068359375,8.927978515625,2.4420857429504395,0.2944868206977844
1732873719035080000,2.204079833984375,9.251194953918457,2.190694570541382,0.2322375625371933
1732873719045089800,2.21408984375,9.720458984375,2.0207061767578125,-0.019153613597154617
1732873719055069000,2.22406884765625,10.498574256896973,1.8770540952682495,-0.2753331959247589
1732873719065078800,2.234078857421875,11.085153579711914,2.1571757793426514,-0.9744400978088379
1732873719075088600,2.244088623046875,11.42752456665039,1.965639591217041,-0.7852981686592102
1732873719085067800,2.25406787109375,11.367670059204102,1.7764976024627686,-0.2968810200691223
1732873719095077400,2.264077392578125,10.706870079040527,1.7405846118927002,0.09816227108240128
1732873719105087200,2.274087158203125,9.892841339111328,1.766920804977417,0.4668693244457245
1732873719115066400,2.28406640625,9.10993766784668,1.8818424940109253,0.7829039692878723
1732873719125076200,2.294076171875,8.42040729522705,2.0015525817871094,1.01753568649292
1732873719135086000,2.304086181640625,7.99184513092041,2.4372973442077637,0.7374141216278076
1732873719145065200,2.314065185546875,7.759607791900635,2.7030537128448486,0.629675030708313
1732873719155075000,2.324074951171875,7.843404769897461,2.896984100341797,0.8403648138046265
1732873719165085000,2.3340849609375,7.807491779327393,3.07415509223938,1.158793568611145
1732873719175064000,2.34406396484375,7.642292022705078,3.1747114658355713,1.3623007535934448
1732873719185073700,2.35407373046875,7.311892032623291,3.2585084438323975,1.2473790645599365
1732873719195083500,2.36408349609375,7.110779285430908,3.3494882583618164,1.0079588890075684
1732873719205093000,2.374093017578125,7.127538681030273,3.2992098331451416,0.8834604024887085
1732873719215072500,2.384072509765625,7.333439826965332,3.28963303565979,0.7206547260284424
1732873719225082400,2.394082275390625,7.709329605102539,3.332728862762451,0.5985504388809204
1732873719235092000,2.404092041015625,8.109161376953125,3.4787750244140625,0.4620809257030487
1732873719245071400,2.4140712890625,8.497021675109863,3.5218706130981445,0.6344634294509888
1732873719255081200,2.424081298828125,8.322244644165039,3.7684733867645264,1.072602391242981
1732873719265090800,2.4340908203125,8.26478385925293,3.7253777980804443,1.9728221893310547
1732873719275070200,2.4440703125,9.14345645904541,4.098873138427734,0.667982280254364
1732873719285079800,2.454079833984375,10.043676376342773,4.151545524597168,0.3423708379268646
1732873719295089400,2.46408935546875,10.556035041809082,4.089296340942383,1.0821791887283325
1732873719305068800,2.47406884765625,10.809821128845215,3.8115692138671875,1.3120225667953491
1732873719315078700,2.48407861328125,11.185709953308105,3.620033025741577,0.9576807022094727
1732873719325088300,2.494088134765625,11.532869338989258,3.4811692237854004,0.7589619159698486
1732873719335067600,2.504067626953125,11.73398208618164,3.2848446369171143,0.9816226959228516
1732873719345077500,2.514077392578125,11.75792407989502,3.1938650608062744,1.3096283674240112
1732873719355087400,2.52408740234375,11.374852180480957,3.1890766620635986,1.4532804489135742
1732873719365066500,2.53406640625,10.766724586486816,3.1890766620635986,1.525106430053711
1732873719375076400,2.544076416015625,9.780313491821289,3.2369606494903564,1.6615760326385498
1732873719385086000,2.5540859375,8.35336971282959,3.3877954483032227,1.4484920501708984
1732873719395065300,2.5640654296875,7.343016624450684,3.6320040225982666,1.403002142906189
1732873719405075000,2.574074951171875,6.512228488922119,3.8714241981506348,1.37906014919281
1732873719415084800,2.584084716796875,6.078877925872803,3.9863457679748535,1.3263877630233765
1732873719425064000,2.59406396484375,5.8873419761657715,3.823540210723877,1.1180921792984009
1732873719435073800,2.60407373046875,6.315904140472412,3.624821424484253,0.9672574996948242
1732873719445083600,2.614083740234375,7.5632829666137695,3.318363666534424,0.8355764150619507
1732873719455093200,2.62409326171875,8.939949035644531,2.9735984802246094,0.5386953949928284
1732873719465072600,2.63407275390625,10.012551307678223,2.7293899059295654,0.17956513166427612
1732873719475082500,2.64408251953125,10.960655212402344,2.6001031398773193,-0.17238251864910126
1732873719485092400,2.65409228515625,11.39161205291748,2.583343744277954,-0.40701428055763245
1732873719495071200,2.6640712890625,11.590330123901367,2.717418909072876,-0.6248866319656372
1732873719505081000,2.6740810546875,11.662156105041504,2.87064790725708,-0.5817909836769104
1732873719515091000,2.684091064453125,11.654973983764648,3.023876667022705,-0.5889736413955688
1732873719525070000,2.694070068359375,11.4849853515625,3.1220390796661377,-0.608127236366272
1732873719535080000,2.704079833984375,11.283872604370117,3.203441858291626,-0.5482721924781799
1732873719545089800,2.71408984375,11.161767959594727,3.203441858291626,-0.5123591423034668
1732873719555069000,2.72406884765625,11.073183059692383,3.1651346683502197,-0.5793967843055725
1732873719565078800,2.734078857421875,11.195286750793457,2.937685489654541,-0.7469909191131592
1732873719575088600,2.744088623046875,11.513715744018555,2.5713725090026855,-0.8762778043746948
1732873719585067800,2.75406787109375,12.114660263061523,2.169146776199341,-1.0630255937576294
1732873719595077400,2.764077392578125,12.797008514404297,1.7357962131500244,-1.158793568611145
1732873719605087000,2.7740869140625,13.690045356750488,1.1180921792984009,-1.0031704902648926
1732873719615066400,2.78406640625,14.350845336914062,0.608127236366272,-0.7709329724311829
1732873719625076200,2.794076171875,14.903905868530273,0.10773907601833344,-0.4357447028160095
1732873719635086000,2.804086181640625,14.896722793579102,-0.1173158809542656,-0.2059013396501541
1732873719645065200,2.814065185546875,14.379575729370117,-0.031124621629714966,0
1732873719655075000,2.824074951171875,13.283031463623047,0.2992752194404602,-0.11252748221158981
1732873719665085000,2.8340849609375,11.650185585021973,0.8331822156906128,-0.38307225704193115
1732873719675064000,2.84406396484375,9.742006301879883,1.1635819673538208,-0.31842881441116333
1732873719685073700,2.85407373046875,8.090007781982422,1.3982137441635132,-0.16998831927776337
1732873719695083500,2.86408349609375,6.473921298980713,1.6352397203445435,-0.28730419278144836
1732873719705093000,2.874093017578125,5.449203014373779,1.9081788063049316,-0.7996633648872375
1732873719715072500,2.884072509765625,4.891354084014893,2.0661959648132324,-1.5849615335464478
1732873719725082400,2.894082275390625,4.93923807144165,2.0207061767578125,-2.274491548538208
1732873719735092000,2.904092041015625,5.442020416259766,1.7764976024627686,-2.9927520751953125
1732873719745071400,2.9140712890625,6.507440090179443,1.403002142906189,-3.1052796840667725
1732873719755081200,2.924081298828125,7.7763671875,0.9648633003234863,-2.892195701599121
1732873719765090800,2.9340908203125,8.875306129455566,0.5889736413955688,-2.296039342880249
1732873719775070200,2.9440703125,9.459490776062012,0.31124621629714966,-1.8076223134994507
1732873719785079800,2.954079833984375,9.856928825378418,0.3974374830722809,-1.3527239561080933
1732873719795089400,2.96408935546875,10.204087257385254,0.5386953949928284,-1.072602391242981
1732873719805068800,2.97406884765625,10.69489860534668,0.7948749661445618,-0.6823474764823914
1732873719815078700,2.98407861328125,10.848128318786621,1.158793568611145,-0.5961562395095825
1732873719825088300,2.994088134765625,10.615890502929688,1.7525556087493896,-0.8164227604866028
1732873719835067600,3.004067626953125,9.916783332824707,2.121262788772583,-0.8379706144332886
1732873719845077500,3.014077392578125,8.98543930053711,2.4612393379211426,-0.5267243981361389
1732873719855087400,3.02408740234375,8.056488990783691,2.6671407222747803,-0.23942017555236816
1732873719865066500,3.03406640625,7.086836814880371,2.7485435009002686,0.14844051003456116
1732873719875076400,3.044076416015625,6.2847795486450195,2.7485435009002686,0.4189853072166443
1732873719885086000,3.0540859375,5.683835029602051,2.719813108444214,0.608127236366272
1732873719895065300,3.0640654296875,5.453991413116455,2.7724854946136475,0.49320554733276367
1732873719905075000,3.074074951171875,5.7556610107421875,2.7557260990142822,0.45250412821769714
1732873719915084800,3.084084716796875,6.605602264404297,2.6647465229034424,0.2992752194404602
1732873719925064000,3.09406396484375,7.182605266571045,2.6431987285614014,0.040701430290937424
1732873719935073800,3.10407373046875,7.601590633392334,2.6001031398773193,-0.24660277366638184
1732873719945083600,3.114083740234375,7.929595947265625,2.5689783096313477,-0.5506663918495178
1732873719955093200,3.12409326171875,8.339004516601562,2.557007312774658,-0.9193734526634216
1732873719965072600,3.13407275390625,8.762778282165527,2.5450363159179688,-1.2497732639312744
1732873719975082500,3.14408251953125,9.169792175292969,2.542642116546631,-1.501164436340332
1732873719985092400,3.15409228515625,9.643844604492188,2.516305923461914,-1.6136919260025024
1732873719995071200,3.1640712890625,10.271124839782715,2.4636335372924805,-1.6687586307525635
1732873720005081000,3.1740810546875,11.039664268493652,2.4444799423217773,-1.4389152526855469
1732873720015090700,3.184090576171875,11.592724800109863,2.4205379486083984,-1.1683704853057861
1732873720025070000,3.194070068359375,11.87763500213623,2.3942017555236816,-0.8259995579719543
1732873720035080000,3.204079833984375,11.760318756103516,2.4851813316345215,-0.5506663918495178
1732873720045089800,3.21408984375,11.346121788024902,2.6623523235321045,-0.2585737705230713
1732873720055069000,3.22406884765625,10.809821128845215,2.8155810832977295,0.05027823522686958
1732873720065078800,3.234078857421875,10.38604736328125,2.829946517944336,0.38546648621559143
1732873720075088600,3.244088623046875,10.299856185913086,2.7748796939849854,0.7015010714530945
1732873720085067800,3.25406787109375,10.572794914245605,2.5953147411346436,0.9576807022094727
1732873720095077400,3.264077392578125,11.142614364624023,2.4013843536376953,1.2234370708465576
1732873720105087200,3.274087158203125,11.923124313354492,2.229001760482788,1.4508862495422363
1732873720115066400,3.28406640625,12.380416870117188,2.3535003662109375,1.3838485479354858
1732873720125076200,3.294076171875,12.449849128723145,2.2673089504241943,1.0295066833496094
1732873720135086000,3.304086181640625,12.502521514892578,1.8986018896102905,0.8858546018600464
1732873720145065200,3.314065185546875,12.461819648742676,1.5682021379470825,0.790086567401886
1732873720155075000,3.324074951171875,12.624625205993652,1.2497732639312744,0.7086837291717529
1732873720165085000,3.3340849609375,12.7946138381958,1.2234370708465576,0.5961562395095825
1732873720175064000,3.34406396484375,12.864046096801758,1.3311761617660522,0.4381389021873474
1732873720185073700,3.35407373046875,12.081141471862793,1.5945383310317993,0.16519992053508759
1732873720195083300,3.364083251953125,10.78348445892334,1.9967641830444336,-0.09576806426048279
1732873720205093000,3.374093017578125,9.816226959228516,2.0685901641845703,0.011971008032560349
1732873720215072500,3.384072509765625,9.014169692993164,1.941697597503662,0.5363011956214905
1732873720225082400,3.394082275390625,8.494627952575684,1.7908629179000854,1.2210428714752197
1732873720235092000,3.404092041015625,8.250418663024902,1.7573440074920654,1.6136919260025024
1732873720245071400,3.4140712890625,8.169015884399414,1.6136919260025024,1.8076223134994507
1732873720255081200,3.424081298828125,8.286332130432129,1.2713210582733154,2.0614075660705566
1732873720265090800,3.4340908203125,8.197746276855469,0.8595184087753296,1.9033904075622559
1732873720275070200,3.4440703125,8.032546997070312,0.5650315880775452,1.2761094570159912
1732873720285079800,3.454079833984375,8.267178535461426,0.16759411990642548,0.6512228846549988
1732873720295089400,3.46408935546875,9.011775016784668,-0.2561795711517334,0.3974374830722809
1732873720305068800,3.47406884765625,10.093954086303711,-0.44532153010368347,0.15322890877723694
1732873720315078700,3.48407861328125,10.970232009887695,-0.31603461503982544,0.0071826050989329815
1732873720325088300,3.494088134765625,11.32457447052002,0.009576806798577309,-0.016759412363171577
1732873720335067600,3.504067626953125,10.773907661437988,0.2849099934101105,0.26336219906806946
1732873720345077500,3.514077392578125,9.639056205749512,0.6488286852836609,0.37828385829925537
1732873720355087400,3.52408740234375,8.33182144165039,1.1013327836990356,0.36152446269989014
1732873720365066500,3.53406640625,7.321468830108643,1.4413094520568848,0.5793967843055725
1732873720375076400,3.544076416015625,6.2847795486450195,1.7334020137786865,0.8427590131759644
1732873720385086000,3.5540859375,5.595249176025391,2.056619167327881,0.9193734526634216
1732873720395065300,3.5640654296875,5.106832027435303,2.3056161403656006,0.9193734526634216
1732873720405075200,3.5740751953125,4.853046894073486,2.518700122833252,0.9193734526634216
1732873720415084800,3.584084716796875,4.8937482833862305,2.7222073078155518,0.8882488012313843
1732873720425064000,3.59406396484375,5.233725070953369,2.8778305053710938,0.828393816947937
1732873720435073800,3.60407373046875,5.714959621429443,2.8586769104003906,0.586579442024231
1732873720445083600,3.614083740234375,6.380547523498535,2.8227639198303223,0.40462008118629456
1732873720455093200,3.62409326171875,6.904877662658691,2.63362193107605,0.26096799969673157
1732873720465072600,3.63407275390625,7.6111674308776855,2.319981336593628,0.16998831927776337
1732873720475082500,3.64408251953125,8.463502883911133,1.9608511924743652,0.2992752194404602
1732873720485092400,3.65409228515625,9.560047149658203,1.6663644313812256,0.28969839215278625
1732873720495071200,3.6640712890625,10.369287490844727,1.45806884765625,0.08140286058187485
1732873720505081000,3.6740810546875,11.216835021972656,1.2832920551300049,-0.05746084079146385
1732873720515091000,3.684091064453125,11.918335914611816,1.115697979927063,-0.05027823522686958
1732873720525070000,3.694070068359375,12.473791122436523,1.0103530883789062,0.08619125932455063
1732873720535080000,3.704079833984375,12.660538673400879,1.0055646896362305,0.4620809257030487
1732873720545089800,3.71408984375,12.205639839172363,1.1180921792984009,0.6775590777397156
1732873720555069000,3.72406884765625,11.173739433288574,1.3527239561080933,0.8451532125473022
1732873720565078800,3.734078857421875,10.29746150970459,1.5490485429763794,0.8212111592292786
1732873720575088600,3.744088623046875,9.847352027893066,1.766920804977417,0.7493851184844971
1732873720585067800,3.75406787109375,9.610325813293457,1.9297266006469727,0.8547300100326538
1732873720595077400,3.764077392578125,9.742006301879883,2.0470423698425293,1.091755986213684
1732873720605087000,3.7740869140625,9.979032516479492,2.0925323963165283,1.2449848651885986
1732873720615066400,3.78406640625,10.457873344421387,2.1930887699127197,1.2521674633026123
1732873720625076200,3.794076171875,10.87446403503418,2.322375535964966,1.1420341730117798
1732873720635086000,3.804086181640625,10.912771224975586,2.4875755310058594,0.751779317855835
1732873720645065200,3.814065185546875,10.805032730102539,2.6671407222747803,0.3519476354122162
1732873720655075000,3.824074951171875,10.711658477783203,2.7293899059295654,0.24899697303771973
1732873720665085000,3.8340849609375,10.666168212890625,2.5785553455352783,0.17477671802043915
1732873720675064000,3.84406396484375,10.90558910369873,2.3989901542663574,0.19632454216480255
1732873720685073700,3.85407373046875,11.501745223999023,2.2457611560821533,0.3232172429561615
1732873720695083500,3.86408349609375,12.054805755615234,2.0901381969451904,0.4812345504760742
1732873720705093000,3.874093017578125,12.634202003479004,1.9919757843017578,0.5147533416748047
1732873720715072500,3.884072509765625,12.45463752746582,2.0829553604125977,0.10295066982507706
1732873720725082400,3.894082275390625,11.97100830078125,2.0207061767578125,-0.6153098344802856
1732873720735092000,3.904092041015625,11.525687217712402,1.4963760375976562,-1.0965443849563599
1732873720745071400,3.9140712890625,11.70046329498291,0.7829039692878723,-1.6136919260025024
1732873720755081200,3.924081298828125,12.564770698547363,0.002394201699644327,-1.7621324062347412
1732873720765090800,3.9340908203125,14.223952293395996,-0.8188169598579407,-1.2210428714752197
1732873720775070200,3.9440703125,15.69878101348877,-1.3479355573654175,-0.38307225704193115
1732873720785079800,3.954079833984375,15.945383071899414,-1.4508862495422363,0.18914192914962769
1732873720795089400,3.96408935546875,14.360422134399414,-1.1180921792984009,0.17477671802043915
1732873720805068800,3.97406884765625,12.291831970214844,-0.5506663918495178,0.043095629662275314
1732873720815078700,3.98407861328125,9.406818389892578,-0.0071826050989329815,-0.0071826050989329815
1732873720825088300,3.994088134765625,7.003039836883545,0.5746083855628967,-0.07422025501728058
1732873720835067600,4.004067626953125,4.651933670043945,1.137245774269104,-0.38067805767059326
1732873720845077500,4.014077392578125,3.0190882682800293,1.5729905366897583,-0.7709329724311829
1732873720855087400,4.02408740234375,2.073378562927246,1.845929503440857,-1.2066776752471924
1732873720865066500,4.03406640625,2.070984363555908,1.6855180263519287,-1.2401964664459229
1732873720875076400,4.044076416015625,2.9544448852539062,1.3072341680526733,-1.0821791887283325
1732873720885086000,4.0540859375,4.443638324737549,0.8834604024887085,-0.9672574996948242
1732873720895065300,4.0640654296875,6.0405707359313965,0.5530605912208557,-0.8140285611152649
1732873720905075200,4.0740751953125,7.881711959838867,0.33279404044151306,-0.5363011956214905
1732873720915084800,4.084084716796875,9.17936897277832,0.3711012601852417,-0.6248866319656372
1732873720925064000,4.09406396484375,10.108319282531738,0.5051765441894531,-0.7589619159698486
1732873720935073800,4.10407373046875,10.733205795288086,0.6847416758537292,-0.5195417404174805
1732873720945083600,4.114083740234375,11.183316230773926,0.790086567401886,-0.009576806798577309
1732873720955093200,4.12409326171875,11.068394660949707,1.0103530883789062,0.37828385829925537
1732873720965072600,4.13407275390625,10.228029251098633,1.4077905416488647,0.15562310814857483
1732873720975082500,4.14408251953125,9.428366661071777,1.7884687185287476,0
1732873720985092400,4.15409228515625,8.501810073852539,2.078166961669922,-0.0694318488240242
1732873720995071200,4.1640712890625,8.190564155578613,2.296039342880249,-0.028730420395731926
1732873721005081000,4.1740810546875,7.996633529663086,2.3032219409942627,0.10295066982507706
1732873721015091000,4.184091064453125,8.133103370666504,2.2601263523101807,0.2825157940387726
1732873721025070000,4.194070068359375,8.468291282653809,2.188300371170044,0.19632454216480255
1732873721035080000,4.204079833984375,8.990227699279785,2.1068975925445557,-0.035913024097681046
1732873721045089800,4.21408984375,9.425971984863281,2.056619167327881,-0.33758243918418884
1732873721055069000,4.22406884765625,9.86889934539795,1.9273324012756348,-0.5123591423034668
1732873721065078800,4.234078857421875,10.194510459899902,1.8411411046981812,-0.4596867263317108
1732873721075088400,4.24408837890625,10.256759643554688,1.7573440074920654,-0.3663128614425659
1732873721085067800,4.25406787109375,10.129867553710938,1.7573440074920654,-0.43335050344467163
1732873721095077400,4.264077392578125,9.940725326538086,1.7070658206939697,-0.6009446382522583
1732873721105087200,4.274087158203125,9.804255485534668,1.6759412288665771,-0.730231523513794
1732873721115066400,4.28406640625,9.72285270690918,1.623268723487854,-0.7254431247711182
1732873721125076200,4.294076171875,9.725247383117676,1.5969325304031372,-0.6320692300796509
1732873721135086000,4.304086181640625,9.770736694335938,1.6352397203445435,-0.4812345504760742
1732873721145065200,4.314065185546875,9.830592155456543,1.6974890232086182,-0.40940847992897034
1732873721155075000,4.324074951171875,9.854534149169922,1.7262194156646729,-0.33758243918418884
1732873721165085000,4.3340849609375,9.80904483795166,1.7836803197860718,-0.40462008118629456
1732873721175064000,4.34406396484375,9.763554573059082,1.7908629179000854,-0.37828385829925537
1732873721185073700,4.35407373046875,10.002974510192871,1.7597382068634033,-0.22026655077934265
1732873721195083500,4.36408349609375,10.24239444732666,1.802833914756775,-0.26336219906806946
1732873721205093000,4.374093017578125,10.484209060668945,1.7094600200653076,-0.35913026332855225
1732873721215072500,4.384072509765625,10.879252433776855,1.5490485429763794,-0.31603461503982544
1732873721225082400,4.394082275390625,11.413159370422363,1.4891934394836426,-0.45489832758903503
1732873721235092000,4.404092041015625,12.344504356384277,1.5131354331970215,-0.3998316824436188
1732873721245071400,4.4140712890625,13.362039566040039,1.4915876388549805,0.011971008032560349
1732873721255081200,4.424081298828125,13.97256088256836,1.3623007535934448,0.5099649429321289
1732873721265090800,4.4340908203125,13.807361602783203,1.1779472827911377,0.8882488012313843
1732873721275070000,4.444070068359375,12.787431716918945,0.7374141216278076,1.2401964664459229
1732873721285079800,4.454079833984375,12.270283699035645,0.13407529890537262,1.5825673341751099
1732873721295089700,4.464089599609375,12.27507209777832,-0.7613561153411865,1.9297266006469727
1732873721305068800,4.47406884765625,13.077129364013672,-1.3455413579940796,2.432508945465088
1732873721315078700,4.48407861328125,14.695610046386719,-1.5490485429763794,2.8658595085144043
1732873721325088300,4.494088134765625,15.478513717651367,-1.2090718746185303,2.647987127304077
1732873721335067600,4.504067626953125,14.609418869018555,-0.7182605266571045,2.3726539611816406
1732873721345077500,4.514077392578125,12.765883445739746,-0.07900865375995636,2.1571757793426514
1732873721355087400,4.52408740234375,10.498574256896973,0.49799394607543945,2.0254945755004883
1732873721365066500,4.53406640625,7.649474620819092,1.137245774269104,1.800439715385437
1732873721375076400,4.544076416015625,5.252878665924072,1.53707754611969,1.7549498081207275
1732873721385086000,4.5540859375,3.1747114658355713,1.7190368175506592,1.9273324012756348
1732873721395065300,4.5640654296875,2.121262788772583,1.6328455209732056,2.0207061767578125
1732873721405075200,4.5740751953125,1.9273324012756348,1.173158884048462,2.205059766769409
1732873721415084800,4.584084716796875,3.0597896575927734,0.6129156351089478,2.298433542251587
1732873721425064000,4.59406396484375,5.7125654220581055,-0.009576806798577309,2.0901381969451904
1732873721435073800,4.60407373046875,8.075642585754395,-0.19153612852096558,1.2689268589019775
1732873721445083600,4.614083740234375,9.974244117736816,-0.2106897532939911,0.5985504388809204
1732873721455093200,4.62409326171875,11.51611042022705,-0.13407529890537262,0.09576806426048279
1732873721465072600,4.63407275390625,11.97100830078125,0.07661445438861847,-0.31364041566848755
1732873721475082500,4.64408251953125,11.587936401367188,0.47884035110473633,-0.8236053586006165
1732873721485092400,4.65409228515625,10.54406452178955,0.7661445140838623,-1.0414776802062988
1732873721495071200,4.6640712890625,9.251194953918457,0.9816226959228516,-0.8236053586006165
1732873721505081000,4.6740810546875,8.271966934204102,1.213860273361206,-0.7134721279144287
1732873721515091000,4.684091064453125,7.6997528076171875,1.4772224426269531,-0.586579442024231
1732873721525070000,4.694070068359375,7.489062786102295,1.7693150043487549,-0.6033388376235962
1732873721535080000,4.704079833984375,7.419631004333496,2.0015525817871094,-0.6224924325942993
1732873721545089800,4.71408984375,7.601590633392334,2.190694570541382,-0.7493851184844971
1732873721555069000,4.72406884765625,7.891288757324219,2.2433669567108154,-0.8595184087753296
1732873721565078800,4.734078857421875,8.195352554321289,2.248155355453491,-0.8092401623725891
1732873721575088600,4.744088623046875,8.53293514251709,2.1811177730560303,-0.8690952062606812
1732873721585067800,4.75406787109375,8.856152534484863,2.123656988143921,-0.9361328482627869
1732873721595077400,4.764077392578125,9.196128845214844,2.013523578643799,-0.6560112833976746
1732873721605087200,4.774087158203125,9.457097053527832,1.8387469053268433,-0.22026655077934265
1732873721615066400,4.78406640625,9.653421401977539,1.745373010635376,0.19632454216480255
1732873721625076200,4.794076171875,9.576807022094727,1.6639702320098877,0.5674257874488831
1732873721635086000,4.804086181640625,9.315838813781738,1.6759412288665771,0.7445967197418213
1732873721645065200,4.814065185546875,9.11233139038086,1.742978811264038,0.8475474119186401
1732873721655075000,4.824074951171875,9.05487060546875,1.742978811264038,1.0869675874710083
1732873721665085000,4.8340849609375,9.11233139038086,1.7980455160140991,1.094150185585022
1732873721675064000,4.84406396484375,9.284713745117188,1.8794482946395874,1.0821791887283325
1732873721685073700,4.85407373046875,9.469067573547363,1.9632453918457031,1.0678139925003052
1732873721695083500,4.86408349609375,9.655815124511719,2.03507137298584,0.9888052940368652
1732873721705093000,4.874093017578125,9.677363395690918,2.0159177780151367,0.8307880163192749
1732873721715072500,4.884072509765625,10.053253173828125,1.9321208000183105,0.7398083209991455
1732873721725082400,4.894082275390625,10.366893768310547,1.7908629179000854,0.8403648138046265
1732873721735092200,4.90409228515625,10.6925048828125,1.6328455209732056,0.950498104095459
1732873721745071400,4.9140712890625,11.001357078552246,1.4676456451416016,1.0295066833496094
1732873721755081200,4.924081298828125,11.36048698425293,1.3263877630233765,0.9911994934082031
1732873721765091000,4.934091064453125,11.621455192565918,1.1827356815338135,0.7469909191131592
1732873721775070200,4.9440703125,11.856086730957031,1.1875240802764893,0.3016694188117981
1732873721785079800,4.954079833984375,11.882423400878906,1.278503656387329,-0.14365209639072418
1732873721795089700,4.964089599609375,11.669339179992676,1.6136919260025024,-0.40701428055763245
1732873721805068800,4.97406884765625,11.293449401855469,2.0183119773864746,-0.5841852426528931
1732873721815078700,4.98407861328125,10.72841739654541,2.2433669567108154,-0.7733271718025208
1732873721825088500,4.994088623046875,10.098742485046387,2.169146776199341,-0.9528923034667969
1732873721835067600,5.004067626953125,9.947908401489258,1.745373010635376,-1.1827356815338135
1732873721845077500,5.014077392578125,10.74996566772461,0.768538773059845,-1.479616641998291
1732873721855087400,5.02408740234375,12.744335174560547,-0.49799394607543945,-1.625662922859192
1732873721865066500,5.03406640625,15.263035774230957,-1.8195933103561401,-1.5873557329177856
1732873721875076400,5.044076416015625,18.193538665771484,-2.7102363109588623,-1.1109095811843872
1732873721885086000,5.0540859375,19.74737548828125,-2.935291290283203,-0.9145850539207458
1732873721895065300,5.0640654296875,19.436128616333008,-2.7437551021575928,-0.6200982332229614
1732873721905075000,5.074074951171875,17.290924072265625,-2.2385785579681396,-0.6512228846549988
1732873721915084800,5.084084716796875,13.522451400756836,-1.6400281190872192,-0.7876923680305481
1732873721925064000,5.09406396484375,9.660603523254395,-0.933738648891449,-0.7637503147125244
1732873721935073800,5.10407373046875,5.815515995025635,0.08619125932455063,-0.4381389021873474
1732873721945083600,5.114083740234375,2.806004285812378,0.730231523513794,-0.4165911078453064
1732873721955093200,5.12409326171875,0.23942017555236816,1.6759412288665771,-0.2968810200691223
1732873721965072600,5.13407275390625,-0.8858546018600464,2.1140801906585693,-0.4381389021873474
1732873721975082500,5.14408251953125,-1.0342950820922852,2.343923568725586,-0.5817909836769104
1732873721985092000,5.154092041015625,0.2944868206977844,2.1715409755706787,-0.7254431247711182
1732873721995071500,5.164071533203125,2.051830768585205,1.702277421951294,-0.8571242094039917
1732873722005081000,5.1740810546875,4.019864559173584,0.8762778043746948,-0.6871358752250671
1732873722015090700,5.184090576171875,6.18182897567749,0.1173158809542656,-0.16759411990642548
1732873722025070000,5.194070068359375,8.561665534973145,-0.4213795065879822,0.40701428055763245
1732873722035080000,5.204079833984375,10.103530883789062,-0.7469909191131592,0.871489405632019
1732873722045089500,5.214089599609375,11.257535934448242,-0.727837324142456,1.290474772453308
1732873722055069000,5.22406884765625,11.856086730957031,-0.42616790533065796,1.357512354850769
1732873722065078800,5.234078857421875,11.851298332214355,0.10055647045373917,1.1324573755264282
1732873722075088400,5.24408837890625,11.499350547790527,0.569819986820221,0.9457096457481384
1732873722085067800,5.25406787109375,11.188104629516602,0.8595184087753296,1.0582371950149536
1732873722095077400,5.264077392578125,11.0300874710083,0.9552865028381348,1.235408067703247
1732873722105087200,5.274087158203125,10.94150161743164,0.9864110946655273,1.314416766166687
1732873722115066400,5.28406640625,11.042057991027832,0.8882488012313843,1.335964560508728
1732873722125076200,5.294076171875,11.192893028259277,0.706289529800415,1.278503656387329
1732873722135086000,5.304086181640625,11.39400577545166,0.47884035110473633,1.1540051698684692
1732873722145065200,5.314065185546875,11.525687217712402,0.3495534360408783,1.0271124839782715
1732873722155075000,5.324074951171875,11.678915977478027,0.22266076505184174,0.9600749015808105
1732873722165085000,5.3340849609375,11.705251693725586,0.2082955539226532,0.8978256583213806
1732873722175064000,5.34406396484375,11.365275382995605,0.3519476354122162,0.6703764796257019
1732873722185073700,5.35407373046875,10.805032730102539,0.5339069962501526,0.5291185975074768
1732873722195083500,5.36408349609375,10.235212326049805,0.6751648783683777,0.4668693244457245
1732873722205093000,5.374093017578125,9.519346237182617,0.8643068075180054,0.4165911078453064
1732873722215072500,5.384072509765625,8.848969459533691,0.9959878921508789,0.40940847992897034
1732873722225082400,5.394082275390625,8.180987358093262,1.0749965906143188,0.47165772318840027
1732873722235092000,5.404092041015625,7.711723804473877,1.0630255937576294,0.5674257874488831
1732873722245071400,5.4140712890625,7.467514991760254,0.993593692779541,0.7589619159698486
1732873722255081200,5.424081298828125,7.55131196975708,0.9074024558067322,0.7972691655158997
1732873722265090800,5.4340908203125,7.905653953552246,0.8547300100326538,0.8259995579719543
1732873722275070200,5.4440703125,8.33182144165039,0.8307880163192749,0.8140285611152649
1732873722285079800,5.454079833984375,8.724471092224121,0.8379706144332886,0.8427590131759644
1732873722295089700,5.464089599609375,8.738836288452148,0.8236053586006165,0.8930372595787048
1732873722305068800,5.47406884765625,8.65743350982666,0.933738648891449,0.8930372595787048
1732873722315078700,5.48407861328125,8.504204750061035,1.0031704902648926,0.768538773059845
1732873722325088300,5.494088134765625,8.523358345031738,1.1085153818130493,0.6200982332229614
1732873722335067600,5.504067626953125,8.856152534484863,1.1228805780410767,0.43335050344467163
1732873722345077500,5.514077392578125,9.23443603515625,1.039083480834961,0.31842881441116333
1732873722355087400,5.52408740234375,9.569623947143555,0.9313444495201111,0.0694318488240242
1732873722365066500,5.53406640625,9.916783332824707,0.7805097699165344,-0.14604631066322327
1732873722375076400,5.544076416015625,10.366893768310547,0.6440402865409851,-0.31364041566848755
1732873722385086000,5.5540859375,10.723628997802734,0.5434837937355042,-0.5722141861915588
1732873722395065300,5.5640654296875,11.197681427001953,0.5219359993934631,-0.7254431247711182
1732873722405075000,5.574074951171875,11.461043357849121,0.5913678407669067,-0.828393816947937
1732873722415084800,5.584084716796875,11.525687217712402,0.6440402865409851,-0.9050082564353943
1732873722425064000,5.59406396484375,11.51850414276123,0.790086567401886,-0.8427590131759644
1732873722435073800,5.60407373046875,11.267112731933594,0.8930372595787048,-0.6703764796257019
1732873722445083600,5.614083740234375,10.764330863952637,0.9840168952941895,-0.45250412821769714
1732873722455093200,5.62409326171875,10.390835762023926,0.9768342971801758,-0.26815059781074524
1732873722465072600,5.63407275390625,9.962273597717285,0.9002198576927185,-0.047884032130241394
1732873722475082500,5.64408251953125,9.828198432922363,0.7182605266571045,0.14604631066322327
1732873722485092400,5.65409228515625,9.950302124023438,0.5003881454467773,0.28969839215278625
1732873722495071200,5.6640712890625,10.132261276245117,0.31603461503982544,0.28969839215278625
1732873722505081000,5.6740810546875,10.44350814819336,0.20111294090747833,0.11013327538967133
1732873722515091000,5.684091064453125,10.711658477783203,0.13168109953403473,-0.15322890877723694
1732873722525070000,5.694070068359375,10.986991882324219,0.033518824726343155,-0.3687070608139038
1732873722535080000,5.704079833984375,11.382035255432129,-0.10055647045373917,-0.4908113479614258
1732873722545089800,5.71408984375,11.777078628540039,-0.2753331959247589,-0.37828385829925537
1732873722555069000,5.72406884765625,12.193669319152832,-0.47644615173339844,-0.33518823981285095
1732873722565078800,5.734078857421875,12.51449203491211,-0.6105214357376099,-0.33518823981285095
1732873722575088600,5.744088623046875,12.741941452026367,-0.706289529800415,-0.3663128614425659
1732873722585067800,5.75406787109375,12.588712692260742,-0.7469909191131592,-0.545877993106842
1732873722595077400,5.764077392578125,12.22000503540039,-0.6631938815116882,-0.6344634294509888
1732873722605087200,5.774087158203125,11.674127578735352,-0.5889736413955688,-0.5051765441894531
1732873722615066400,5.78406640625,10.76193618774414,-0.5315127968788147,-0.3974374830722809
1732873722625076200,5.794076171875,9.998186111450195,-0.47165772318840027,-0.23942017555236816
1732873722635086000,5.804086181640625,9.17936897277832,-0.3998316824436188,-0.1867477297782898
1732873722645065200,5.814065185546875,8.616731643676758,-0.3016694188117981,-0.09816227108240128
1732873722655075000,5.824074951171875,8.288725852966309,-0.17477671802043915,0.026336219161748886
1732873722665085000,5.8340849609375,7.989450931549072,-0.0454898327589035,0.14844051003456116
1732873722675064000,5.84406396484375,7.649474620819092,0.12449848651885986,0.17238251864910126
1732873722685073700,5.85407373046875,7.089231014251709,0.3974374830722809,0.1149216815829277
1732873722695083500,5.86408349609375,6.739677906036377,0.6248866319656372,0.11252748221158981
1732873722705093000,5.874093017578125,6.560112476348877,0.8619126081466675,0.181959331035614
1732873722715072500,5.884072509765625,6.6127848625183105,1.0845733880996704,0.2059013396501541
1732873722725082400,5.894082275390625,7.117961883544922,1.280897855758667,0.2561795711517334
1732873722735092200,5.90409228515625,7.915230751037598,1.2521674633026123,0.4596867263317108
1732873722745071400,5.9140712890625,8.583212852478027,1.1204863786697388,0.49799394607543945
1732873722755081200,5.924081298828125,9.239224433898926,1.0247182846069336,0.33518823981285095
1732873722765091000,5.934091064453125,9.90241813659668,1.0295066833496094,0.23942017555236816
1732873722775070200,5.9440703125,10.556035041809082,0.8595184087753296,0.0933738648891449
1732873722785079800,5.954079833984375,10.948684692382812,0.8164227604866028,-0.3280056416988373
1732873722795089700,5.964089599609375,11.17852783203125,0.8379706144332886,-0.8667010068893433
1732873722805068800,5.97406884765625,11.57596492767334,0.7254431247711182,-1.0606313943862915
1732873722815078700,5.98407861328125,11.987768173217773,0.6177040338516235,-0.8427590131759644
1732873722825088500,5.994088623046875,12.251130104064941,0.5291185975074768,-0.5937620401382446
1732873722835067600,6.004067626953125,12.440272331237793,0.49799394607543945,-0.3232172429561615
1732873722845077500,6.014077392578125,12.205639839172363,0.6584054827690125,-0.31124621629714966
1732873722855087400,6.02408740234375,11.288661003112793,0.950498104095459,-0.5602431893348694
1732873722865066500,6.03406640625,10.072406768798828,1.3215993642807007,-0.8188169598579407
1732873722875076400,6.044076416015625,9.23682975769043,1.6089035272598267,-0.9361328482627869
1732873722885086000,6.0540859375,8.628703117370605,1.8124107122421265,-0.871489405632019
1732873722895065300,6.0640654296875,8.348581314086914,1.9800047874450684,-0.7852981686592102
1732873722905075000,6.074074951171875,8.224082946777344,2.094926595687866,-0.7206547260284424
1732873722915084800,6.084084716796875,8.24084186553955,2.1787235736846924,-0.6847416758537292
1732873722925064000,6.09406396484375,8.259995460510254,2.1978771686553955,-0.6799532771110535
1732873722935073800,6.10407373046875,8.11634349822998,2.2625205516815186,-0.7469909191131592
1732873722945083600,6.114083740234375,8.008605003356934,2.2242133617401123,-0.6512228846549988
1732873722955093200,6.12409326171875,7.970297336578369,2.166752576828003,-0.5530605912208557
1732873722965072600,6.13407275390625,8.149862289428711,2.070984363555908,-0.5027823448181152
1732873722975082500,6.14408251953125,8.432378768920898,1.9393033981323242,-0.47405192255973816
1732873722985092000,6.154092041015625,8.755595207214355,1.8100165128707886,-0.3974374830722809
1732873722995071500,6.164071533203125,9.097966194152832,1.6663644313812256,-0.2585737705230713
1732873723005081000,6.1740810546875,9.397241592407227,1.6112977266311646,-0.033518824726343155
1732873723015090700,6.184090576171875,9.576807022094727,1.6089035272598267,0.19871874153614044
1732873723025070000,6.194070068359375,9.545681953430176,1.7262194156646729,0.3734954595565796
1732873723035080000,6.204079833984375,9.337387084960938,1.8555063009262085,0.5386953949928284
1732873723045089500,6.214089599609375,9.050082206726074,1.944091796875,0.586579442024231
1732873723055069000,6.22406884765625,8.762778282165527,2.054224967956543,0.507570743560791
1732873723065078800,6.234078857421875,8.652645111083984,2.056619167327881,0.49799394607543945
1732873723075088400,6.24408837890625,8.640673637390137,2.0398597717285156,0.2777273952960968
1732873723085067500,6.254067626953125,8.80587387084961,2.030282974243164,-0.09576806426048279
1732873723095077400,6.264077392578125,9.167398452758789,1.968033790588379,-0.19632454216480255
1732873723105087200,6.274087158203125,9.622296333312988,1.8818424940109253,-0.18914192914962769
1732873723115066400,6.28406640625,10.101137161254883,1.9776105880737305,-0.16519992053508759
1732873723125076200,6.294076171875,10.441113471984863,2.1356279850006104,-0.12449848651885986
1732873723135086000,6.304086181640625,10.498574256896973,2.3271639347076416,0.06703764945268631
1732873723145065200,6.314065185546875,10.043676376342773,2.5665841102600098,0.17477671802043915
1732873723155075000,6.324074951171875,9.289502143859863,2.695871114730835,0.24181437492370605
1732873723165085000,6.3340849609375,8.916007041931152,2.7269957065582275,0.5650315880775452
1732873723175064000,6.34406396484375,8.978256225585938,2.7102363109588623,0.6919242739677429
1732873723185073700,6.35407373046875,9.260771751403809,2.7533318996429443,0.5650315880775452
1732873723195083500,6.36408349609375,9.859322547912598,2.7485435009002686,0.5770025849342346
1732873723205093000,6.374093017578125,10.527304649353027,2.7030537128448486,0.7182605266571045
1732873723215072500,6.384072509765625,10.970232009887695,2.6815059185028076,0.8164227604866028
1732873723225082400,6.394082275390625,11.159374237060547,2.719813108444214,0.7852981686592102
1732873723235092000,6.404092041015625,11.133037567138672,2.7988216876983643,0.7015010714530945
1732873723245071400,6.4140712890625,11.034875869750977,2.9089550971984863,0.6272808313369751
1732873723255081200,6.424081298828125,10.78587818145752,2.9472622871398926,0.5578489899635315
1732873723265090800,6.4340908203125,10.527304649353027,3.0119056701660156,0.3447650372982025
1732873723275070000,6.444070068359375,10.3549222946167,3.134010076522827,0.038307227194309235
1732873723285079800,6.454079833984375,10.302249908447266,3.157952070236206,-0.14604631066322327
1732873723295089700,6.464089599609375,10.168174743652344,3.1292216777801514,-0.2082955539226532
1732873723305068800,6.47406884765625,9.955090522766113,3.155557870864868,-0.31124621629714966
1732873723315078700,6.48407861328125,9.801861763000488,3.2106244564056396,-0.3734954595565796
1732873723325088300,6.494088134765625,9.658209800720215,3.1316158771514893,-0.4165911078453064
1732873723335067600,6.504067626953125,9.725247383117676,3.117250680923462,-0.4213795065879822
1732873723345077500,6.514077392578125,9.727641105651855,3.026270866394043,-0.5937620401382446
1732873723355087400,6.52408740234375,9.852140426635742,2.942473888397217,-0.6488286852836609
1732873723365066500,6.53406640625,10.134655952453613,2.894589900970459,-0.6799532771110535
1732873723375076400,6.544076416015625,10.280701637268066,2.892195701599121,-0.6512228846549988
1732873723385086000,6.5540859375,10.256759643554688,2.956839084625244,-0.5219359993934631
1732873723395065300,6.5640654296875,10.091560363769531,3.1052796840667725,-0.3256114423274994
1732873723405075000,6.574074951171875,9.86889934539795,3.5458126068115234,-0.3256114423274994
1732873723415084800,6.584084716796875,9.442731857299805,3.9001545906066895,-0.4189853072166443
1732873723425064000,6.59406396484375,8.980650901794434,3.955221176147461,-0.6943184733390808
1732873723435073800,6.60407373046875,8.461109161376953,3.600879430770874,-1.1803414821624756
1732873723445083600,6.614083740234375,8.456320762634277,2.7916390895843506,-1.4532804489135742
1732873723455093200,6.62409326171875,9.77791976928711,1.41257905960083,-1.6855180263519287
1732873723465072600,6.63407275390625,12.430695533752441,-0.07661445438861847,-1.5059528350830078
1732873723475082500,6.64408251953125,15.959748268127441,-1.7190368175506592,-0.9289502501487732
1732873723485092400,6.65409228515625,18.696321487426758,-2.626439332962036,-0.5386953949928284
1732873723495071200,6.6640712890625,20.094533920288086,-3.002328872680664,-0.38307225704193115
1732873723505081000,6.6740810546875,18.83757972717285,-2.9903578758239746,-0.4644751250743866
1732873723515091000,6.684091064453125,16.139312744140625,-2.564189910888672,-0.5961562395095825
1732873723525070000,6.694070068359375,12.538434028625488,-1.8411411046981812,-1.0965443849563599
1732873723535080000,6.704079833984375,9.409213066101074,-1.2306196689605713,-1.1803414821624756
1732873723545089800,6.71408984375,6.4595561027526855,-0.5530605912208557,-0.9840168952941895
1732873723555069000,6.72406884765625,4.668693542480469,-0.19632454216480255,-0.7445967197418213
1732873723565078800,6.734078857421875,3.794809579849243,0.3902548849582672,-0.8667010068893433
1732873723575088600,6.744088623046875,3.7277719974517822,1.0079588890075684,-1.357512354850769
1732873723585067800,6.75406787109375,3.9384617805480957,1.5490485429763794,-2.209848165512085
1732873723595077400,6.764077392578125,4.290409564971924,1.886630892753601,-2.6192567348480225
1732873723605087200,6.774087158203125,4.517858505249023,2.073378562927246,-2.6671407222747803
1732873723615066400,6.78406640625,4.28322696685791,2.1811177730560303,-2.671929121017456
1732873723625076200,6.794076171875,3.5386300086975098,2.1787235736846924,-2.4133553504943848
1732873723635086000,6.804086181640625,3.3063924312591553,1.8148049116134644,-1.7310078144073486
1732873723645065200,6.814065185546875,3.8379054069519043,1.4987702369689941,-1.036689281463623
1732873723655075000,6.824074951171875,5.130774021148682,1.1228805780410767,-0.304063618183136
1732873723665085000,6.8340849609375,6.7492547035217285,0.7254431247711182,0.2346317619085312
1732873723675064000,6.84406396484375,8.60236644744873,0.545877993106842,0.31124621629714966
1732873723685073700,6.85407373046875,9.782708168029785,0.6272808313369751,0.047884032130241394
1732873723695083500,6.86408349609375,10.793061256408691,0.8379706144332886,-0.272938996553421
1732873723705093000,6.874093017578125,11.39400577545166,1.01753568649292,-0.42616790533065796
1732873723715072500,6.884072509765625,11.595118522644043,1.290474772453308,-0.4213795065879822
1732873723725082400,6.894082275390625,11.487380027770996,1.4676456451416016,-0.3711012601852417
1732873723735092200,6.90409228515625,11.12346076965332,1.7286136150360107,-0.22026655077934265
1732873723745071400,6.9140712890625,10.608707427978516,1.8962076902389526,-0.22026655077934265
1732873723755081200,6.924081298828125,10.072406768798828,2.0853497982025146,-0.28730419278144836
1732873723765091000,6.934091064453125,9.59596061706543,2.2433669567108154,-0.31124621629714966
1732873723775070200,6.9440703125,9.287108421325684,2.3271639347076416,-0.22505496442317963
1732873723785079800,6.954079833984375,9.045293807983398,2.293645143508911,-0.08379705995321274
1732873723795089700,6.964089599609375,9.0859956741333,2.248155355453491,0.019153613597154617
1732873723805068800,6.97406884765625,9.205705642700195,2.22660756111145,-0.09576806426048279
1732873723815078700,6.98407861328125,9.411606788635254,2.094926595687866,-0.24899697303771973
1732873723825088500,6.994088623046875,9.837775230407715,1.9177556037902832,-0.3471592366695404
1732873723835067600,7.004067626953125,10.254365921020508,1.7357962131500244,-0.38067805767059326
1732873723845077500,7.014077392578125,10.512939453125,1.6519991159439087,-0.37828385829925537
1732873723855087400,7.02408740234375,10.615890502929688,1.625662922859192,-0.3208230137825012
1732873723865066500,7.03406640625,10.563218116760254,1.6711528301239014,-0.2106897532939911
1732873723875076400,7.044076416015625,10.457873344421387,1.764526605606079,-0.18914192914962769
1732873723885086000,7.0540859375,10.393229484558105,1.920149803161621,-0.2968810200691223
1732873723895065300,7.0640654296875,10.500968933105469,1.922544002532959,-0.3734954595565796
1732873723905075200,7.0740751953125,10.752359390258789,1.9393033981323242,-0.4429273009300232
1732873723915084800,7.084084716796875,11.367670059204102,1.9129672050476074,-0.45010992884635925
1732873723925064000,7.09406396484375,11.966219902038574,1.9345149993896484,-0.2346317619085312
1732873723935073800,7.10407373046875,12.251130104064941,1.8291701078414917,0.10295066982507706
1732873723945083400,7.11408349609375,11.990161895751953,1.702277421951294,0.40701428055763245
1732873723955093200,7.12409326171875,11.925518989562988,1.8626888990402222,0.49559974670410156
1732873723965072600,7.13407275390625,12.22000503540039,2.142810583114624,0.43095630407333374
1732873723975082500,7.14408251953125,12.595894813537598,2.5785553455352783,0.1604115068912506
1732873723985092000,7.154092041015625,12.868834495544434,2.849100112915039,-0.08619125932455063
1732873723995071500,7.164071533203125,12.519280433654785,2.7772738933563232,-0.28969839215278625
1732873724005081000,7.1740810546875,12.047622680664062,2.190694570541382,-0.08379705995321274
1732873724015090700,7.184090576171875,11.827356338500977,1.335964560508728,0.07661445438861847
1732873724025070000,7.194070068359375,12.260706901550293,-0.1364694982767105,0.15322890877723694
1732873724035080000,7.204079833984375,13.369222640991211,-1.3263877630233765,0.6248866319656372
1732873724045089500,7.214089599609375,15.263035774230957,-2.169146776199341,1.3838485479354858
1732873724055069000,7.22406884765625,16.28057098388672,-2.2409727573394775,1.6208745241165161
1732873724065078800,7.234078857421875,15.377957344055176,-1.50355863571167,0.9720458984375
1732873724075088400,7.24408837890625,12.715604782104492,-0.7158663272857666,0.5147533416748047
1732873724085067500,7.254067626953125,10.043676376342773,-0.06703764945268631,0.2801215946674347
1732873724095077400,7.264077392578125,7.010222434997559,0.6248866319656372,0.16998831927776337
1732873724105087200,7.274087158203125,4.486733913421631,0.912190854549408,0.2561795711517334
1732873724115066400,7.28406640625,2.4420857429504395,1.4269442558288574,0.33518823981285095
1732873724125076200,7.294076171875,1.4532804489135742,1.6041151285171509,0.49799394607543945
1732873724135086000,7.304086181640625,1.3551181554794312,1.4532804489135742,0.9576807022094727
1732873724145065200,7.314065185546875,2.212242364883423,1.0965443849563599,1.259350061416626
1732873724155075000,7.324074951171875,4.331110954284668,0.7182605266571045,1.3215993642807007
1732873724165085000,7.3340849609375,6.536170482635498,0.49320554733276367,1.015141487121582
1732873724175064000,7.34406396484375,8.08043098449707,0.45010992884635925,0.7541735172271729
1732873724185073700,7.35407373046875,9.648633003234863,0.5386953949928284,0.5171475410461426
1732873724195083500,7.36408349609375,10.47942066192627,0.6751648783683777,0.42856210470199585
1732873724205093000,7.374093017578125,10.613495826721191,0.8738836050033569,0.4836287498474121
1732873724215072500,7.384072509765625,10.218452453613281,1.0606313943862915,0.5889736413955688
1732873724225082400,7.394082275390625,9.536105155944824,1.2880805730819702,0.5913678407669067
1732873724235092000,7.404092041015625,9.030928611755371,1.4867992401123047,0.49799394607543945
1732873724245071400,7.4140712890625,8.937555313110352,1.6903064250946045,0.35913026332855225
1732873724255081200,7.424081298828125,9.107542991638184,1.8339585065841675,0.2537853717803955
1732873724265090800,7.4340908203125,9.205705642700195,2.032677173614502,0.1364694982767105
1732873724275070200,7.4440703125,9.217676162719727,2.1116859912872314,0.1364694982767105
1732873724285079800,7.454079833984375,9.121908187866211,2.183511972427368,0.05985504388809204
1732873724295089700,7.464089599609375,9.117119789123535,2.164358377456665,0.12928688526153564
1732873724305069000,7.474069091796875,9.14585018157959,2.207453966140747,0.0933738648891449
1732873724315078700,7.48407861328125,9.191340446472168,2.2625205516815186,0.016759412363171577
1732873724325088300,7.494088134765625,9.337387084960938,2.276885747909546,0.033518824726343155
1732873724335067600,7.504067626953125,9.387664794921875,2.231395959854126,0.09816227108240128
1732873724345077500,7.514077392578125,9.313444137573242,2.1547815799713135,0.090979665517807
1732873724355087400,7.52408740234375,9.320627212524414,2.099714994430542,0.12928688526153564
1732873724365066500,7.53406640625,9.454702377319336,1.9728221893310547,0.3064578175544739
1732873724375076400,7.544076416015625,9.57441234588623,1.886630892753601,0.5315127968788147
1732873724385086200,7.554086181640625,9.66299819946289,1.7860745191574097,0.7469909191131592
1732873724395065300,7.5640654296875,9.634267807006836,1.8171991109848022,0.9481038451194763
1732873724405075000,7.574074951171875,9.320627212524414,1.8770540952682495,1.015141487121582
1732873724415084800,7.584084716796875,8.916007041931152,1.9800047874450684,1.0079588890075684
1732873724425064000,7.59406396484375,8.544905662536621,2.0638017654418945,1.05105459690094
1732873724435073800,7.60407373046875,8.248024940490723,2.183511972427368,0.993593692779541
1732873724445083600,7.614083740234375,8.101978302001953,2.3750481605529785,0.6775590777397156
1732873724455093200,7.62409326171875,8.154650688171387,2.4875755310058594,0.31603461503982544
1732873724465072600,7.63407275390625,8.540117263793945,2.4899697303771973,-0.15322890877723694
1732873724475082500,7.64408251953125,9.370905876159668,2.427720546722412,-0.363918662071228
1732873724485092400,7.65409228515625,10.32858657836914,2.31758713722229,-0.5051765441894531
1732873724495071200,7.6640712890625,11.27190113067627,2.0877439975738525,-0.3878606855869293
1732873724505081000,7.6740810546875,12.222399711608887,1.9153614044189453,-0.1149216815829277
1732873724515091000,7.684091064453125,12.823344230651855,1.8722656965255737,-0.11971008777618408
1732873724525070000,7.694070068359375,12.933477401733398,1.8100165128707886,-0.3208230137825012
1732873724535080000,7.704079833984375,12.861651420593262,1.4724340438842773,-1.0127472877502441
1732873724545089500,7.714089599609375,12.823344230651855,0.8475474119186401,-1.659181833267212
1732873724555069000,7.72406884765625,13.364434242248535,0.26575639843940735,-2.655169725418091
1732873724565078800,7.734078857421875,14.698003768920898,-0.26815059781074524,-3.1938650608062744
1732873724575088600,7.744088623046875,16.28775405883789,-1.5155296325683594,-1.7741034030914307
1732873724585067800,7.75406787109375,16.812084197998047,-2.47560453414917,0.18914192914962769
1732873724595077400,7.764077392578125,15.921441078186035,-2.4013843536376953,0.849941611289978
1732873724605087200,7.774087158203125,13.75468921661377,-1.802833914756775,0.6560112833976746
1732873724615066400,7.78406640625,11.159374237060547,-0.9816226959228516,0.11971008777618408
1732873724625076200,7.794076171875,8.24084186553955,0.10534487664699554,-0.8092401623725891
1732873724635086000,7.804086181640625,5.762843608856201,1.0223240852355957,-1.9584569931030273
1732873724645065200,7.814065185546875,3.620033025741577,1.8579005002975464,-3.0119056701660156
1732873724655075000,7.824074951171875,2.4229321479797363,2.2361843585968018,-3.5673606395721436
1732873724665085000,7.8340849609375,2.0661959648132324,2.0685901641845703,-3.6296098232269287
1732873724675064000,7.84406396484375,3.0765492916107178,1.455674648284912,-2.911349296569824
1732873724685073700,7.85407373046875,5.463568210601807,0.9050082564353943,-2.094926595687866
1732873724695083500,7.86408349609375,7.295132637023926,0.5482721924781799,-1.4891934394836426
1732873724705093000,7.874093017578125,8.7268648147583,0.31364041566848755,-0.8930372595787048
1732873724715072500,7.884072509765625,9.739612579345703,0.2777273952960968,-0.545877993106842
1732873724725082400,7.894082275390625,10.620678901672363,0.38067805767059326,-0.38067805767059326
1732873724735092200,7.90409228515625,10.855310440063477,0.4884171485900879,-0.2944868206977844
1732873724745071400,7.9140712890625,10.65898609161377,0.6823474764823914,-0.2082955539226532
1732873724755081200,7.924081298828125,10.1753568649292,0.9624691009521484,-0.2059013396501541
1732873724765091000,7.934091064453125,9.636661529541016,1.2832920551300049,-0.16759411990642548
1732873724775070200,7.9440703125,8.844181060791016,1.5969325304031372,-0.1628057211637497
1732873724785079800,7.954079833984375,8.13789176940918,1.8052281141281128,-0.1604115068912506
1732873724795089700,7.964089599609375,7.419631004333496,1.8914192914962769,-0.08619125932455063
1732873724805069000,7.974069091796875,7.1251444816589355,1.9057846069335938,-0.0071826050989329815
1732873724815078700,7.98407861328125,6.979097843170166,1.8626888990402222,0.05746084079146385
1732873724825088500,7.994088623046875,7.122750282287598,1.778891921043396,-0.09816227108240128
1732873724835067600,8.004067626953125,7.42681360244751,1.6855180263519287,-0.2992752194404602
1732873724845077500,8.014077392578125,8.034940719604492,1.4724340438842773,-0.33997663855552673
1732873724855087400,8.02408740234375,8.951920509338379,1.2258312702178955,-0.23942017555236816
1732873724865066500,8.03406640625,9.880870819091797,0.9983820915222168,-0.19632454216480255
1732873724875076400,8.044076416015624,10.484209060668945,0.8451532125473022,-0.13407529890537262
1732873724885086200,8.054086181640624,11.051634788513184,0.7852981686592102,-0.026336219161748886
1732873724895065300,8.0640654296875,11.319786071777344,0.8882488012313843,-0.07182604819536209
1732873724905075200,8.0740751953125,11.224017143249512,1.1516109704971313,-0.10055647045373917
1732873724915084800,8.084084716796875,10.886435508728027,1.4053963422775269,-0.021547814831137657
1732873724925064000,8.09406396484375,10.436325073242188,1.6687586307525635,-0.07661445438861847
1732873724935073800,8.10407373046875,10.038887977600098,1.8698714971542358,-0.13168109953403473
1732873724945083400,8.11408349609375,9.832986831665039,1.9560627937316895,-0.14844051003456116
1732873724955093200,8.12409326171875,9.75397777557373,1.8938134908676147,-0.09576806426048279
1732873724965072600,8.13407275390625,9.856928825378418,1.941697597503662,0.035913024097681046
1732873724975082500,8.14408251953125,10.228029251098633,1.98958158493042,0.2992752194404602
1732873724985092000,8.154092041015625,10.558429718017578,1.9967641830444336,0.2082955539226532
1732873724995071500,8.164071533203124,10.994174003601074,1.802833914756775,0.021547814831137657
1732873725005081000,8.1740810546875,11.571176528930664,1.623268723487854,-0.047884032130241394
1732873725015090700,8.184090576171876,12.473791122436523,1.4317326545715332,0.05027823522686958
1732873725025070000,8.194070068359375,13.594277381896973,1.41257905960083,0.36152446269989014
1732873725035080000,8.204079833984375,14.585476875305176,1.2832920551300049,0.6057330369949341
1732873725045089500,8.214089599609375,15.00925064086914,1.2545616626739502,0.6847416758537292
1732873725055069000,8.22406884765625,14.956578254699707,1.2761094570159912,0.004788403399288654
1732873725065078800,8.234078857421874,13.61103630065918,0.7445967197418213,-0.5626373887062073
1732873725075088400,8.24408837890625,12.770671844482422,-0.016759412363171577,-0.5913678407669067
1732873725085067800,8.25406787109375,12.725181579589844,-1.2761094570159912,0.5123591423034668
1732873725095077400,8.264077392578125,13.060370445251465,-2.3247697353363037,1.7932571172714233
1732873725105087200,8.274087158203125,13.64455509185791,-2.9688100814819336,2.896984100341797
1732873725115066400,8.28406640625,13.79060173034668,-2.9257144927978516,3.066972494125366
1732873725125076200,8.294076171875,12.876016616821289,-2.166752576828003,2.2625205516815186
1732873725135086000,8.304086181640624,11.417947769165039,-1.2952631711959839,1.3287819623947144
1732873725145065200,8.314065185546875,9.260771751403809,-0.4357447028160095,0.8355764150619507
1732873725155075000,8.324074951171875,6.916848659515381,0.016759412363171577,0.646434485912323
1732873725165085000,8.3340849609375,4.606443881988525,0.4572925269603729,0.8595184087753296
1732873725175064000,8.34406396484375,3.0861260890960693,0.6967126727104187,0.9959878921508789
1732873725185073700,8.35407373046875,2.607285737991333,0.5602431893348694,1.2761094570159912
1732873725195083500,8.36408349609375,3.313575267791748,0.1388636976480484,1.625662922859192
1732873725205093000,8.374093017578126,5.147533416748047,-0.3495534360408783,1.7812861204147339
1732873725215072500,8.384072509765625,7.843404769897461,-0.7565677165985107,1.6280571222305298
1732873725225082400,8.394082275390625,9.35654067993164,-0.9481038451194763,1.1971008777618408
1732873725235092000,8.404092041015625,10.716446876525879,-0.7445967197418213,0.6512228846549988
1732873725245071400,8.4140712890625,11.41555404663086,-0.5123591423034668,0.3734954595565796
1732873725255081200,8.424081298828124,11.197681427001953,-0.021547814831137657,-0.2346317619085312
1732873725265090800,8.4340908203125,10.283096313476562,0.4908113479614258,-0.5841852426528931
1732873725275070200,8.4440703125,9.102754592895508,0.871489405632019,-0.6392518281936646
1732873725285079800,8.454079833984375,7.972691535949707,1.1013327836990356,-0.3471592366695404
1732873725295089700,8.464089599609375,7.321468830108643,1.3048399686813354,-0.15322890877723694
1732873725305069000,8.474069091796874,6.988674640655518,1.4987702369689941,-0.06703764945268631
1732873725315078700,8.48407861328125,7.168240070343018,1.5825673341751099,0.05506663769483566
1732873725325088300,8.494088134765626,7.3669586181640625,1.5658079385757446,0.11252748221158981
1732873725335067600,8.504067626953125,7.42681360244751,1.6041151285171509,-0.0933738648891449
1732873725345077500,8.514077392578125,7.527369976043701,1.766920804977417,-0.42377370595932007
1732873725355087400,8.52408740234375,7.65186882019043,1.821987509727478,-0.7781155705451965
1732873725365066500,8.53406640625,7.95832633972168,1.941697597503662,-0.9289502501487732
1732873725375076400,8.544076416015624,8.379706382751465,1.8770540952682495,-0.8212111592292786
1732873725385086200,8.554086181640624,8.791508674621582,1.7190368175506592,-0.586579442024231
1732873725395065300,8.5640654296875,9.196128845214844,1.5490485429763794,-0.35673606395721436
1732873725405075000,8.574074951171875,9.569623947143555,1.436521053314209,-0.21547815203666687
1732873725415084800,8.584084716796875,9.765948295593262,1.3694833517074585,-0.15322890877723694
1732873725425064000,8.59406396484375,10.376470565795898,1.4987702369689941,-0.608127236366272
1732873725435073800,8.60407373046875,9.888052940368652,1.577778935432434,-0.42856210470199585
1732873725445083600,8.614083740234374,9.856928825378418,1.6687586307525635,-0.4692635238170624
1732873725455093200,8.62409326171875,9.375694274902344,1.8315643072128296,-0.2298433631658554
1732873725465072600,8.63407275390625,8.951920509338379,1.721431016921997,0.11013327538967133
1732873725475082500,8.64408251953125,8.762778282165527,1.6639702320098877,0.11252748221158981
1732873725485092400,8.65409228515625,8.920795440673828,1.659181833267212,0.031124621629714966
1732873725495071200,8.6640712890625,9.32541561126709,1.6424223184585571,-0.1173158809542656
1732873725505081000,8.6740810546875,10.235212326049805,1.6400281190872192,-0.1364694982767105
1732873725515091000,8.684091064453124,11.037269592285156,1.556231141090393,-0.08140286058187485
1732873725525070000,8.694070068359375,12.229581832885742,1.5322890281677246,0
1732873725535080000,8.704079833984375,13.127408027648926,1.5131354331970215,-0.043095629662275314
1732873725545089800,8.71408984375,13.773842811584473,1.4915876388549805,-0.1604115068912506
1732873725555069000,8.72406884765625,14.015656471252441,1.6663644313812256,-0.2298433631658554
1732873725565078800,8.734078857421874,13.927071571350098,1.9177556037902832,0.016759412363171577
1732873725575088600,8.744088623046874,13.453019142150879,2.027888774871826,0.33518823981285095
1732873725585067800,8.75406787109375,12.57913589477539,1.8962076902389526,0.3998316824436188
1732873725595077400,8.764077392578125,11.224017143249512,1.5921441316604614,-0.12210428714752197
1732873725605087200,8.774087158203125,10.237606048583984,0.811634361743927,-0.8140285611152649
1732873725615066400,8.78406640625,10.450690269470215,-0.2944868206977844,-1.091755986213684
1732873725625076200,8.794076171875,11.93509578704834,-1.556231141090393,-0.9385270476341248
1732873725635085800,8.8040859375,14.391546249389648,-2.3942017555236816,-0.5410895943641663
1732873725645065200,8.814065185546875,16.21592903137207,-2.698265314102173,0.14604631066322327
1732873725655075000,8.824074951171875,17.07305145263672,-2.695871114730835,0.524330198764801
1732873725665085000,8.8340849609375,16.256629943847656,-2.3295583724975586,0.31842881441116333
1732873725675064000,8.84406396484375,13.953407287597656,-2.188300371170044,0.24181437492370605
1732873725685073700,8.85407373046875,11.228805541992188,-1.7190368175506592,0.05985504388809204
1732873725695083500,8.86408349609375,8.358158111572266,-1.1803414821624756,0.23942017555236816
1732873725705093000,8.874093017578126,6.0597243309021,-0.6320692300796509,0.040701430290937424
1732873725715072500,8.884072509765625,4.1611223220825195,0.08379705995321274,-0.7350199222564697
1732873725725082400,8.894082275390625,2.8586769104003906,0.8164227604866028,-1.9153614044189453
1732873725735092200,8.90409228515625,2.6001031398773193,1.3694833517074585,-2.8586769104003906
1732873725745071400,8.9140712890625,3.023876667022705,1.558625340461731,-3.4141316413879395
1732873725755081200,8.924081298828124,4.055777549743652,1.4460978507995605,-3.4308910369873047
1732873725765090800,8.9340908203125,5.552153587341309,1.1851298809051514,-3.1483752727508545
1732873725775070200,8.9440703125,6.993463039398193,0.8690952062606812,-2.5234885215759277
1732873725785079800,8.954079833984375,8.145073890686035,0.49559974670410156,-1.6711528301239014
1732873725795089700,8.964089599609375,8.513781547546387,0.35673606395721436,-1.0031704902648926
1732873725805069000,8.974069091796874,8.815450668334961,0.43095630407333374,-0.5817909836769104
1732873725815078700,8.98407861328125,9.11233139038086,0.4692635238170624,-0.181959331035614
1732873725825088500,8.994088623046874,9.124302864074707,0.524330198764801,0.10295066982507706
1732873725835067600,9.004067626953125,9.05247688293457,0.6488286852836609,0.12449848651885986
1732873725845077500,9.014077392578125,8.81784439086914,0.9576807022094727,-0.09576806426048279
1732873725855087400,9.02408740234375,8.315062522888184,1.3263877630233765,-0.35434186458587646
1732873725865066500,9.03406640625,8.38688850402832,1.6184803247451782,-0.7781155705451965
1732873725875076400,9.044076416015624,8.56645393371582,1.802833914756775,-0.8044517636299133
1732873725885086200,9.054086181640624,8.89445972442627,1.8794482946395874,-0.6224924325942993
1732873725895065300,9.0640654296875,9.138668060302734,1.7836803197860718,-0.29209262132644653
1732873725905075000,9.074074951171875,9.253589630126953,1.6328455209732056,0.05746084079146385
1732873725915084800,9.084084716796875,9.248801231384277,1.4221558570861816,0.22266076505184174
1732873725925064000,9.09406396484375,9.188945770263672,1.2330138683319092,0.43335050344467163
1732873725935073800,9.10407373046875,9.167398452758789,0.993593692779541,0.6536170840263367
1732873725945083600,9.114083740234374,9.531316757202148,0.790086567401886,0.9385270476341248
1732873725955093200,9.12409326171875,9.995792388916016,0.6033388376235962,1.1061211824417114
1732873725965072600,9.13407275390625,10.493785858154297,0.6200982332229614,1.158793568611145
1732873725975082500,9.14408251953125,10.740388870239258,0.7015010714530945,0.8068459630012512
1732873725985092000,9.154092041015625,10.754754066467285,1.9369091987609863,-0.9026140570640564
1732873725995071500,9.164071533203124,10.283096313476562,1.6065093278884888,-0.5770025849342346
1732873726005081000,9.1740810546875,9.57201862335205,1.9752163887023926,-1.0199298858642578
1732873726015090700,9.184090576171876,8.822632789611816,2.212242364883423,-0.9911994934082031
1732873726025070000,9.194070068359375,8.542511940002441,2.233790159225464,-1.0342950820922852
1732873726035080000,9.204079833984375,8.755595207214355,2.1787235736846924,-0.8523358106613159
1732873726045089500,9.214089599609375,9.47146224975586,1.7812861204147339,-0.4357447028160095
1732873726055069000,9.22406884765625,10.378864288330078,1.4484920501708984,0.06703764945268631
1732873726065078800,9.234078857421874,11.073183059692383,1.1803414821624756,0.28730419278144836
1732873726075088400,9.24408837890625,11.417947769165039,0.9433154463768005,0.16998831927776337
1732873726085067800,9.25406787109375,11.621455192565918,0.9816226959228516,0.002394201699644327
1732873726095077400,9.264077392578125,12.016498565673828,1.0606313943862915,0.021547814831137657
1732873726105087200,9.274087158203125,12.447454452514648,1.3742717504501343,0.05746084079146385
1732873726115066400,9.28406640625,13.048398971557617,1.4772224426269531,0.3280056416988373
1732873726125076200,9.294076171875,13.144166946411133,1.3718775510787964,0.4812345504760742
1732873726135086000,9.304086181640624,12.708422660827637,1.015141487121582,0.5171475410461426
1732873726145065200,9.314065185546875,12.22000503540039,0.33279404044151306,0.47884035110473633
1732873726155075000,9.324074951171875,12.33253288269043,-0.7876923680305481,0.5051765441894531
1732873726165085000,9.3340849609375,13.764266014099121,-1.9560627937316895,0.9193734526634216
1732873726175064000,9.34406396484375,15.478513717651367,-2.6360161304473877,1.1468225717544556
1732873726185073700,9.35407373046875,17.006013870239258,-3.184288263320923,2.070984363555908
1732873726195083500,9.36408349609375,17.099388122558594,-2.9017724990844727,2.3247697353363037
1732873726205093000,9.374093017578126,15.334861755371094,-1.9369091987609863,1.4437036514282227
1732873726215072500,9.384072509765625,12.385205268859863,-1.0821791887283325,0.7948749661445618
1732873726225082400,9.394082275390625,9.105149269104004,-0.38307225704193115,0.5123591423034668
1732873726235092000,9.404092041015625,6.607996463775635,-0.07661445438861847,0.8930372595787048
1732873726245071400,9.4140712890625,4.412513732910156,0.363918662071228,1.192312479019165
1732873726255081200,9.424081298828124,2.8155810832977295,0.5961562395095825,1.5179238319396973
1732873726265090800,9.4340908203125,2.2577321529388428,0.6129156351089478,1.723825216293335
1732873726275070200,9.4440703125,2.6623523235321045,0.47644615173339844,1.8124107122421265
1732873726285079800,9.454079833984375,3.957615375518799,0.20350714027881622,1.766920804977417
1732873726295089700,9.464089599609375,5.894524574279785,-0.021547814831137657,1.5514427423477173
1732873726305069000,9.474069091796874,7.522581577301025,0.05746084079146385,0.9265560507774353
1732873726315078700,9.48407861328125,8.968679428100586,0.15083470940589905,0.2561795711517334
1732873726325088300,9.494088134765626,9.99339771270752,0.22026655077934265,-0.07182604819536209
1732873726335067600,9.504067626953125,10.690110206604004,0.44532153010368347,-0.2968810200691223
1732873726345077500,9.514077392578125,10.771512985229492,0.5746083855628967,-0.3998316824436188
1732873726355087400,9.52408740234375,10.620678901672363,0.7637503147125244,-0.45010992884635925
1732873726365066500,9.53406640625,10.362105369567871,0.9002198576927185,-0.5027823448181152
1732873726375076400,9.544076416015624,9.897629737854004,1.0055646896362305,-0.4692635238170624
1732873726385086200,9.554086181640624,9.50737476348877,1.1540051698684692,-0.5410895943641663
1732873726395065300,9.5640654296875,9.232041358947754,1.2665326595306396,-0.5722141861915588
1732873726405075000,9.574074951171875,8.87291145324707,1.3287819623947144,-0.6416460275650024
1732873726415084800,9.584084716796875,8.722076416015625,1.4317326545715332,-0.6799532771110535
1732873726425064000,9.59406396484375,8.614337921142578,1.501164436340332,-0.6440402865409851
1732873726435073800,9.60407373046875,8.49941635131836,1.53707754611969,-0.6009446382522583
1732873726445083600,9.614083740234374,8.564059257507324,1.5634137392044067,-0.4620809257030487
1732873726455093200,9.62409326171875,8.731653213500977,1.5322890281677246,-0.33758243918418884
1732873726465072600,9.63407275390625,8.908824920654297,1.556231141090393,-0.22505496442317963
1732873726475082500,9.64408251953125,8.987833023071289,1.5849615335464478,-0.0694318488240242
1732873726485092400,9.65409228515625,9.014169692993164,1.5442601442337036,0.1173158809542656
1732873726495071200,9.6640712890625,9.05247688293457,1.5729905366897583,0.2082955539226532
1732873726505081000,9.6740810546875,8.971074104309082,1.5753847360610962,0.2298433631658554
1732873726515091000,9.684091064453124,8.877699851989746,1.5945383310317993,0.21308395266532898
1732873726525070000,9.694070068359375,8.908824920654297,1.5873557329177856,0.23702596127986908
1732873726535080000,9.704079833984375,8.935160636901855,1.5849615335464478,0.27054479718208313
1732873726545089800,9.71408984375,9.090784072875977,1.5658079385757446,0.4429273009300232
1732873726555069000,9.72406884765625,9.38048267364502,1.5394717454910278,0.7374141216278076
1732873726565078800,9.734078857421874,9.583989143371582,1.623268723487854,0.8906430602073669
1732873726575088400,9.74408837890625,9.6989107131958,1.8339585065841675,0.7350199222564697
1732873726585067800,9.75406787109375,9.710882186889648,1.9943699836730957,0.6320692300796509
1732873726595077400,9.764077392578125,9.830592155456543,2.1380221843719482,0.5291185975074768
1732873726605087200,9.774087158203125,10.125079154968262,2.229001760482788,0.33758243918418884
1732873726615066400,9.78406640625,10.47702693939209,2.188300371170044,0.31364041566848755
1732873726625076200,9.794076171875,10.951078414916992,2.0853497982025146,0.14604631066322327
1732873726635085800,9.8040859375,11.434707641601562,1.9321208000183105,-0.0694318488240242
1732873726645065200,9.814065185546875,11.920730590820312,1.7190368175506592,-0.49799394607543945
1732873726655075000,9.824074951171875,12.354081153869629,1.4748282432556152,-0.9313444495201111
1732873726665085000,9.8340849609375,12.820950508117676,1.192312479019165,-1.3886369466781616
1732873726675064000,9.84406396484375,13.232752799987793,1.1563993692398071,-1.742978811264038
1732873726685073700,9.85407373046875,13.603854179382324,1.4053963422775269,-1.9776105880737305
1732873726695083500,9.86408349609375,13.448230743408203,1.6831238269805908,-2.049436569213867
1732873726705093000,9.874093017578126,12.622231483459473,1.8483237028121948,-2.3726539611816406
1732873726715072500,9.884072509765625,11.243170738220215,1.5658079385757446,-2.9328970909118652
1732873726725082400,9.894082275390625,10.390835762023926,0.9026140570640564,-3.3016040325164795
1732873726735092200,9.90409228515625,10.57040023803711,-0.2753331959247589,-3.224989652633667
1732873726745071400,9.9140712890625,11.597513198852539,-1.3455413579940796,-2.8658595085144043
1732873726755081200,9.924081298828124,13.623007774353027,-2.1308395862579346,-2.0829553604125977
1732873726765091000,9.934091064453124,15.770606994628906,-2.4420857429504395,-1.3024457693099976
1732873726775070200,9.9440703125,17.049110412597656,-2.3367409706115723,-0.9409212470054626
1732873726785079800,9.954079833984375,16.395492553710938,-1.8267759084701538,-1.400607943534851
1732873726795089700,9.964089599609375,14.034810066223145,-1.2641384601593018,-1.8914192914962769
1732873726805069000,9.974069091796874,10.826580047607422,-0.6703764796257019,-2.3295583724975586
1732873726815078700,9.98407861328125,7.50582218170166,-0.26336219906806946,-2.164358377456665
1732873726825088300,9.994088134765626,5.12119722366333,0.5578489899635315,-2.535459518432617
1732873726835067600,10.004067626953125,3.2992098331451416,0.9983820915222168,-2.5929205417633057
1732873726845077500,10.014077392578125,2.070984363555908,1.1109095811843872,-2.252943754196167
1732873726855087400,10.02408740234375,2.073378562927246,0.9864110946655273,-1.5969325304031372
1732873726865066500,10.03406640625,3.002328872680664,0.8020575642585754,-1.0582371950149536
1732873726875076400,10.044076416015624,4.371812343597412,0.5626373887062073,-0.47165772318840027
1732873726885086200,10.054086181640624,6.088454723358154,0.3208230137825012,0.2968810200691223
1732873726895065300,10.0640654296875,7.333439826965332,0.19393034279346466,0.6631938815116882
1732873726905075200,10.0740751953125,8.465897560119629,0.44771572947502136,0.6943184733390808
1732873726915084800,10.084084716796875,9.41639518737793,0.7805097699165344,0.5219359993934631
1732873726925064000,10.09406396484375,9.964667320251465,1.1348515748977661,0.17238251864910126
1732873726935073800,10.10407373046875,10.259154319763184,1.4101848602294922,-0.0933738648891449
1732873726945083400,10.11408349609375,10.228029251098633,1.580173134803772,-0.2513911724090576
1732873726955093200,10.12409326171875,9.938331604003906,1.8052281141281128,-0.1604115068912506
1732873726965072600,10.13407275390625,9.569623947143555,1.8818424940109253,0.002394201699644327
1732873726975082500,10.14408251953125,8.96149730682373,1.8483237028121948,0.2944868206977844
1732873726985092000,10.154092041015625,8.564059257507324,1.9081788063049316,0.3974374830722809
1732873726995071500,10.164071533203124,8.255207061767578,1.9129672050476074,0.47165772318840027
1732873727005081000,10.1740810546875,8.027758598327637,1.9393033981323242,0.42856210470199585
1732873727015090700,10.184090576171876,8.037335395812988,1.9153614044189453,0.3280056416988373
1732873727025070000,10.194070068359375,8.324639320373535,1.9153614044189453,0.2753331959247589
1732873727035080000,10.204079833984375,8.65982723236084,1.821987509727478,0.2801215946674347
1732873727045089500,10.214089599609375,8.98543930053711,1.7573440074920654,0.2561795711517334
1732873727055069000,10.22406884765625,9.188945770263672,1.7597382068634033,0.08619125932455063
1732873727065078800,10.234078857421874,9.334992408752441,1.7525556087493896,-0.15322890877723694
1732873727075088400,10.24408837890625,9.469067573547363,1.6855180263519287,-0.2849099934101105
1732873727085067800,10.25406787109375,9.569623947143555,1.6328455209732056,-0.3447650372982025
1732873727095077400,10.264077392578125,9.75637149810791,1.5897499322891235,-0.2992752194404602
1732873727105087200,10.274087158203125,9.99339771270752,1.5825673341751099,-0.33518823981285095
1732873727115066400,10.28406640625,10.110713958740234,1.6424223184585571,-0.5147533416748047
1732873727125076200,10.294076171875,10.204087257385254,1.8171991109848022,-0.7254431247711182
1732873727135086000,10.304086181640624,10.086771965026855,1.9297266006469727,-0.912190854549408
1732873727145065200,10.314065185546875,9.916783332824707,2.0470423698425293,-1.1468225717544556
1732873727155075000,10.324074951171875,9.873687744140625,2.1763293743133545,-1.482010841369629
1732873727165085000,10.3340849609375,10.017339706420898,2.1930887699127197,-1.6879122257232666
1732873727175064000,10.34406396484375,10.369287490844727,2.0925323963165283,-1.6759412288665771
1732873727185073700,10.35407373046875,10.793061256408691,1.9345149993896484,-1.5873557329177856
1732873727195083500,10.36408349609375,11.350910186767578,1.821987509727478,-1.4891934394836426
1732873727205093000,10.374093017578126,11.91354751586914,1.7884687185287476,-1.41257905960083
1732873727215072500,10.384072509765625,12.378023147583008,1.800439715385437,-1.2114660739898682
1732873727225082400,10.394082275390625,12.789825439453125,1.9967641830444336,-1.0678139925003052
1732873727235092000,10.404092041015625,12.871228218078613,2.3582887649536133,-0.7948749661445618
1732873727245071400,10.4140712890625,12.162544250488281,2.5713725090026855,-0.6967126727104187
1732873727255081200,10.424081298828124,11.042057991027832,2.3726539611816406,-0.524330198764801
1732873727265090800,10.4340908203125,10.287884712219238,1.556231141090393,-0.363918662071228
1732873727275070200,10.4440703125,10.541669845581055,0.5841852426528931,-0.304063618183136
1732873727285079800,10.454079833984375,11.894393920898438,-0.7924807667732239,0.1173158809542656
1732873727295089700,10.464089599609375,14.45619010925293,-1.7860745191574097,0.7613561153411865
1732873727305069000,10.474069091796874,16.862361907958984,-2.300827741622925,1.2880805730819702
1732873727315078700,10.48407861328125,17.55907440185547,-2.0207061767578125,1.4724340438842773
1732873727325088300,10.494088134765626,15.873557090759277,-1.316810965538025,1.1971008777618408
1732873727335067600,10.504067626953125,13.201627731323242,-0.9672574996948242,1.1204863786697388
1732873727345077500,10.514077392578125,10.220847129821777,-0.11971008777618408,0.950498104095459
1732873727355087400,10.52408740234375,7.637503623962402,0.6775590777397156,0.4596867263317108
1732873727365066500,10.53406640625,5.403713226318359,1.5107412338256836,0.11971008777618408
1732873727375076400,10.544076416015624,3.1483752727508545,1.9488801956176758,0.20111294090747833
1732873727385086200,10.554086181640624,1.7094600200653076,2.0183119773864746,0.7852981686592102
1732873727395065300,10.5640654296875,0.9600749015808105,1.8291701078414917,1.479616641998291
1732873727404910600,10.57391064453125,1.2114660739898682,1.482010841369629,1.7693150043487549
1732873727415084800,10.584084716796875,2.6216509342193604,1.1851298809051514,1.4101848602294922
1732873727425064000,10.59406396484375,4.355052947998047,0.8786720037460327,0.6272808313369751
1732873727435073800,10.60407373046875,6.682217121124268,0.5985504388809204,0.028730420395731926
1732873727445083600,10.614083740234374,8.851364135742188,0.40940847992897034,-0.2968810200691223
1732873727455093200,10.62409326171875,10.912771224975586,0.4884171485900879,-0.5123591423034668
1732873727465072600,10.63407275390625,12.157755851745605,0.7493851184844971,-0.6416460275650024
1732873727475082500,10.64408251953125,12.502521514892578,0.950498104095459,-0.5674257874488831
1732873727485092400,10.65409228515625,12.344504356384277,1.0414776802062988,-0.2992752194404602
1732873727495071200,10.6640712890625,11.798625946044922,1.1516109704971313,-0.1867477297782898
1732873727505081000,10.6740810546875,10.982203483581543,1.2832920551300049,-0.29209262132644653
1732873727515091000,10.684091064453124,10.180145263671875,1.3934253454208374,-0.4596867263317108
1732873727525070000,10.694070068359375,9.497797966003418,1.580173134803772,-0.6320692300796509
1732873727535080000,10.704079833984375,8.98543930053711,1.644816517829895,-0.7350199222564697
1732873727545089800,10.71408984375,8.44195556640625,1.699883222579956,-0.6943184733390808
1732873727555069000,10.72406884765625,8.068459510803223,1.843535304069519,-0.7086837291717529
1732873727565078800,10.734078857421874,7.728483200073242,1.965639591217041,-0.8068459630012512
1732873727575088600,10.744088623046874,7.5968017578125,1.9991583824157715,-0.8475474119186401
1732873727585067800,10.75406787109375,7.615955829620361,2.0422539710998535,-0.8403648138046265
1732873727595077400,10.764077392578125,7.7763671875,2.006340980529785,-0.7948749661445618
1732873727605087200,10.774087158203125,8.066065788269043,1.9584569931030273,-0.7661445140838623
1732873727615066400,10.78406640625,8.449137687683105,1.7884687185287476,-0.6224924325942993
1732873727625076200,10.794076171875,8.640673637390137,1.601720929145813,-0.2585737705230713
1732873727635086000,10.804086181640624,8.712499618530273,1.4053963422775269,-0.12689268589019775
1732873727645065200,10.814065185546875,8.786720275878906,1.3024457693099976,-0.13168109953403473
1732873727655075000,10.824074951171875,9.071630477905273,1.1276689767837524,-0.08140286058187485
1732873727665085000,10.8340849609375,9.346963882446289,1.0199298858642578,-0.12210428714752197
1732873727675064000,10.84406396484375,9.679757118225098,1.0462661981582642,-0.26096799969673157
1732873727685073700,10.85407373046875,9.93354320526123,1.0199298858642578,-0.3471592366695404
1732873727695083500,10.86408349609375,10.105925559997559,1.0079588890075684,-0.3711012601852417
1732873727705093000,10.874093017578126,10.381258964538574,0.993593692779541,-0.40701428055763245
1732873727715072500,10.884072509765625,10.685321807861328,1.015141487121582,-0.5770025849342346
1732873727725082400,10.894082275390625,11.159374237060547,1.0821791887283325,-0.7996633648872375
1732873727735092200,10.90409228515625,11.60948371887207,1.1875240802764893,-0.8906430602073669
1732873727745071400,10.9140712890625,12.164938926696777,1.2521674633026123,-0.9744400978088379
1732873727755081200,10.924081298828124,12.4785795211792,1.292868971824646,-0.9600749015808105
1732873727765091000,10.934091064453124,12.586318016052246,1.338358759880066,-0.8858546018600464
1732873727775070200,10.9440703125,12.485761642456055,1.4844050407409668,-0.8164227604866028
1732873727785079800,10.954079833984375,12.126631736755371,1.558625340461731,-0.7757213711738586
1732873727795089700,10.964089599609375,11.523292541503906,1.577778935432434,-0.5554547905921936
1732873727805069000,10.974069091796874,10.953473091125488,1.5969325304031372,-0.38546648621559143
1732873727815078700,10.98407861328125,10.110713958740234,1.556231141090393,-0.35913026332855225
1732873727825088500,10.994088623046874,9.287108421325684,1.4628572463989258,-0.5746083855628967
1732873727835067600,11.004067626953125,8.724471092224121,1.0893617868423462,-0.768538773059845
1732873727845077500,11.014077392578125,8.810662269592285,0.4620809257030487,-0.9385270476341248
1732873727855087400,11.02408740234375,9.806650161743164,-0.3208230137825012,-1.1803414821624756
1732873727865066500,11.03406640625,11.310209274291992,-0.950498104095459,-1.3527239561080933
1732873727875076400,11.044076416015624,13.326127052307129,-1.5155296325683594,-1.4293384552001953
1732873727885086200,11.054086181640624,14.815320014953613,-1.7860745191574097,-1.414973258972168
1732873727895065300,11.0640654296875,15.31570816040039,-1.7118542194366455,-1.4748282432556152
1732873727905075200,11.0740751953125,14.353239059448242,-1.292868971824646,-1.7549498081207275
1732873727915084800,11.084084716796875,12.70602798461914,-1.2952631711959839,-1.577778935432434
1732873727925064000,11.09406396484375,11.166556358337402,-0.9983820915222168,-1.4748282432556152
1732873727935073800,11.10407373046875,9.986215591430664,-0.730231523513794,-1.577778935432434
1732873727945083600,11.114083740234374,8.923190116882324,-0.5171475410461426,-1.7190368175506592
1732873727955093200,11.12409326171875,8.29590892791748,-0.524330198764801,-1.6903064250946045
1732873727965072600,11.13407275390625,7.733271598815918,-0.5219359993934631,-1.5394717454910278
1732873727975082500,11.14408251953125,7.24485445022583,-0.4812345504760742,-1.4077905416488647
1732873727985092000,11.154092041015625,6.845022678375244,-0.37828385829925537,-1.3455413579940796
1732873727995071500,11.164071533203124,6.567295074462891,-0.2585737705230713,-1.2521674633026123
1732873728005081000,11.1740810546875,6.36378812789917,-0.26336219906806946,-1.0821791887283325
1732873728015090700,11.184090576171876,6.1052141189575195,-0.272938996553421,-1.0319008827209473
1732873728025070000,11.194070068359375,5.920860767364502,-0.06224924325942993,-1.2521674633026123
1732873728035080000,11.204079833984375,5.992686748504639,0.23942017555236816,-1.5969325304031372
1732873728045089500,11.214089599609375,6.550535678863525,0.47644615173339844,-1.8698714971542358
1732873728055069000,11.22406884765625,7.508216381072998,0.5602431893348694,-2.140416383743286
1732873728065078800,11.234078857421874,8.609549522399902,0.545877993106842,-2.274491548538208
1732873728075088400,11.24408837890625,9.763554573059082,0.4812345504760742,-2.252943754196167
1732873728085067800,11.25406787109375,10.450690269470215,0.304063618183136,-2.190694570541382
1732873728095077400,11.264077392578125,10.984597206115723,0.12449848651885986,-1.968033790588379
1732873728105087200,11.274087158203125,11.274295806884766,-0.033518824726343155,-1.659181833267212
1732873728115066400,11.28406640625,11.305420875549316,-0.17956513166427612,-1.479616641998291
1732873728125076200,11.294076171875,11.262324333190918,-0.2513911724090576,-1.41257905960083
1732873728135086000,11.304086181640624,11.377246856689453,-0.24181437492370605,-1.4437036514282227
1732873728145065200,11.314065185546875,11.623848915100098,-0.15322890877723694,-1.601720929145813
1732873728155075000,11.324074951171875,11.719616889953613,-0.06224924325942993,-1.7094600200653076
1732873728165085000,11.3340849609375,11.75553035736084,0.06224924325942993,-1.8363527059555054
1732873728175064000,11.34406396484375,11.604695320129395,0.19632454216480255,-1.9991583824157715
1732873728185073700,11.35407373046875,11.420342445373535,0.24660277366638184,-2.1164743900299072
1732873728195083500,11.36408349609375,11.046846389770508,0.20111294090747833,-2.1523873805999756
1732873728205093000,11.374093017578126,10.594342231750488,0.15801730751991272,-2.274491548538208
1732873728215072500,11.384072509765625,10.278307914733887,0.10534487664699554,-2.365471363067627
1732873728225082400,11.394082275390625,10.012551307678223,0.040701430290937424,-2.6623523235321045
1732873728235092000,11.404092041015625,9.888052940368652,-0.014365210197865963,-2.8610711097717285
1732873728245071400,11.4140712890625,9.947908401489258,-0.11013327538967133,-2.8419175148010254
1732873728255081200,11.424081298828124,10.340557098388672,-0.15083470940589905,-2.691082715988159
1732873728265090800,11.4340908203125,10.72841739654541,-0.13407529890537262,-2.492363929748535
1732873728275070200,11.4440703125,11.001357078552246,0.031124621629714966,-2.250549554824829
1732873728285080000,11.454080078125,10.919954299926758,0.16519992053508759,-2.0207061767578125
1732873728295089700,11.464089599609375,10.47942066192627,0.3663128614425659,-1.7956513166427612
1732873728305069000,11.474069091796874,9.864110946655273,0.49799394607543945,-1.558625340461731
1732873728315078700,11.48407861328125,9.198522567749023,0.5937620401382446,-1.3072341680526733
1732873728325088300,11.494088134765626,8.71728801727295,0.5985504388809204,-1.1827356815338135
1732873728335067600,11.504067626953125,8.508993148803711,0.5219359993934631,-1.2042834758758545
1732873728345077500,11.514077392578125,8.643068313598633,0.4381389021873474,-1.4413094520568848
1732873728355087400,11.52408740234375,8.956708908081055,0.2849099934101105,-1.6160861253738403
1732873728365066500,11.53406640625,9.41400146484375,0.035913024097681046,-1.7357962131500244
1732873728375076400,11.544076416015624,9.99100399017334,-0.24660277366638184,-1.6759412288665771
1732873728385086200,11.554086181640624,10.620678901672363,-0.5434837937355042,-1.3910311460494995
1732873728395065300,11.5640654296875,10.986991882324219,-0.6919242739677429,-1.2090718746185303
1732873728405075000,11.574074951171875,11.05642318725586,-0.629675030708313,-1.0797849893569946
1732873728415084800,11.584084716796875,10.709263801574707,-0.4644751250743866,-1.070208191871643
1732873728425064000,11.59406396484375,10.072406768798828,-0.11971008777618408,-1.113303780555725
1732873728435073800,11.60407373046875,9.3828763961792,0.15322890877723694,-1.1324573755264282
1732873728445083600,11.614083740234374,8.628703117370605,0.4381389021873474,-1.1420341730117798
1732873728455093200,11.62409326171875,7.922413349151611,0.5961562395095825,-1.0821791887283325
1732873728465072600,11.63407275390625,7.539340972900391,0.6584054827690125,-0.9217676520347595
1732873728475082500,11.64408251953125,7.400477409362793,0.7374141216278076,-0.8020575642585754
1732873728485092400,11.65409228515625,7.740454196929932,0.8379706144332886,-0.6344634294509888
1732873728495071200,11.6640712890625,8.307879447937012,0.933738648891449,-0.3926490843296051
1732873728505081000,11.6740810546875,8.722076416015625,1.036689281463623,-0.24181437492370605
1732873728515091000,11.684091064453124,8.89685344696045,1.1563993692398071,-0.07900865375995636
1732873728525070000,11.694070068359375,8.83939266204834,1.2066776752471924,-0.035913024097681046
1732873728535080000,11.704079833984375,8.712499618530273,1.161187767982483,-0.08140286058187485
1732873728545089500,11.714089599609375,8.65743350982666,1.0654197931289673,-0.17956513166427612
1732873728555069000,11.72406884765625,8.913613319396973,0.8403648138046265,-0.28730419278144836
1732873728565078800,11.734078857421874,9.6989107131958,0.6153098344802856,-0.3016694188117981
1732873728575088600,11.744088623046874,10.651803016662598,0.30885201692581177,-0.26575639843940735
1732873728585067800,11.75406787109375,11.884817123413086,0.0933738648891449,-0.07661445438861847
1732873728595077400,11.764077392578125,12.880805015563965,-0.040701430290937424,0.2561795711517334
1732873728605087200,11.774087158203125,13.479355812072754,-0.05027823522686958,0.5961562395095825
1732873728615066400,11.78406640625,13.33809757232666,0.14365209639072418,0.6631938815116882
1732873728625076200,11.794076171875,12.200851440429688,0.3663128614425659,0.5482721924781799
1732873728635086000,11.804086181640624,11.166556358337402,0.5530605912208557,0.6200982332229614
1732873728645065200,11.814065185546875,9.940725326538086,0.5315127968788147,0.6033388376235962
1732873728655075000,11.824074951171875,9.215282440185547,0.36152446269989014,0.7110779285430908
1732873728665085000,11.8340849609375,8.633491516113281,0.19153612852096558,0.7350199222564697
1732873728675064000,11.84406396484375,8.468291282653809,0.16998831927776337,0.5195417404174805
1732873728685073700,11.85407373046875,8.336610794067383,0.10773907601833344,0.26336219906806946
1732873728695083500,11.86408349609375,8.391676902770996,0.05746084079146385,-0.014365210197865963
1732873728705093000,11.874093017578126,8.458714485168457,0.0071826050989329815,-0.05506663769483566
1732873728715072500,11.884072509765625,8.698134422302246,-0.181959331035614,-0.011971008032560349
1732873728725082400,11.894082275390625,9.169792175292969,-0.3256114423274994,0.11252748221158981
1732873728735092000,11.904092041015625,9.57441234588623,-0.5770025849342346,0.20111294090747833
1732873728745071400,11.9140712890625,9.72285270690918,-0.7757213711738586,0.2298433631658554
1732873728755081200,11.924081298828124,9.880870819091797,-0.8619126081466675,0.0694318488240242
1732873728765091000,11.934091064453124,9.916783332824707,-1.0103530883789062,0.12210428714752197
1732873728775070200,11.9440703125,10.02452278137207,-1.0749965906143188,0.2561795711517334
1732873728785080000,11.954080078125,9.883264541625977,-1.1300631761550903,0.2944868206977844
1732873728795089700,11.964089599609375,9.830592155456543,-1.1563993692398071,0.2801215946674347
1732873728805069000,11.974069091796874,9.861717224121094,-1.1300631761550903,0.18914192914962769
1732873728815078700,11.98407861328125,9.890447616577148,-1.0869675874710083,0.21547815203666687
1732873728825088500,11.994088623046874,9.873687744140625,-0.9481038451194763,0.1867477297782898
1732873728835067600,12.004067626953125,9.919178009033203,-0.7589619159698486,0.09576806426048279
1732873728845077500,12.014077392578125,9.8784761428833,-0.5339069962501526,-0.2777273952960968
1732873728855087400,12.02408740234375,9.80904483795166,-0.3495534360408783,-0.6703764796257019
1732873728865066500,12.03406640625,9.914389610290527,-0.26336219906806946,-0.8954314589500427
1732873728875076400,12.044076416015624,10.101137161254883,-0.3519476354122162,-0.8164227604866028
1732873728885086200,12.054086181640624,10.441113471984863,-0.47165772318840027,-0.6272808313369751
1732873728895065300,12.0640654296875,10.819397926330566,-0.5363011956214905,-0.5650315880775452
1732873728905075200,12.0740751953125,11.429919242858887,-0.5219359993934631,-0.38546648621559143
1732873728915084800,12.084084716796875,11.81299114227295,-0.47644615173339844,-0.30885201692581177
1732873728925064000,12.09406396484375,12.064382553100586,-0.3758896589279175,-0.2849099934101105
1732873728935073800,12.10407373046875,11.97100830078125,-0.2537853717803955,-0.304063618183136
1732873728945083600,12.114083740234374,11.647790908813477,-0.13168109953403473,-0.2059013396501541
1732873728955093200,12.12409326171875,11.094730377197266,-0.028730420395731926,0.10055647045373917
1732873728965072600,12.13407275390625,10.393229484558105,0.09576806426048279,0.3208230137825012
1732873728975082500,12.14408251953125,9.337387084960938,0.3232172429561615,0.5626373887062073
1732873728985092000,12.154092041015625,8.365341186523438,0.5171475410461426,0.6943184733390808
1732873728995071500,12.164071533203124,7.589619159698486,0.7230489253997803,0.7086837291717529
1732873729005081000,12.1740810546875,7.467514991760254,0.7565677165985107,0.7733271718025208
1732873729015090700,12.184090576171876,7.9846625328063965,0.7254431247711182,0.7781155705451965
1732873729025070000,12.194070068359375,9.038111686706543,0.6727706789970398,0.8164227604866028
1732873729035080000,12.204079833984375,10.089165687561035,0.7086837291717529,0.8427590131759644
1732873729045089500,12.214089599609375,10.94150161743164,0.8379706144332886,0.7230489253997803
1732873729055069000,12.22406884765625,11.444284439086914,1.0319008827209473,0.6248866319656372
1732873729065078800,12.234078857421874,11.54244613647461,1.161187767982483,0.545877993106842
1732873729075088400,12.24408837890625,11.355698585510254,1.2449848651885986,0.5841852426528931
1732873729085067800,12.25406787109375,10.955866813659668,1.3239935636520386,0.8068459630012512
1732873729095077400,12.264077392578125,10.663774490356445,1.3215993642807007,0.9648633003234863
1732873729105087200,12.274087158203125,10.536881446838379,1.3503297567367554,0.8547300100326538
1732873729115066400,12.28406640625,10.311826705932617,1.3120225667953491,0.6967126727104187
1732873729125076200,12.294076171875,10.108319282531738,1.1899182796478271,0.6488286852836609
1732873729135086000,12.304086181640624,9.921571731567383,1.115697979927063,0.8379706144332886
1732873729145065200,12.314065185546875,9.706093788146973,1.1348515748977661,0.8810662031173706
1732873729155075000,12.324074951171875,9.531316757202148,1.1971008777618408,0.811634361743927
1732873729165085000,12.3340849609375,9.435548782348633,1.2761094570159912,0.6727706789970398
1732873729175064000,12.34406396484375,9.361329078674316,1.4628572463989258,0.21547815203666687
1732873729185073700,12.35407373046875,9.279925346374512,1.5442601442337036,-0.10534487664699554
1732873729195083500,12.36408349609375,9.186552047729492,1.5083470344543457,-0.08379705995321274
1732873729205093000,12.374093017578126,9.263166427612305,1.4317326545715332,-0.26575639843940735
1732873729215072500,12.384072509765625,9.373299598693848,1.4963760375976562,-0.3471592366695404
1732873729225082400,12.394082275390625,9.188945770263672,1.45806884765625,-0.2753331959247589
1732873729235092000,12.404092041015625,9.184157371520996,1.4508862495422363,-0.1149216815829277
1732873729245071400,12.4140712890625,9.217676162719727,1.381454348564148,0.22505496442317963
1732873729255081200,12.424081298828124,9.423578262329102,1.2066776752471924,0.5434837937355042
1732873729265090800,12.4340908203125,9.718064308166504,1.015141487121582,0.9840168952941895
1732873729275070200,12.4440703125,9.691728591918945,0.9720458984375,1.1994950771331787
1732873729285080000,12.454080078125,9.478644371032715,1.161187767982483,1.070208191871643
1732873729295089700,12.464089599609375,9.150638580322266,1.3096283674240112,0.8571242094039917
1732873729305068800,12.47406884765625,8.834604263305664,1.3287819623947144,0.7254431247711182
1732873729315078700,12.48407861328125,8.705317497253418,1.3120225667953491,0.47405192255973816
1732873729325088300,12.494088134765626,8.966285705566406,1.2018892765045166,0.24181437492370605
1732873729335067600,12.504067626953125,9.48343276977539,0.9648633003234863,-0.004788403399288654
1732873729345077500,12.514077392578125,10.319009780883789,0.7374141216278076,-0.2082955539226532
1732873729355087400,12.52408740234375,11.281478881835938,0.6009446382522583,-0.2801215946674347
1732873729365066500,12.53406640625,12.038045883178711,0.4884171485900879,-0.16519992053508759
1732873729375076400,12.544076416015624,12.306197166442871,0.49559974670410156,-0.002394201699644327
1732873729385086200,12.554086181640624,12.047622680664062,0.7709329724311829,0.09576806426048279
1732873729395065300,12.5640654296875,11.063606262207031,1.0079588890075684,0.24181437492370605
1732873729405075000,12.574074951171875,9.945513725280762,1.2282254695892334,0.363918662071228
1732873729415084800,12.584084716796875,8.904036521911621,1.5155296325683594,0.3447650372982025
1732873729425064000,12.59406396484375,8.166622161865234,1.6903064250946045,0.13407529890537262
1732873729435073800,12.60407373046875,8.008605003356934,1.8483237028121948,-0.002394201699644327
1732873729445083600,12.614083740234374,8.133103370666504,1.8986018896102905,-0.3423708379268646
1732873729455093200,12.62409326171875,8.542511940002441,1.8818424940109253,-0.48602294921875
1732873729465072600,12.63407275390625,8.916007041931152,1.7597382068634033,-0.5722141861915588
1732873729475082500,12.64408251953125,9.2033109664917,1.6136919260025024,-0.5722141861915588
1732873729485092400,12.65409228515625,9.490615844726562,1.479616641998291,-0.4213795065879822
1732873729495071200,12.6640712890625,9.732429504394531,1.37906014919281,-0.2561795711517334
1732873729505081000,12.6740810546875,9.952696800231934,1.314416766166687,-0.1867477297782898
1732873729515091000,12.684091064453124,10.070012092590332,1.237802267074585,-0.10773907601833344
1732873729525070000,12.694070068359375,10.108319282531738,1.1324573755264282,-0.1173158809542656
1732873729535080000,12.704079833984375,10.180145263671875,1.1540051698684692,-0.1412578970193863
1732873729545089800,12.71408984375,10.323798179626465,1.170764684677124,-0.20350714027881622
1732873729555069000,12.72406884765625,10.407594680786133,1.1683704853057861,-0.24420857429504395
1732873729565078800,12.734078857421874,10.287884712219238,1.1659762859344482,-0.20350714027881622
1732873729575088600,12.744088623046874,10.196905136108398,1.216254472732544,-0.1364694982767105
1732873729585067800,12.75406787109375,10.014945983886719,1.2761094570159912,-0.15801730751991272
1732873729595077400,12.764077392578125,9.742006301879883,1.4269442558288574,-0.272938996553421
1732873729605087200,12.774087158203125,9.586383819580078,1.6136919260025024,-0.44771572947502136
1732873729615066400,12.78406640625,9.241618156433105,1.7262194156646729,-0.4189853072166443
1732873729625076200,12.794076171875,9.004592895507812,1.7477672100067139,-0.24899697303771973
1732873729635086000,12.804086181640624,8.889671325683594,1.699883222579956,-0.11971008777618408
1732873729645065200,12.814065185546875,8.999804496765137,1.6639702320098877,-0.16998831927776337
1732873729655075000,12.824074951171875,9.296685218811035,1.5705963373184204,-0.3495534360408783
1732873729665085000,12.8340849609375,9.63187313079834,1.4389152526855469,-0.47165772318840027
1732873729675064000,12.84406396484375,10.125079154968262,1.2737152576446533,-0.45010992884635925
1732873729685073700,12.85407373046875,10.508151054382324,1.1492167711257935,-0.40222588181495667
1732873729695083500,12.86408349609375,10.685321807861328,1.1540051698684692,-0.30885201692581177
1732873729705093400,12.87409326171875,10.500968933105469,1.1803414821624756,-0.22026655077934265
1732873729715072500,12.884072509765625,10.192116737365723,1.2497732639312744,-0.14844051003456116
1732873729725082400,12.894082275390625,9.730035781860352,1.3718775510787964,-0.08619125932455063
