time,seconds_elapsed,z,y,x
1733237826070449700,0.18644970703125,0.1313360333442688,-0.28588494658470154,0.16798794269561768
1733237826080570400,0.1965703125,0.14905111491680145,-0.2938261926174164,0.1569923609495163
1733237826090526200,0.206526123046875,0.16371189057826996,-0.2474004179239273,0.09224065393209457
1733237826100559400,0.216559326171875,0.18936823308467865,-0.192422553896904,0.05314527451992035
1733237826110514400,0.226514404296875,0.21074850857257843,-0.13500121235847473,0.0354301854968071
1733237826120548000,0.236548095703125,0.24190263450145721,-0.09224065393209457,0.05497787147760391
1733237826130534400,0.246534423828125,0.2785545587539673,-0.09040805697441101,0.09040805697441101
1733237826140537000,0.256537109375,0.3127630054950714,-0.10506882518529892,0.14355333149433136
1733237826150523100,0.266523193359375,0.32559117674827576,-0.14233160018920898,0.19853121042251587
1733237826160556500,0.276556640625,0.3286454975605011,-0.19058994948863983,0.22907446324825287
1733237826170542800,0.28654296875,0.34574973583221436,-0.2535090744495392,0.2223549485206604
1733237826180545500,0.296545654296875,0.35124751925468445,-0.28099802136421204,0.20891591906547546
1733237826190531600,0.306531494140625,0.33108896017074585,-0.29138273000717163,0.20097467303276062
1733237826200565000,0.31656494140625,0.2834414839744568,-0.2767219543457031,0.2028072625398636
1733237826210521000,0.32652099609375,0.2174680233001709,-0.21319197118282318,0.2028072625398636
1733237826220554500,0.336554443359375,0.15393804013729095,-0.10812314599752426,0.1765400618314743
1733237826230540500,0.34654052734375,0.10934487730264664,0.02321287989616394,0.1319468915462494
1733237826240543200,0.356543212890625,0.08552113175392151,0.21380282938480377,0.05253441259264946
1733237826250529800,0.36652978515625,0.09285151958465576,0.31642818450927734,-0.0024434609804302454
1733237826260562700,0.376562744140625,0.1062905490398407,0.3585779070854187,-0.0507018156349659
1733237826270518800,0.386518798828125,0.11911872029304504,0.33047810196876526,-0.07819075137376785
1733237826280552000,0.396552001953125,0.12522737681865692,0.25106561183929443,-0.07941248267889023
1733237826290538500,0.40653857421875,0.11484266817569733,0.13316862285137177,-0.06475171446800232
1733237826300541000,0.416541015625,0.09285151958465576,0.01466076634824276,-0.03848451003432274
1733237826310527500,0.426527587890625,0.06414084881544113,-0.07024950534105301,-0.015271631069481373
1733237826320560600,0.436560546875,0.04642575979232788,-0.14844025671482086,0.00427605677396059
1733237826330516200,0.44651611328125,0.06230825558304787,-0.1765400618314743,0.01160643994808197
1733237826340549600,0.456549560546875,0.08735372871160507,-0.16493362188339233,0.0012217304902151227
1733237826350536000,0.466535888671875,0.1215621829032898,-0.13439035415649414,-0.021991148591041565
1733237826360538400,0.476538330078125,0.16065755486488342,-0.07147123664617538,-0.05192354694008827
1733237826370525000,0.48652490234375,0.19486601650714874,0.00366519158706069,-0.06108652427792549
1733237826380558300,0.496558349609375,0.20830504596233368,0.06658431142568588,-0.04337143152952194
1733237826390514000,0.506513916015625,0.17287486791610718,0.06414084881544113,-0.0006108652451075613
1733237826400547300,0.51654736328125,0.13927727937698364,0.025656340643763542,0.021380282938480377
1733237826410533400,0.526533447265625,0.11667526513338089,-0.033597588539123535,0.02687807008624077
1733237826420566800,0.53656689453125,0.10445795953273773,-0.10018189996480942,0.021991148591041565
1733237826430522400,0.5465224609375,0.09040805697441101,-0.16065755486488342,-0.007941247895359993
1733237826440555800,0.5565556640625,0.07513642311096191,-0.21991148591041565,-0.08979719132184982
1733237826450542000,0.5665419921875,0.0708603709936142,-0.29016098380088806,-0.22602014243602753
1733237826460544000,0.5765439453125,0.06536258012056351,-0.4495968222618103,-0.5106833577156067
1733237826470531000,0.586531005859375,0.015882495790719986,-0.5907067060470581,-0.7031059265136719
1733237826480563700,0.596563720703125,-0.06169738993048668,-0.7134906053543091,-0.8417723178863525
1733237826490520000,0.60652001953125,-0.13072516024112701,-0.7831292152404785,-0.8863654732704163
1733237826500551200,0.61655126953125,-0.15027284622192383,-0.7849618196487427,-0.8216137290000916
1733237826510539500,0.62653955078125,-0.12034045159816742,-0.7226535677909851,-0.6328563690185547
1733237826520540200,0.6365400390625,-0.04703662544488907,-0.6023131608963013,-0.3433062732219696
1733237826530528500,0.646528564453125,0.04642575979232788,-0.42088615894317627,-0.012828170321881771
1733237826540559600,0.6565595703125,0.17470745742321014,-0.13500121235847473,0.394008070230484
1733237826550517500,0.666517578125,0.2217440903186798,-0.012217304669320583,0.4990769028663635
1733237826560550700,0.676550537109375,0.22418753802776337,0.025656340643763542,0.43799036741256714
1733237826570537200,0.686537109375,0.19975294172763824,0.0012217304902151227,0.23945917189121246
1733237826580539100,0.6965390625,0.15454891324043274,-0.03787364438176155,-0.02871066704392433
1733237826590526200,0.706526123046875,0.08735372871160507,-0.07941248267889023,-0.2987131178379059
1733237826600558600,0.71655859375,0.01710422709584236,-0.13255776464939117,-0.5167919993400574
1733237826610515200,0.72651513671875,-0.04092797264456749,-0.1918116807937622,-0.6414085030555725
1733237826620548400,0.73654833984375,-0.0354301854968071,-0.22418753802776337,-0.5705481171607971
1733237826630534700,0.74653466796875,-0.012828170321881771,-0.24190263450145721,-0.40744712948799133
1733237826640537300,0.756537353515625,0.007941247895359993,-0.24068090319633484,-0.2028072625398636
1733237826650523600,0.766523681640625,0.027488935738801956,-0.21930062770843506,-0.005497787147760391
1733237826660556800,0.776556884765625,0.045204028487205505,-0.1814269721508026,0.1569923609495163
1733237826670543400,0.78654345703125,0.05864306539297104,-0.14355333149433136,0.2730567753314972
1733237826680545800,0.7965458984375,0.04948008432984352,-0.11545353382825851,0.342695415019989
1733237826690532400,0.806532470703125,0.022602014243602753,-0.11667526513338089,0.33108896017074585
1733237826700564700,0.816564697265625,-0.015882495790719986,-0.10567969083786011,0.294437050819397
1733237826710521000,0.82652099609375,-0.059864792972803116,-0.08185594528913498,0.2431243658065796
1733237826720553500,0.836553466796875,-0.1062905490398407,-0.05375614017248154,0.19975294172763824
1733237826730540500,0.84654052734375,-0.1618792861700058,-0.03481931984424591,0.1667662113904953
1733237826740542700,0.856542724609375,-0.22113321721553802,-0.028099801391363144,0.11789698898792267
1733237826750529800,0.86652978515625,-0.26939156651496887,-0.028099801391363144,0.04886921867728233
1733237826760562400,0.8765625,-0.3139847218990326,-0.036041051149368286,-0.06841690838336945
1733237826770518800,0.886518798828125,-0.3335324227809906,-0.029932396486401558,-0.13011430203914642
1733237826780551400,0.896551513671875,-0.3481931984424591,-0.025656340643763542,-0.17837265133857727
1733237826790538500,0.90653857421875,-0.3543018400669098,-0.025656340643763542,-0.2076941877603531
1733237826800541200,0.916541259765625,-0.34697145223617554,-0.009162978269159794,-0.22479841113090515
1733237826810527200,0.92652734375,-0.3219259977340698,0.012828170321881771,-0.23457226157188416
1733237826820560600,0.936560546875,-0.2938261926174164,0.03420845419168472,-0.23640485107898712
1733237826830516200,0.94651611328125,-0.2583959996700287,0.02076941914856434,-0.2064724564552307
1733237826840550000,0.9565498046875,-0.22113321721553802,-0.02015855349600315,-0.14844025671482086
1733237826850536000,0.966535888671875,-0.17592918872833252,-0.10934487730264664,-0.06230825558304787
1733237826860539000,0.976538818359375,-0.14294247329235077,-0.2785545587539673,0.0507018156349659
1733237826870525000,0.98652490234375,-0.14477506279945374,-0.523511528968811,0.20586158335208893
1733237826880557600,0.9965576171875,-0.21502456068992615,-0.8356636762619019,0.40744712948799133
1733237826890514000,1.006513916015625,-0.3243694305419922,-1.151481032371521,0.6511823534965515
1733237826900547000,1.016547119140625,-0.42760565876960754,-1.4575244188308716,1.0629055500030518
1733237826910533400,1.026533447265625,-0.403781920671463,-1.4801265001296997,1.3371840715408325
1733237826920566800,1.03656689453125,-0.3280346393585205,-1.3555099964141846,1.5638149976730347
1733237826930522400,1.0465224609375,-0.2168571650981903,-1.1246029138565063,1.720807433128357
1733237826940554800,1.0565546875,-0.08124507963657379,-0.827722430229187,1.7525724172592163
1733237826950542000,1.0665419921875,0.07269296050071716,-0.5186246037483215,1.6194037199020386
1733237826960544000,1.0765439453125,0.251676470041275,-0.18936823308467865,1.3359622955322266
1733237826970531000,1.086531005859375,0.4251621961593628,0.12034045159816742,0.941343367099762
1733237826980564200,1.096564208984375,0.5748242139816284,0.45814892649650574,0.2779437005519867
1733237826990520000,1.10652001953125,0.5564982295036316,0.5723807215690613,-0.09773843735456467
1733237827000553200,1.11655322265625,0.4538728892803192,0.6102544069290161,-0.3384193480014801
1733237827010539500,1.12653955078125,0.34147366881370544,0.6108652353286743,-0.4349360466003418
1733237827020542500,1.13654248046875,0.28527405858039856,0.5742133259773254,-0.4147774875164032
1733237827030528500,1.146528564453125,0.3084869384765625,0.5253441333770752,-0.3194825351238251
1733237827040562000,1.15656201171875,0.35735616087913513,0.4807509481906891,-0.20891591906547546
1733237827050517500,1.166517578125,0.34147366881370544,0.36102136969566345,-0.16554448008537292
1733237827060550100,1.176550048828125,0.2638937830924988,0.26145032048225403,-0.2431243658065796
1733237827070537200,1.186537109375,0.16249015927314758,0.1966986060142517,-0.35246923565864563
1733237827080539400,1.196539306640625,0.05009094998240471,0.192422553896904,-0.44593164324760437
1733237827090526200,1.206526123046875,-0.06475171446800232,0.2474004179239273,-0.49785518646240234
1733237827100557300,1.216557373046875,-0.15577064454555511,0.36651915311813354,-0.485027015209198
1733237827110514400,1.226514404296875,-0.2015855312347412,0.5216789245605469,-0.4153883755207062
1733237827120545800,1.2365458984375,-0.19608774781227112,0.6896668672561646,-0.30604347586631775
1733237827130534100,1.2465341796875,-0.10690141469240189,0.9065240025520325,-0.0959058403968811
1733237827140534800,1.25653466796875,-0.015271631069481373,0.9767735004425049,0.006108652334660292
1733237827150523100,1.266523193359375,0.08429940044879913,0.9676105380058289,0.04886921867728233
1733237827160556500,1.276556640625,0.16371189057826996,0.8814785480499268,0.00366519158706069
1733237827170542800,1.28654296875,0.1918116807937622,0.7226535677909851,-0.1270599663257599
1733237827180544500,1.29654443359375,0.15515977144241333,0.5601634383201599,-0.28038713335990906
1733237827190531600,1.306531494140625,0.06902777403593063,0.44165557622909546,-0.38667771220207214
1733237827200565200,1.316565185546875,-0.0861319974064827,0.37140607833862305,-0.41111230850219727
1733237827210521000,1.32652099609375,-0.1508837193250656,0.4043927788734436,-0.3494149148464203
1733237827220552200,1.33655224609375,-0.16371189057826996,0.47280970215797424,-0.242513507604599
1733237827230540500,1.34654052734375,-0.12217304855585098,0.5516113042831421,-0.11056660860776901
1733237827240541200,1.356541259765625,-0.04337143152952194,0.5968153476715088,0.014049900695681572
1733237827250529800,1.36652978515625,0.06658431142568588,0.608421802520752,0.10873401165008545
1733237827260563000,1.37656298828125,0.19914206862449646,0.5827654600143433,0.1875356286764145
1733237827270518800,1.386518798828125,0.3695734739303589,0.4893030524253845,0.3274237811565399
1733237827280552000,1.396552001953125,0.4147774875164032,0.4001167416572571,0.4764748811721802
1733237827290538500,1.40653857421875,0.41111230850219727,0.3274237811565399,0.6688974499702454
1733237827300541000,1.416541015625,0.38606682419776917,0.28527405858039856,0.8674286603927612
1733237827310527500,1.426527587890625,0.3744603991508484,0.2431243658065796,1.0286970138549805
1733237827320560400,1.436560302734375,0.3854559659957886,0.18631389737129211,1.1362093687057495
1733237827330516200,1.44651611328125,0.40622538328170776,0.12522737681865692,1.1771373748779297
1733237827340549400,1.45654931640625,0.42577308416366577,0.06841690838336945,1.1533136367797852
1733237827350536000,1.466535888671875,0.43188172578811646,-0.04642575979232788,1.0213667154312134
1733237827360538400,1.476538330078125,0.4105014503002167,-0.15515977144241333,0.9004153609275818
1733237827370525000,1.48652490234375,0.36713001132011414,-0.3017674386501312,0.7819074988365173
1733237827380558000,1.49655810546875,0.3029891550540924,-0.46792277693748474,0.6695083379745483
1733237827390514000,1.506513916015625,0.22479841113090515,-0.6218608021736145,0.5662720799446106
1733237827400547000,1.516547119140625,0.13927727937698364,-0.7544185519218445,0.4807509481906891
1733237827410533400,1.526533447265625,0.06169738993048668,-0.8558222055435181,0.4306600093841553
1733237827420566800,1.53656689453125,-0.027488935738801956,-0.9260717034339905,0.4349360466003418
1733237827430522400,1.5465224609375,-0.06414084881544113,-0.8991936445236206,0.4489859640598297
1733237827440555800,1.5565556640625,-0.08246681094169617,-0.8252789378166199,0.4386012554168701
1733237827450541800,1.566541748046875,-0.08735372871160507,-0.7232644557952881,0.3640756905078888
1733237827460544000,1.5765439453125,-0.08674286305904388,-0.6041457056999207,0.21135938167572021
1733237827470531000,1.586531005859375,-0.08307767659425735,-0.47342056035995483,0.005497787147760391
1733237827480563500,1.5965634765625,-0.07208210229873657,-0.30543261766433716,-0.21135938167572021
1733237827490520000,1.60652001953125,-0.06414084881544113,-0.004886921960860491,-0.48258355259895325
1733237827500552700,1.616552734375,-0.09834930300712585,0.21502456068992615,-0.5968153476715088
1733237827510539300,1.626539306640625,-0.16737708449363708,0.43615779280662537,-0.6701191663742065
1733237827520541400,1.63654150390625,-0.26633724570274353,0.6316346526145935,-0.7544185519218445
1733237827530528500,1.646528564453125,-0.37140607833862305,0.7531968355178833,-0.9053022861480713
1733237827540561200,1.65656103515625,-0.4605923891067505,0.7483099102973938,-1.1191051006317139
1733237827550517500,1.666517578125,-0.5167919993400574,0.656680166721344,-1.330464482307434
1733237827560547800,1.6765478515625,-0.5577199459075928,0.5161811113357544,-1.4721852540969849
1733237827570537200,1.686537109375,-0.608421802520752,0.22968533635139465,-1.4789047241210938
1733237827580537900,1.696537841796875,-0.6065891981124878,0.04581489413976669,-1.3445143699645996
1733237827590526000,1.70652587890625,-0.5436700582504272,-0.09896016865968704,-1.1032226085662842
1733237827600557300,1.716557373046875,-0.42577308416366577,-0.21074850857257843,-0.7819074988365173
1733237827610515200,1.72651513671875,-0.26511552929878235,-0.31093040108680725,-0.4086688458919525
1733237827620546000,1.736546142578125,-0.08124507963657379,-0.4043927788734436,-0.024434609338641167
1733237827630534700,1.74653466796875,0.07941248267889023,-0.44715335965156555,0.2785545587539673
1733237827640535000,1.75653515625,0.18509216606616974,-0.4141666293144226,0.3591887652873993
1733237827650523600,1.766523681640625,0.22052235901355743,-0.3029891550540924,0.17287486791610718
1733237827660556300,1.776556396484375,0.2321287989616394,-0.1062905490398407,-0.11423180252313614
1733237827670543000,1.786543212890625,0.19608774781227112,0.1264491081237793,-0.3995058834552765
1733237827680545300,1.796545166015625,0.12034045159816742,0.33108896017074585,-0.6139195561408997
1733237827690532400,1.806532470703125,0.05619960278272629,0.4758640229701996,-0.7250970602035522
1733237827700565500,1.8165654296875,0.04092797264456749,0.5448917746543884,-0.7122688889503479
1733237827710521000,1.82652099609375,0.08491026610136032,0.4599815309047699,-0.4960225820541382
1733237827720552200,1.83655224609375,0.12339477986097336,0.2932153046131134,-0.26083946228027344
1733237827730540500,1.84654052734375,0.1459967941045761,0.0959058403968811,0.009773843921720982
1733237827740543700,1.856543701171875,0.13377949595451355,-0.10323622822761536,0.24923302233219147
1733237827750529800,1.86652978515625,0.0861319974064827,-0.2883284091949463,0.40744712948799133
1733237827760563000,1.87656298828125,0.025656340643763542,-0.40256020426750183,0.4905247986316681
1733237827770518800,1.886518798828125,-0.03848451003432274,-0.4453207552433014,0.5015203952789307
1733237827780551400,1.896551513671875,-0.10873401165008545,-0.4508185386657715,0.4508185386657715
1733237827790538200,1.906538330078125,-0.1973094791173935,-0.38117989897727966,0.30054569244384766
1733237827800541200,1.916541259765625,-0.20097467303276062,-0.2871066629886627,0.2070833146572113
1733237827810527500,1.926527587890625,-0.1569923609495163,-0.192422553896904,0.14355333149433136
1733237827820560600,1.936560546875,-0.08307767659425735,-0.11178833991289139,0.10384709388017654
1733237827830516200,1.94651611328125,-0.003054326167330146,-0.04092797264456749,0.059864792972803116
1733237827840549400,1.95654931640625,0.0757472887635231,0.0507018156349659,0.010995574295520782
1733237827850535700,1.96653564453125,0.12889257073402405,0.16249015927314758,-0.04337143152952194
1733237827860538400,1.976538330078125,0.07452555745840073,0.25473082065582275,-0.11239920556545258
1733237827870525000,1.98652490234375,-0.03298672288656235,0.18631389737129211,-0.14049901068210602
1733237827880558000,1.99655810546875,-0.1368338167667389,0.048258353024721146,-0.1111774742603302
1733237827890514000,2.006513916015625,-0.22663100063800812,-0.08979719132184982,-0.031154127791523933
1733237827900547300,2.01654736328125,-0.31154128909111023,-0.17104226350784302,0.05314527451992035
1733237827910533600,2.02653369140625,-0.3677408695220947,-0.1466076523065567,0.11178833991289139
1733237827920566800,2.03656689453125,-0.38728857040405273,-0.016493361443281174,0.10384709388017654
1733237827930522400,2.0465224609375,-0.3738495409488678,0.18875735998153687,-0.027488935738801956
1733237827940556000,2.05655615234375,-0.34758231043815613,0.4031710624694824,-0.13072516024112701
1733237827950541800,2.066541748046875,-0.35552358627319336,0.4349360466003418,-0.17409659922122955
1733237827960544800,2.076544677734375,-0.3689626157283783,0.4184426963329315,-0.1258382350206375
1733237827970531000,2.086531005859375,-0.36163222789764404,0.4105014503002167,-0.0006108652451075613
1733237827980564500,2.096564453125,-0.31093040108680725,0.4807509481906891,0.17531833052635193
1733237827990520000,2.10652001953125,-0.22602014243602753,0.6811147332191467,0.3335324227809906
1733237828000553200,2.11655322265625,-0.12339477986097336,0.9578366875648499,0.39217549562454224
1733237828010539500,2.12653955078125,0.01710422709584236,1.189354658126831,0.23029619455337524
1733237828020542500,2.13654248046875,0.03298672288656235,1.0610729455947876,-0.0006108652451075613
1733237828030528500,2.146528564453125,-0.031154127791523933,0.7623597979545593,-0.21380282938480377
1733237828040559600,2.1565595703125,-0.1264491081237793,0.46242499351501465,-0.3066543638706207
1733237828050547700,2.166547607421875,-0.22052235901355743,0.26450464129447937,-0.2669481039047241
1733237828060548900,2.176548828125,-0.2889392673969269,0.18448130786418915,-0.13011430203914642
1733237828070537200,2.186537109375,-0.29138273000717163,0.182648703455925,0.045204028487205505
1733237828080538000,2.1965380859375,-0.12339477986097336,0.20952677726745605,0.29077184200286865
1733237828090526200,2.206526123046875,0.08002334833145142,0.24984388053417206,0.44165557622909546
1733237828100556500,2.216556640625,0.3219259977340698,0.30054569244384766,0.5864306092262268
1733237828110514200,2.22651416015625,0.5583308339118958,0.34758231043815613,0.7244861721992493
1733237828120545800,2.2365458984375,0.7538077235221863,0.342695415019989,0.8393288254737854
1733237828130534100,2.2465341796875,0.8827002644538879,0.2626720666885376,0.9095783233642578
1733237828140534800,2.25653466796875,0.9242390990257263,0.10445795953273773,0.901637077331543
1733237828150523400,2.2665234375,0.8686503767967224,-0.10690141469240189,0.8148942589759827
1733237828160555800,2.2765556640625,0.6768386960029602,-0.41233405470848083,0.5729916095733643
1733237828170542800,2.28654296875,0.5571091175079346,-0.5204572081565857,0.38667771220207214
1733237828180544800,2.296544677734375,0.47708576917648315,-0.5522221922874451,0.24434609711170197
1733237828190531600,2.306531494140625,0.423329621553421,-0.5155702829360962,0.16249015927314758
1733237828200562400,2.3165625,0.3933972120285034,-0.4147774875164032,0.14844025671482086
1733237828210521000,2.32652099609375,0.37751471996307373,-0.24007004499435425,0.19425514340400696
1733237828220551700,2.3365517578125,0.3695734739303589,0,0.25961771607398987
1733237828230540500,2.34654052734375,0.3585779070854187,0.304210901260376,0.3396410644054413
1733237828240542700,2.356542724609375,0.3292563557624817,0.36590829491615295,0.3640756905078888
1733237828250529800,2.36652978515625,0.2779437005519867,0.3286454975605011,0.37690386176109314
1733237828260563000,2.37656298828125,0.23457226157188416,0.2370157092809677,0.3854559659957886
1733237828270518800,2.386518798828125,0.22296582162380219,0.12278391420841217,0.4202753007411957
1733237828280552000,2.396552001953125,0.24495697021484375,0.012828170321881771,0.4990769028663635
1733237828290538200,2.406538330078125,0.2877175211906433,-0.056810468435287476,0.6218608021736145
1733237828300541000,2.416541015625,0.3695734739303589,-0.02076941914856434,0.8258898258209229
1733237828310527500,2.426527587890625,0.4141666293144226,0.06536258012056351,0.9395107626914978
1733237828320560600,2.436560546875,0.4440990388393402,0.14905111491680145,1.0140362977981567
1733237828330516200,2.44651611328125,0.42760565876960754,0.192422553896904,1.0195341110229492
1733237828340549600,2.456549560546875,0.3689626157283783,0.1612684279680252,0.9321803450584412
1733237828350536000,2.466535888671875,0.29077184200286865,0.036651913076639175,0.7709119319915771
1733237828360535800,2.476535888671875,0.20463985204696655,-0.13072516024112701,0.5797111392021179
1733237828370525000,2.48652490234375,0.10262536257505417,-0.2974913716316223,0.3995058834552765
1733237828380557600,2.4965576171875,-0.07391469180583954,-0.485027015209198,0.16004669666290283
1733237828390514000,2.506513916015625,-0.17776179313659668,-0.5320636034011841,0.033597588539123535
1733237828400546300,2.51654638671875,-0.2620611786842346,-0.5357288122177124,-0.08552113175392151
1733237828410533400,2.526533447265625,-0.33047810196876526,-0.50335294008255,-0.20586158335208893
1733237828420566800,2.53656689453125,-0.37140607833862305,-0.4801400899887085,-0.3439171314239502
1733237828430522400,2.5465224609375,-0.3787364661693573,-0.48869219422340393,-0.49846604466438293
1733237828440555500,2.556555419921875,-0.36713001132011414,-0.5491678714752197,-0.6511823534965515
1733237828450541800,2.566541748046875,-0.3549126982688904,-0.7189884185791016,-0.817337691783905
1733237828460542500,2.57654248046875,-0.3396410644054413,-0.8197811841964722,-0.816726803779602
1733237828470531000,2.586531005859375,-0.2883284091949463,-0.8442157506942749,-0.7226535677909851
1733237828480562200,2.596562255859375,-0.19364428520202637,-0.6908885836601257,-0.5412266254425049
1733237828490519800,2.606519775390625,-0.08429940044879913,-0.28588494658470154,-0.2981022298336029
1733237828500550400,2.61655029296875,-0.01771509274840355,0.1618792861700058,-0.10384709388017654
1733237828510539500,2.62653955078125,-0.0861319974064827,0.4294382631778717,-0.11423180252313614
1733237828520541400,2.63654150390625,-0.4184426963329315,0.4092797040939331,-0.503963828086853
1733237828530528500,2.646528564453125,-0.6707300543785095,0.2076941877603531,-0.8710938692092896
1733237828540561200,2.65656103515625,-0.8753699064254761,-0.04459316283464432,-1.236391305923462
1733237828550517500,2.666517578125,-0.9896016716957092,-0.23884831368923187,-1.5082262754440308
1733237828560548600,2.676548583984375,-1.034194827079773,-0.37690386176109314,-1.643227458000183
1733237828570537200,2.686537109375,-1.0305296182632446,-0.4746423065662384,-1.6438384056091309
1733237828580537900,2.696537841796875,-1.0097602605819702,-0.5510004758834839,-1.5558737516403198
1733237828590526000,2.70652587890625,-1.014647126197815,-0.6389650702476501,-1.483791708946228
1733237828600557300,2.716557373046875,-1.0903944969177246,-0.7648032903671265,-1.508837103843689
1733237828610515200,2.72651513671875,-1.1429288387298584,-0.7458664774894714,-1.5503759384155273
1733237828620546000,2.736546142578125,-1.1484266519546509,-0.5955936312675476,-1.5552629232406616
1733237828630534700,2.74653466796875,-1.0958921909332275,-0.32498031854629517,-1.5473216772079468
1733237828640535300,2.756535400390625,-0.9969320893287659,0.06475171446800232,-1.5503759384155273
1733237828650523600,2.766523681640625,-0.8539896011352539,0.5082398653030396,-1.5613715648651123
1733237828660554800,2.7765546875,-0.6713408827781677,0.8833111524581909,-1.5467108488082886
1733237828670543000,2.786543212890625,-0.40622538328170776,1.1716395616531372,-1.434922456741333
1733237828680544000,2.7965439453125,-0.26633724570274353,1.1380419731140137,-1.254717230796814
1733237828690532400,2.806532470703125,-0.16310101747512817,0.940121591091156,-0.9816604256629944
1733237828700563500,2.8165634765625,-0.11423180252313614,0.6646214127540588,-0.6597344875335693
1733237828710521000,2.82652099609375,-0.1111774742603302,0.41233405470848083,-0.3237585723400116
1733237828720552200,2.83655224609375,-0.11911872029304504,0.27122417092323303,-0.01160643994808197
1733237828730540500,2.84654052734375,-0.11239920556545258,0.2217440903186798,0.23518311977386475
1733237828740541200,2.856541259765625,-0.06169738993048668,0.26572638750076294,0.4612032473087311
1733237828750529800,2.86652978515625,0.001832595793530345,0.30970868468284607,0.5357288122177124
1733237828760563000,2.87656298828125,0.06658431142568588,0.2736676335334778,0.5644394755363464
1733237828770518800,2.886518798828125,0.1014036312699318,0.14294247329235077,0.5729916095733643
1733237828780552000,2.896552001953125,0.11362093687057495,-0.051312681287527084,0.5900958180427551
1733237828790538500,2.90653857421875,0.09162978827953339,-0.2480112910270691,0.6426302194595337
1733237828800539000,2.916538818359375,0.04581489413976669,-0.3836233615875244,0.720820963382721
1733237828810527200,2.92652734375,0.0012217304902151227,-0.41599923372268677,0.8222246170043945
1733237828820560600,2.936560546875,-0.06108652427792549,-0.23151792585849762,0.9932668805122375
1733237828830516200,2.94651611328125,-0.0861319974064827,-0.010995574295520782,1.0280861854553223
1733237828840549400,2.95654931640625,-0.09896016865968704,0.22479841113090515,0.9523389339447021
1733237828850536000,2.966535888671875,-0.10384709388017654,0.4129449129104614,0.7874053120613098
1733237828860538400,2.976538330078125,-0.1062905490398407,0.47342056035995483,0.5797111392021179
1733237828870525000,2.98652490234375,-0.10751228034496307,0.4245513379573822,0.40683624148368835
1733237828880558000,2.99655810546875,-0.11728613078594208,0.32986724376678467,0.30115658044815063
1733237828890514000,3.006513916015625,-0.19853121042251587,0.20952677726745605,0.21991148591041565
1733237828900547300,3.01654736328125,-0.29016098380088806,0.16432274878025055,0.16310101747512817
1733237828910533600,3.02653369140625,-0.3897320330142975,0.15271630883216858,0.07147123664617538
1733237828920567000,3.036567138671875,-0.47342056035995483,0.19486601650714874,-0.07391469180583954
1733237828930522400,3.0465224609375,-0.5265658497810364,0.23335053026676178,-0.26511552929878235
1733237828940555000,3.056554931640625,-0.5308418869972229,0.2577851414680481,-0.46181413531303406
1733237828950542000,3.0665419921875,-0.46303585171699524,0.24556782841682434,-0.5998696684837341
1733237828960542500,3.07654248046875,-0.32009339332580566,0.2638937830924988,-0.6328563690185547
1733237828970531000,3.086531005859375,-0.08368854224681854,0.42760565876960754,-0.5076290369033813
1733237828980562200,3.096562255859375,0.016493361443281174,0.5992587804794312,-0.33047810196876526
1733237828990520000,3.10652001953125,0.07757988572120667,0.7861835956573486,-0.12828169763088226
1733237829000550400,3.11655029296875,0.15454891324043274,1.0873401165008545,0.30604347586631775
1733237829010539500,3.12653955078125,0.24434609711170197,0.9431759119033813,0.8136724829673767
1733237829020542500,3.13654248046875,0.375071257352829,0.6243042945861816,1.0897835493087769
1733237829030528500,3.146528564453125,0.37568211555480957,-0.09834930300712585,0.8741481900215149
1733237829040559000,3.15655908203125,0.07391469180583954,-0.9291260242462158,0.16310101747512817
1733237829050517500,3.166517578125,-0.294437050819397,-0.9950994849205017,-0.3390302062034607
1733237829060548000,3.176548095703125,-0.7281513810157776,-0.5949827432632446,-0.6401867866516113
1733237829070537200,3.186537109375,-1.0488556623458862,-0.05925392732024193,-0.8393288254737854
1733237829080538400,3.196538330078125,-1.1410962343215942,0.40072759985923767,-1.0421360731124878
1733237829090526200,3.206526123046875,-1.043968677520752,0.5827654600143433,-1.2589932680130005
1733237829100557800,3.216557861328125,-0.856433093547821,0.4239404797554016,-1.3726142644882202
1733237829110514400,3.226514404296875,-0.5827654600143433,-0.19975294172763824,-1.1337659358978271
1733237829120546300,3.23654638671875,-0.4178318381309509,-0.5699372887611389,-0.7922922372817993
1733237829130534100,3.2465341796875,-0.27611109614372253,-0.8087855577468872,-0.3952298164367676
