time,seconds_elapsed,z,y,x
1733230359966858800,0.186858642578125,-0.4131431579589844,-0.038938701152801514,0.005613595247268677
1733230359977008600,0.197008544921875,-0.3795919418334961,-0.04619389772415161,-0.08479264378547668
1733230359986988000,0.206988037109375,-0.4232635498046875,-0.14125031232833862,-0.3308236598968506
1733230359996998000,0.216997802734375,-0.2740449905395508,-0.15220314264297485,-0.13352693617343903
1733230360006977000,0.22697705078125,-0.1652536392211914,-0.23669910430908203,0.013354137539863586
1733230360016987000,0.23698681640625,0.1600208282470703,-0.24564409255981445,0.20713621377944946
1733230360026996700,0.246996826171875,0.4924468994140625,-0.25018903613090515,0.2484697699546814
1733230360037006300,0.25700634765625,0.8675107955932617,-0.31340304017066956,0.23707661032676697
1733230360046985500,0.2669853515625,1.0901966094970703,-0.30602923035621643,0.21646222472190857
1733230360056995000,0.2769951171875,1.211623191833496,-0.2117937207221985,0.17427337169647217
1733230360067005000,0.2870048828125,1.1263036727905273,-0.09517404437065125,0.09016630053520203
1733230360076984300,0.296984375,0.8312864303588867,0.013483017683029175,0.00007100030779838562
1733230360086994000,0.306993896484375,0.3607063293457031,0.11214679479598999,0.0077013131231069565
1733230360097003800,0.317003662109375,-0.025015830993652344,0.221623957157135,-0.03805084154009819
1733230360106983200,0.326983154296875,-0.3543853759765625,0.2913631796836853,-0.05042257159948349
1733230360116993000,0.336992919921875,-0.5732221603393555,0.2808802127838135,-0.00590335950255394
1733230360127002600,0.347002685546875,-0.7270069122314453,0.2694971561431885,0.009606543928384781
1733230360136981800,0.356981689453125,-0.7587404251098633,0.22755157947540283,-0.01783909648656845
1733230360146991600,0.36699169921875,-0.6381511688232422,0.15234041213989258,-0.058814991265535355
1733230360157001200,0.377001220703125,-0.5045099258422852,0.07300645112991333,-0.091406911611557
1733230360166980600,0.386980712890625,-0.29864501953125,-0.0334932804107666,-0.05474812537431717
1733230360176990500,0.396990478515625,-0.038578033447265625,-0.06477940082550049,-0.06265436112880707
1733230360187000000,0.407,0.1369304656982422,-0.10283416509628296,-0.093295618891716
1733230360196979500,0.4169794921875,0.36127471923828125,-0.18049126863479614,-0.050822921097278595
1733230360206989300,0.4269892578125,0.5476293563842773,-0.16359317302703857,-0.07818086445331573
1733230360216999000,0.4369990234375,0.5601997375488281,-0.11911153793334961,-0.15963390469551086
1733230360226978300,0.446978271484375,0.44428157806396484,-0.08360296487808228,-0.16433359682559967
1733230360236988000,0.45698779296875,0.2467031478881836,-0.08905631303787231,-0.010365813970565796
1733230360246997800,0.466997802734375,0.05060577392578125,0.008968234062194824,-0.06140623986721039
1733230360256977000,0.476976806640625,-0.15898513793945312,0.05872219800949097,-0.061347007751464844
1733230360266986800,0.48698681640625,-0.26141357421875,0.04794156551361084,-0.08268770575523376
1733230360276996400,0.496996337890625,-0.3399667739868164,0.08333051204681396,-0.07399530708789825
1733230360287006200,0.507006103515625,-0.3899812698364258,0.027478337287902832,-0.06977827847003937
1733230360296985600,0.516985595703125,-0.2702903747558594,0.032649457454681396,-0.040719300508499146
1733230360306995500,0.526995361328125,-0.08612728118896484,0.056642770767211914,0.01834091544151306
1733230360317005000,0.537005126953125,0.011534690856933594,0.058131515979766846,-0.027613073587417603
1733230360326984400,0.546984375,-0.04887676239013672,0.06519573926925659,-0.07383574545383453
1733230360336994000,0.556994140625,-0.06137561798095703,0.024290144443511963,-0.10253405570983887
1733230360347004000,0.56700390625,-0.07378482818603516,0.013826370239257812,-0.062362685799598694
1733230360356983000,0.576983154296875,-0.062152862548828125,0.021772265434265137,-0.012978523969650269
1733230360366993000,0.586992919921875,-0.12228870391845703,0.06962352991104126,0.07488051056861877
1733230360377002500,0.59700244140625,-0.1824960708618164,0.10101258754730225,0.054877638816833496
1733230360386982000,0.60698193359375,-0.16619873046875,0.09042912721633911,0.03305327892303467
1733230360396991700,0.61699169921875,-0.09492301940917969,0.08565515279769897,-0.018861830234527588
1733230360407001300,0.62700146484375,-0.06441783905029297,0.1080937385559082,-0.09327371418476105
1733230360416980700,0.636980712890625,-0.05312156677246094,0.09777861833572388,-0.11586534976959229
1733230360426990600,0.646990478515625,0.0036401748657226562,0.11201691627502441,-0.10722784698009491
1733230360437000200,0.657000244140625,0.055642127990722656,0.10934948921203613,-0.1006375104188919
1733230360446979300,0.666979248046875,0.15552425384521484,0.09244483709335327,-0.12318854033946991
1733230360456989200,0.6769892578125,0.22665786743164062,0.05431020259857178,-0.1536104381084442
1733230360466998800,0.686998779296875,0.29535484313964844,0.03864645957946777,-0.1914139837026596
1733230360476978200,0.696978271484375,0.45019054412841797,-0.002060115337371826,-0.20978271961212158
1733230360486988000,0.706988037109375,0.6002702713012695,0.05805802345275879,-0.2503054440021515
1733230360496997600,0.71699755859375,0.6188020706176758,0.135847270488739,-0.30757981538772583
1733230360506977000,0.72697705078125,0.5250043869018555,0.19163930416107178,-0.34102821350097656
1733230360516987000,0.73698681640625,0.3836660385131836,0.20818769931793213,-0.3386656641960144
1733230360526996500,0.74699658203125,0.2927970886230469,0.2572740316390991,-0.3284868001937866
1733230360537006300,0.75700634765625,0.221160888671875,0.2520384192466736,-0.3213046193122864
1733230360546985500,0.7669853515625,0.27399539947509766,0.19202840328216553,-0.31495440006256104
1733230360556995300,0.776995361328125,0.31238555908203125,0.12382107973098755,-0.325655460357666
1733230360567005000,0.7870048828125,0.3770322799682617,0.11221033334732056,-0.37937188148498535
1733230360576984300,0.796984375,0.45119667053222656,0.0922250747680664,-0.3561245799064636
1733230360586994200,0.806994140625,0.48468589782714844,0.05528301000595093,-0.34870174527168274
1733230360597003800,0.817003662109375,0.37697601318359375,0.029220283031463623,-0.32226574420928955
1733230360606983200,0.826983154296875,0.28133106231689453,-0.005869448184967041,-0.27216920256614685
1733230360616993000,0.836992919921875,0.12833118438720703,-0.03339582681655884,-0.1910916119813919
1733230360627002600,0.847002685546875,-0.031768798828125,-0.07477787137031555,-0.08250148594379425
1733230360636981800,0.856981689453125,-0.19897937774658203,-0.07712987065315247,-0.016013801097869873
1733230360646991600,0.86699169921875,-0.3565864562988281,-0.030143797397613525,-0.05415076017379761
1733230360657001200,0.877001220703125,-0.5070209503173828,-0.01467663049697876,0.046547263860702515
1733230360666980600,0.886980712890625,-0.6431846618652344,-0.017267167568206787,0.1879749745130539
1733230360676990500,0.896990478515625,-0.6764993667602539,-0.00851297378540039,0.37902596592903137
1733230360687000000,0.907,-0.6764745712280273,-0.05421721935272217,0.5452902913093567
1733230360696979500,0.9169794921875,-0.5330848693847656,-0.12445089221000671,0.6912170648574829
1733230360706989300,0.9269892578125,-0.30866146087646484,-0.20367926359176636,0.7567445635795593
1733230360716999000,0.9369990234375,-0.0558624267578125,-0.27944639325141907,0.710304319858551
1733230360726978300,0.946978271484375,0.14879798889160156,-0.40229082107543945,0.6521055698394775
1733230360736988000,0.95698779296875,0.2145528793334961,-0.4956122934818268,0.6236907243728638
1733230360746997800,0.966997802734375,0.17746543884277344,-0.5142574310302734,0.6335756182670593
1733230360756977200,0.97697705078125,0.040032386779785156,-0.4415808320045471,0.6016442775726318
1733230360766986800,0.98698681640625,-0.25275707244873047,-0.32519423961639404,0.5958043336868286
1733230360776996400,0.996996337890625,-0.4950275421142578,-0.23260989785194397,0.5563317537307739
1733230360787006200,1.007006103515625,-0.7251796722412109,-0.1383640468120575,0.4534616470336914
1733230360796985600,1.016985595703125,-0.8451728820800781,-0.1093505322933197,0.27642181515693665
1733230360806995200,1.0269951171875,-0.7546968460083008,-0.10165604948997498,0.06323050707578659
1733230360817005000,1.037005126953125,-0.46091175079345703,-0.07278269529342651,-0.06834299862384796
1733230360826984400,1.046984375,-0.13857269287109375,-0.013481438159942627,-0.1814301609992981
1733230360836994000,1.056994140625,0.18131351470947266,0.10546332597732544,-0.26729997992515564
1733230360847004000,1.06700390625,0.3216829299926758,0.21741092205047607,-0.27293509244918823
1733230360856983000,1.076983154296875,0.25153446197509766,0.33610692620277405,-0.20896795392036438
1733230360866993000,1.086992919921875,0.14810848236083984,0.44663217663764954,-0.1839042454957962
1733230360877002500,1.09700244140625,0.033020973205566406,0.6893891096115112,-0.12557588517665863
1733230360886982000,1.10698193359375,-0.041106224060058594,0.7776553630828857,0.005448729731142521
1733230360896991700,1.11699169921875,-0.028995513916015625,0.7660582065582275,0.13742020726203918
1733230360907001300,1.12700146484375,0.2919492721557617,0.91254723072052,0.5272482633590698
1733230360916980700,1.136980712890625,0.6821498870849609,0.870756983757019,0.7915619015693665
1733230360926990600,1.146990478515625,1.1008882522583008,0.7907638549804688,0.8550938963890076
1733230360937000200,1.157000244140625,1.3850555419921875,0.7514786720275879,0.8958730101585388
1733230360946979300,1.166979248046875,1.5855340957641602,0.7272177934646606,1.012304425239563
1733230360956989200,1.1769892578125,1.6354179382324219,0.6960530877113342,1.0828046798706055
1733230360966998800,1.186998779296875,1.6567602157592773,0.7324693202972412,1.1323163509368896
1733230360976978200,1.196978271484375,1.5274372100830078,0.8038772344589233,1.071141242980957
1733230360986988000,1.206988037109375,1.292886734008789,0.8736861944198608,1.0258018970489502
1733230360996997600,1.21699755859375,0.9793806076049805,0.9318904876708984,1.0370302200317383
1733230361006977000,1.22697705078125,0.5557746887207031,0.9708167314529419,1.141291856765747
1733230361016987000,1.23698681640625,0.16574764251708984,0.9905310869216919,1.2055175304412842
1733230361026996700,1.246996826171875,-0.25048828125,1.0252048969268799,1.2192414999008179
1733230361037006300,1.25700634765625,-0.628230094909668,1.0189275741577148,1.2192987203598022
1733230361046985500,1.2669853515625,-0.8669614791870117,0.9828035831451416,1.1943641901016235
1733230361056995000,1.2769951171875,-1.0194110870361328,0.9376951456069946,1.0807697772979736
1733230361067005000,1.2870048828125,-1.0593023300170898,0.920362114906311,0.947514533996582
1733230361076984300,1.296984375,-1.0193548202514648,0.5390253663063049,0.4410620927810669
1733230361086994000,1.306993896484375,-0.9610195159912109,0.34590303897857666,0.16986453533172607
1733230361097003800,1.317003662109375,-0.8866910934448242,0.23441851139068604,-0.011058449745178223
1733230361106983200,1.326983154296875,-0.7754278182983398,0.16249656677246094,-0.16716301441192627
1733230361116993000,1.336992919921875,-0.5889244079589844,0.14171087741851807,-0.1808416247367859
1733230361127002600,1.347002685546875,-0.43164539337158203,0.07424533367156982,-0.25596708059310913
1733230361136981800,1.356981689453125,-0.2450408935546875,-0.004208683967590332,-0.37485450506210327
1733230361146991600,1.36699169921875,0.03143501281738281,-0.07442939281463623,-0.4432970881462097
1733230361157001200,1.377001220703125,0.24196720123291016,-0.12918853759765625,-0.48930245637893677
1733230361166980600,1.386980712890625,0.39078330993652344,-0.17696690559387207,-0.5907732248306274
1733230361176990500,1.396990478515625,0.4961128234863281,-0.16997849941253662,-0.6247039437294006
1733230361187000000,1.407,0.5195484161376953,-0.15674734115600586,-0.6890965104103088
1733230361196979500,1.4169794921875,0.4807424545288086,-0.16482597589492798,-0.708771824836731
1733230361206989000,1.426989013671875,0.46851444244384766,-0.08257138729095459,-0.8382681012153625
1733230361216999000,1.4369990234375,0.4398317337036133,-0.03663146495819092,-0.8749640583992004
1733230361226978300,1.446978271484375,0.322967529296875,-0.055606722831726074,-0.7532098293304443
1733230361236988000,1.45698779296875,0.20407867431640625,-0.08609461784362793,-0.6484202742576599
1733230361246997800,1.466997802734375,0.15252399444580078,-0.05369985103607178,-0.6818017959594727
1733230361256977000,1.476976806640625,0.1994476318359375,-0.04623377323150635,-0.5534418225288391
1733230361266986800,1.48698681640625,0.24422645568847656,-0.005261898040771484,-0.5301479697227478
1733230361276996400,1.496996337890625,0.3036642074584961,0.07171356678009033,-0.5272958874702454
1733230361287006200,1.507006103515625,0.36580657958984375,0.10086607933044434,-0.3686909079551697
1733230361296985600,1.516985595703125,0.44022274017333984,0.14193463325500488,-0.10975030064582825
1733230361306991600,1.52699169921875,0.4983053207397461,0.1944669485092163,0.11095011234283447
1733230361317001200,1.537001220703125,0.6787557601928711,0.2689436674118042,0.21972429752349854
1733230361326980600,1.546980712890625,0.9980201721191406,0.35091423988342285,0.20251598954200745
1733230361336990200,1.556990234375,1.2214088439941406,0.3778637647628784,0.13074642419815063
1733230361347000000,1.567,1.4519100189208984,0.2823598384857178,0.1291481852531433
1733230361356979200,1.576979248046875,1.7039194107055664,0.13259387016296387,0.12166464328765869
1733230361366989000,1.586989013671875,1.9702825546264648,-0.017367243766784668,0.028935492038726807
1733230361376999000,1.5969990234375,2.1959753036499023,-0.20482683181762695,0.05004468560218811
1733230361386978000,1.60697802734375,2.330747604370117,-0.3661149740219116,0.22027984261512756
1733230361396988000,1.61698779296875,2.300678253173828,-0.4914541244506836,0.4124796688556671
1733230361406997500,1.62699755859375,2.125044822692871,-0.7160834670066833,0.6641583442687988
1733230361416977000,1.636976806640625,1.9546737670898438,-0.9765570163726807,0.7713689804077148
1733230361426986800,1.64698681640625,1.8420019149780273,-1.3302724361419678,0.7156809568405151
1733230361436996400,1.656996337890625,1.987844467163086,-1.6763726472854614,0.45995834469795227
1733230361446975700,1.666975830078125,2.2674264907836914,-2.055952548980713,0.2080274522304535
1733230361456985600,1.676985595703125,2.5178356170654297,-2.3566195964813232,-0.0350191593170166
1733230361466995200,1.6869951171875,2.6626691818237305,-2.5718889236450195,-0.43272528052330017
1733230361476974300,1.696974365234375,2.4466352462768555,-2.630589008331299,-0.7199283242225647
1733230361486984200,1.706984130859375,1.8609733581542969,-2.52182674407959,-0.8846249580383301
1733230361496993800,1.716993896484375,0.7078409194946289,-2.243518829345703,-1.1762816905975342
1733230361506973200,1.72697314453125,-0.45663928985595703,-1.8882262706756592,-1.369807481765747
1733230361516983000,1.736983154296875,-1.7140660285949707,-1.4104605913162231,-1.5602445602416992
1733230361526992600,1.74699267578125,-2.6530184745788574,-1.1438573598861694,-1.6446470022201538
1733230361537002500,1.75700244140625,-3.5668835639953613,-0.975826621055603,-1.6331322193145752
1733230361546982000,1.76698193359375,-3.904865264892578,-0.6918975114822388,-1.1700646877288818
1733230361556991700,1.77699169921875,-3.8692626953125,-0.6940357685089111,-0.8986704349517822
1733230361567001300,1.78700146484375,-3.4200024604797363,-0.7730919122695923,-0.9962751865386963
1733230361576980500,1.79698046875,-2.6197099685668945,-0.9338494539260864,-1.2371933460235596
1733230361586990300,1.806990234375,-1.8869776725769043,-1.1675353050231934,-1.4532570838928223
1733230361597000000,1.817,-1.3599462509155273,-1.4952638149261475,-1.5627050399780273
1733230361606979300,1.826979248046875,-0.6813783645629883,-1.7908767461776733,-1.823581337928772
1733230361616989200,1.8369892578125,-0.1820211410522461,-2.0269007682800293,-1.9673082828521729
1733230361626998800,1.846998779296875,0.31146240234375,-2.355639934539795,-1.9347447156906128
1733230361636978200,1.856978271484375,0.6988668441772461,-2.5799560546875,-1.857718586921692
1733230361646987800,1.86698779296875,1.0173282623291016,-2.781059741973877,-1.7814302444458008
1733230361656997600,1.87699755859375,1.0929880142211914,-2.9314494132995605,-1.6847920417785645
1733230361666976800,1.886976806640625,1.1010990142822266,-3.0091464519500732,-1.58799409866333
1733230361676986600,1.896986572265625,1.1356687545776367,-2.9406840801239014,-1.5923117399215698
1733230361686996200,1.906996337890625,1.0382251739501953,-2.0364437103271484,-0.9786104559898376
1733230361696975600,1.9169755859375,0.9327669143676758,-1.3013594150543213,-0.5791943669319153
1733230361706985500,1.9269853515625,0.5857553482055664,-0.7439316511154175,-0.21322762966156006
1733230361716995000,1.9369951171875,0.0968170166015625,-0.27096834778785706,0.29477304220199585
1733230361726974500,1.946974365234375,-0.3765707015991211,0.027532443404197693,0.5535696148872375
1733230361736984300,1.956984375,-0.8263864517211914,0.3186882734298706,0.6509639024734497
1733230361746994000,1.966993896484375,-1.0922784805297852,0.5592400431632996,0.6476050019264221
1733230361756973300,1.976973388671875,-1.272317886352539,0.8177503347396851,0.5867918133735657
1733230361766983000,1.98698291015625,-1.3926715850830078,1.0045841932296753,0.5634106993675232
1733230361776992500,1.996992431640625,-1.4146852493286133,1.1275047063827515,0.5273623466491699
1733230361787002400,2.00700244140625,-1.3957910537719727,1.1510103940963745,0.49397900700569153
1733230361796981800,2.016981689453125,-1.3179893493652344,1.123633861541748,0.44292354583740234
1733230361806991400,2.026991455078125,-1.1533279418945312,1.0268423557281494,0.4333077073097229
1733230361817001200,2.037001220703125,-0.8595409393310547,0.899391233921051,0.5258440375328064
1733230361826980600,2.046980712890625,-0.48833370208740234,0.7853783965110779,0.5268548727035522
1733230361836990200,2.056990234375,-0.21327686309814453,0.7064151167869568,0.5301941633224487
1733230361847000000,2.067,0.04246711730957031,0.5817129611968994,0.5344017148017883
1733230361856979200,2.076979248046875,0.2622947692871094,0.543276309967041,0.4342621862888336
1733230361866989000,2.086989013671875,0.42472267150878906,0.5546704530715942,0.34099262952804565
1733230361876999000,2.0969990234375,0.6135520935058594,0.5452541708946228,0.3053930401802063
1733230361886978000,2.10697802734375,0.7340536117553711,0.20451752841472626,0.16676980257034302
1733230361896988000,2.11698779296875,0.6857786178588867,0.0730152428150177,0.15677104890346527
1733230361906997500,2.12699755859375,0.5132570266723633,0.0804469883441925,0.20015931129455566
1733230361916977000,2.136976806640625,0.24982833862304688,0.1508914828300476,0.22023740410804749
1733230361926986500,2.146986572265625,-0.12581634521484375,0.22335639595985413,0.1747635304927826
1733230361936996400,2.156996337890625,-0.4264202117919922,0.3950575292110443,0.2544841766357422
1733230361946975700,2.166975830078125,-0.6016950607299805,0.4711320698261261,0.140290766954422
1733230361956985600,2.176985595703125,-0.7068014144897461,0.5327118039131165,0.06302718818187714
1733230361966995200,2.1869951171875,-0.715789794921875,0.5028115510940552,0.02236872911453247
1733230361976974300,2.196974365234375,-0.5957260131835938,0.4015507102012634,-0.01971449702978134
1733230361986984200,2.206984130859375,-0.42188262939453125,0.31262803077697754,-0.09490683674812317
1733230361996993800,2.216993896484375,-0.21936511993408203,0.17963522672653198,-0.23275786638259888
1733230362006973200,2.22697314453125,0.04294013977050781,0.07971400022506714,-0.3436243534088135
1733230362016983000,2.236983154296875,0.3746480941772461,0.043554604053497314,-0.032562255859375
1733230362026993000,2.246992919921875,0.46687889099121094,-0.11038854718208313,0.12235981971025467
1733230362037002500,2.25700244140625,0.5808429718017578,0.08576014637947083,0.1357962042093277
1733230362046982000,2.26698193359375,0.549138069152832,0.3676169812679291,0.06705939024686813
1733230362056991500,2.276991455078125,0.2953977584838867,0.5539267063140869,0.007179975509643555
1733230362067001300,2.28700146484375,0.027835845947265625,0.6767085194587708,0.052525877952575684
1733230362076980500,2.29698046875,-0.24652385711669922,0.6333523988723755,0.2276141345500946
1733230362086990000,2.306989990234375,-0.45188426971435547,0.6336314678192139,0.36638182401657104
1733230362097000000,2.317,-0.4921236038208008,0.5958253145217896,0.3481485843658447
1733230362106979300,2.326979248046875,-0.3794097900390625,0.582764744758606,0.25783535838127136
1733230362116989200,2.3369892578125,-0.19041728973388672,0.5216729044914246,0.1369503140449524
1733230362126998800,2.346998779296875,0.09657096862792969,0.2548512816429138,-0.09296409785747528
1733230362136978200,2.356978271484375,0.3111686706542969,0.11841458082199097,-0.16436122357845306
1733230362146988000,2.366988037109375,0.4943666458129883,0.054641127586364746,-0.08524921536445618
1733230362156997600,2.37699755859375,0.6006250381469727,0.04353737831115723,-0.0012712031602859497
1733230362166977000,2.38697705078125,0.6722640991210938,0.06673794984817505,0.05476810038089752
1733230362176986600,2.396986572265625,0.7021598815917969,0.038470447063446045,0.07345269620418549
1733230362186996200,2.406996337890625,0.7732219696044922,-0.041425228118896484,0.04609529674053192
1733230362196975600,2.4169755859375,0.7961006164550781,-0.2299383282661438,0.010977707803249359
1733230362206985500,2.4269853515625,0.8834066390991211,-0.43513208627700806,-0.07151132822036743
1733230362216995000,2.4369951171875,1.1041030883789062,-0.6112514734268188,-0.2392035722732544
1733230362226974500,2.446974365234375,1.4126472473144531,-0.7586373686790466,-0.37254098057746887
1733230362236984300,2.456984375,1.8342065811157227,-0.7872599363327026,-0.5532045960426331
1733230362246994200,2.466994140625,2.2445898056030273,-0.6431815028190613,-0.783427894115448
1733230362256973000,2.47697314453125,2.5235557556152344,-0.4230805039405823,-1.011208176612854
1733230362266983000,2.48698291015625,2.498934745788574,-0.23361843824386597,-1.030576229095459
1733230362276992800,2.49699267578125,2.2359848022460938,-0.14732888340950012,-0.8697272539138794
1733230362287002400,2.50700244140625,1.7584009170532227,-0.052084505558013916,-0.7236891388893127
1733230362296981800,2.516981689453125,1.3414459228515625,0.023212552070617676,-0.6342465281486511
1733230362306991600,2.52699169921875,0.9155483245849609,0.034250080585479736,-0.6119514107704163
1733230362317001200,2.537001220703125,0.6551961898803711,-0.07132047414779663,-0.5374441742897034
1733230362326980600,2.546980712890625,0.44513893127441406,-0.33897513151168823,-0.37068983912467957
1733230362336990500,2.556990478515625,0.40474510192871094,-0.738235354423523,-0.28404828906059265
1733230362347000000,2.567,0.5888586044311523,-1.1301498413085938,-0.2638012170791626
1733230362356979200,2.576979248046875,0.8937721252441406,-1.5079681873321533,-0.36342141032218933
1733230362366989000,2.586989013671875,1.3033123016357422,-1.8721046447753906,-0.4834989011287689
1733230362376999000,2.5969990234375,1.8224601745605469,-2.1013073921203613,-0.6464393138885498
1733230362386978000,2.60697802734375,2.2192935943603516,-2.1910486221313477,-0.7514894008636475
1733230362396988000,2.61698779296875,2.37215518951416,-2.211184024810791,-0.753095269203186
1733230362406997500,2.62699755859375,2.0373106002807617,-2.224679946899414,-0.6745734214782715
1733230362416977000,2.636976806640625,1.3253898620605469,-2.1173062324523926,-0.5126374959945679
1733230362426986800,2.64698681640625,0.5105218887329102,-1.893846035003662,-0.4387142062187195
1733230362436996400,2.656996337890625,-0.6566801071166992,-1.6212549209594727,-0.3144993782043457
1733230362446975700,2.666975830078125,-1.6158123016357422,-1.4002389907836914,-0.23767276108264923
1733230362456985600,2.676985595703125,-2.5204291343688965,-1.0881714820861816,-0.033121347427368164
1733230362466995200,2.6869951171875,-3.1984667778015137,-0.8730253577232361,0.2895788252353668
1733230362476974600,2.696974609375,-3.823148727416992,-0.6632703542709351,0.6401553750038147
1733230362486984200,2.706984130859375,-4.306745529174805,-0.5256025791168213,1.0591038465499878
1733230362496993800,2.716993896484375,-4.567944526672363,-0.5026862025260925,1.3597205877304077
1733230362506973200,2.72697314453125,-4.566384315490723,-0.6748531460762024,1.6889307498931885
1733230362516983000,2.736983154296875,-4.2122650146484375,-1.0937548875808716,1.97039794921875
1733230362526992600,2.74699267578125,-3.3218741416931152,-1.671952247619629,2.1720383167266846
1733230362537002500,2.75700244140625,-2.15378475189209,-2.2116687297821045,2.0751349925994873
1733230362546982000,2.76698193359375,-0.6473140716552734,-2.7341413497924805,1.750946044921875
1733230362556991700,2.77699169921875,0.8328714370727539,-2.9710962772369385,1.2528942823410034
1733230362567001300,2.78700146484375,2.4894227981567383,-3.0611281394958496,0.6780164241790771
1733230362576980500,2.79698046875,3.586920738220215,-2.908717155456543,0.32217851281166077
1733230362586990000,2.806989990234375,4.289679527282715,-2.6016299724578857,0.1360299289226532
1733230362597000000,2.817,4.392081260681152,-2.1581480503082275,0.0216694176197052
1733230362606979300,2.826979248046875,3.9082698822021484,-1.6733081340789795,0.08366405963897705
1733230362616989400,2.836989501953125,2.675248146057129,-1.2773933410644531,0.30725324153900146
1733230362626998800,2.846998779296875,1.3798542022705078,-1.0351347923278809,0.42800599336624146
1733230362636978200,2.856978271484375,0.028975486755371094,-0.6795374155044556,0.42108142375946045
1733230362646988000,2.866988037109375,-0.956089973449707,-0.42815059423446655,0.5360945463180542
1733230362656997600,2.87699755859375,-1.7107648849487305,-0.16666525602340698,0.7589918375015259
1733230362666976800,2.886976806640625,-2.1327576637268066,-0.010006129741668701,0.8935727477073669
1733230362676986600,2.896986572265625,-2.383084297180176,0.056732356548309326,1.0180652141571045
1733230362686996200,2.906996337890625,-2.3809280395507812,0.15575265884399414,1.087809443473816
1733230362696975600,2.9169755859375,-2.2481884956359863,0.19934570789337158,1.1559827327728271
1733230362706985500,2.9269853515625,-1.9634146690368652,0.14733290672302246,1.1315642595291138
1733230362716995000,2.9369951171875,-1.6108226776123047,0.07094138860702515,1.0408145189285278
1733230362726974500,2.946974365234375,-1.1345453262329102,-0.05413079261779785,0.9446072578430176
1733230362736984300,2.956984375,-0.6827526092529297,-0.22523510456085205,0.7876796126365662
1733230362746994000,2.966993896484375,-0.14278888702392578,-0.42628493905067444,0.6152947545051575
1733230362756973300,2.976973388671875,0.38024044036865234,-0.5279446244239807,0.43789419531822205
1733230362766983000,2.98698291015625,0.8218593597412109,-0.6656875610351562,0.3222046196460724
1733230362776992500,2.996992431640625,1.1773481369018555,-0.7293926477432251,0.25816014409065247
1733230362787002400,3.00700244140625,1.4996337890625,-0.7946057319641113,0.16751715540885925
1733230362796981800,3.016981689453125,1.6886119842529297,-0.8352106809616089,0.10013573616743088
1733230362806991400,3.026991455078125,1.6885566711425781,-0.7182724475860596,-0.03575173765420914
1733230362817001200,3.037001220703125,1.570180892944336,-0.6631827354431152,-0.09443981200456619
1733230362826980600,3.046980712890625,1.3970937728881836,-0.6075009703636169,-0.11930711567401886
1733230362836990500,3.056990478515625,1.059250831604004,-0.4795343279838562,-0.23335999250411987
1733230362847000000,3.067,0.6404399871826172,-0.340665340423584,-0.2511511445045471
1733230362856979200,3.076979248046875,0.15739727020263672,-0.18011072278022766,-0.19274938106536865
1733230362866989000,3.086989013671875,-0.23656845092773438,-0.015539586544036865,-0.1447797566652298
1733230362876999000,3.0969990234375,-0.6254825592041016,0.11524927616119385,-0.12219163775444031
1733230362886978000,3.10697802734375,-0.8705615997314453,0.2115229368209839,-0.07764454931020737
1733230362896987600,3.116987548828125,-1.1371173858642578,0.296630859375,0.08877498656511307
1733230362906997500,3.12699755859375,-1.3510208129882812,0.32624351978302,0.2000175267457962
1733230362916977000,3.136976806640625,-1.4621849060058594,0.3220561742782593,0.31084203720092773
1733230362926986800,3.14698681640625,-1.449122428894043,0.3064291477203369,0.3760754466056824
1733230362936996400,3.156996337890625,-1.3263578414916992,0.25504589080810547,0.3596799671649933
1733230362946975700,3.166975830078125,-1.0585250854492188,0.18573212623596191,0.2532269358634949
1733230362956985600,3.176985595703125,-0.6882219314575195,0.1381821632385254,0.20502398908138275
1733230362966995200,3.1869951171875,-0.2296743392944336,0.1657024621963501,0.17075622081756592
1733230362976974300,3.196974365234375,0.14498519897460938,0.15223979949951172,0.08788968622684479
1733230362986984200,3.206984130859375,0.36414337158203125,0.19505411386489868,0.044233158230781555
1733230362996993800,3.216993896484375,0.4112424850463867,0.2954134941101074,0.04396216943860054
1733230363006973200,3.22697314453125,0.38210582733154297,0.37773597240448,0.04052618145942688
1733230363016983000,3.236983154296875,0.2816791534423828,0.43183988332748413,0.03582508862018585
1733230363026992600,3.24699267578125,0.13193511962890625,0.343914270401001,-0.0944049283862114
1733230363037002500,3.25700244140625,0.07138347625732422,0.2903798818588257,-0.135735884308815
1733230363046982000,3.26698193359375,0.07425975799560547,0.2774112820625305,-0.07530444115400314
1733230363056991500,3.276991455078125,0.1631917953491211,0.1826363205909729,-0.03430083394050598
1733230363067001300,3.28700146484375,0.31856632232666016,0.07902854681015015,-0.002430073916912079
1733230363076980500,3.29698046875,0.5467214584350586,0.001354992389678955,0.014365613460540771
1733230363086990300,3.306990234375,0.730931282043457,-0.07048511505126953,0.014311715960502625
1733230363097000000,3.317,0.9269199371337891,-0.08714866638183594,0.012257643043994904
1733230363106979300,3.326979248046875,0.9913797378540039,-0.014577805995941162,0.010806523263454437
1733230363116989200,3.3369892578125,0.9461631774902344,0.14831942319869995,0.01809336245059967
1733230363126998800,3.346998779296875,0.7626914978027344,0.2632230520248413,0.0935577005147934
1733230363136978200,3.356978271484375,0.46251964569091797,0.22202956676483154,0.2546203136444092
1733230363146988000,3.366988037109375,0.2607870101928711,0.110015869140625,0.27017807960510254
1733230363156997600,3.37699755859375,0.28849124908447266,-0.04363530874252319,0.1756221503019333
1733230363166976800,3.386976806640625,0.5525550842285156,-0.1997632384300232,0.07545630633831024
1733230363176986400,3.396986328125,0.9546756744384766,-0.26101332902908325,0.11234287917613983
1733230363186996200,3.406996337890625,1.483046531677246,-0.3222925662994385,0.18084017932415009
1733230363196975600,3.4169755859375,1.7644948959350586,-0.34859728813171387,0.3929595351219177
1733230363206985500,3.4269853515625,1.8879241943359375,-0.5542445182800293,0.6841722130775452
1733230363216995000,3.4369951171875,1.8438081741333008,-0.8801493644714355,0.9886398911476135
1733230363226974500,3.446974365234375,1.7876949310302734,-1.3616639375686646,1.2079401016235352
1733230363236984300,3.456984375,1.8412761688232422,-1.8695545196533203,1.0374517440795898
1733230363246994000,3.466993896484375,2.148085594177246,-2.4204142093658447,0.5100190043449402
1733230363256973300,3.476973388671875,2.593212127685547,-2.8165135383605957,-0.17164500057697296
1733230363266983000,3.48698291015625,3.1912918090820312,-3.0716958045959473,-0.7398471236228943
1733230363276992500,3.496992431640625,3.643474578857422,-3.0524566173553467,-1.041900634765625
1733230363287002400,3.50700244140625,3.727505683898926,-2.859367847442627,-0.9845587015151978
1733230363296981800,3.516981689453125,3.3073463439941406,-2.5661349296569824,-0.7133016586303711
1733230363306991400,3.526991455078125,2.561307907104492,-2.2655129432678223,-0.5434954762458801
1733230363317001200,3.537001220703125,1.2975578308105469,-1.9189192056655884,-0.3977416753768921
1733230363326980600,3.546980712890625,0.07433795928955078,-1.6076593399047852,-0.2334885597229004
1733230363336990500,3.556990478515625,-1.3403987884521484,-1.2140300273895264,-0.19877952337265015
1733230363347000000,3.567,-2.508322238922119,-0.8790451288223267,-0.05098499357700348
1733230363356979200,3.576979248046875,-3.6882495880126953,-0.6043708920478821,0.0814044177532196
1733230363366989000,3.586989013671875,-4.602879524230957,-0.5366390943527222,0.14465376734733582
1733230363376999000,3.5969990234375,-5.143391132354736,-0.5644105672836304,0.07357408106327057
1733230363386978000,3.60697802734375,-5.542898654937744,-0.7376765608787537,-0.08321086317300797
1733230363396988000,3.61698779296875,-5.415072441101074,-0.8282365202903748,-0.12503761053085327
1733230363406997500,3.62699755859375,-4.823472023010254,-0.9983953833580017,-0.3140037953853607
1733230363416977000,3.636976806640625,-3.9225683212280273,-1.1548504829406738,-0.611876368522644
1733230363426986500,3.646986572265625,-2.655531406402588,-1.4566096067428589,-1.237966775894165
1733230363436996400,3.656996337890625,-1.4697933197021484,-1.8155512809753418,-1.8954548835754395
1733230363446975700,3.666975830078125,-0.3429985046386719,-2.17191219329834,-2.5597329139709473
1733230363456985600,3.676985595703125,0.5788774490356445,-2.4446446895599365,-2.856201171875
1733230363466995200,3.6869951171875,1.550267219543457,-2.577321767807007,-2.742213010787964
1733230363476974300,3.696974365234375,2.3066892623901367,-2.491039752960205,-2.4941885471343994
1733230363486984200,3.706984130859375,2.8917179107666016,-2.390481472015381,-2.146256446838379
1733230363496993800,3.716993896484375,3.0352563858032227,-2.4281182289123535,-1.6667677164077759
1733230363506973200,3.72697314453125,2.909670829772949,-2.4486587047576904,-1.1364824771881104
1733230363516983000,3.736983154296875,2.594662666320801,-2.2739217281341553,-0.5148400068283081
1733230363526992600,3.74699267578125,2.262788772583008,-2.017831325531006,-0.17047399282455444
1733230363537002500,3.75700244140625,1.8342914581298828,-1.6691293716430664,0.15993592143058777
1733230363546982000,3.76698193359375,1.3018207550048828,-1.4115911722183228,0.3481481075286865
1733230363556991500,3.776991455078125,0.6269559860229492,-1.0869895219802856,0.44899091124534607
1733230363567001300,3.78700146484375,0.037059783935546875,-0.7644791007041931,0.46280768513679504
1733230363576980500,3.79698046875,-0.6045217514038086,-0.46161961555480957,0.3814953565597534
1733230363586990300,3.806990234375,-1.0944023132324219,-0.20361900329589844,0.2513442635536194
1733230363597000000,3.817,-1.5620689392089844,0.05672955513000488,0.12490805983543396
1733230363606979300,3.826979248046875,-1.879533290863037,0.24955517053604126,0.07318127155303955
1733230363616989200,3.8369892578125,-2.046238899230957,0.2618981599807739,-0.03452564775943756
1733230363626998800,3.846998779296875,-1.9980664253234863,0.14609920978546143,-0.2521938681602478
1733230363636978200,3.856978271484375,-1.6565170288085938,0.011640191078186035,-0.5458067059516907
1733230363646988000,3.866988037109375,-1.0505828857421875,-0.2278171181678772,-0.8204830884933472
1733230363656997600,3.87699755859375,-0.4698600769042969,-0.48423320055007935,-0.8981797695159912
1733230363666976800,3.886976806640625,0.1364288330078125,-0.751739501953125,-0.8889347910881042
1733230363676986600,3.896986572265625,0.6512594223022461,-0.925514280796051,-0.898853063583374
1733230363686996200,3.906996337890625,1.0704164505004883,-1.0569456815719604,-0.9119639992713928
1733230363696975600,3.9169755859375,1.2665023803710938,-1.0643036365509033,-0.8472117185592651
1733230363706985500,3.9269853515625,1.2358694076538086,-1.0547407865524292,-0.7992150783538818
1733230363716995000,3.9369951171875,1.004995346069336,-1.0016356706619263,-0.71735018491745
1733230363726974500,3.946974365234375,0.6576261520385742,-0.9146046042442322,-0.7779150009155273
1733230363736984300,3.956984375,0.27025318145751953,-0.7849321365356445,-0.7781037092208862
1733230363746994000,3.966993896484375,-0.06855583190917969,-0.6459075212478638,-0.7558523416519165
1733230363756973000,3.97697314453125,-0.37134361267089844,-0.49370327591896057,-0.7516725659370422
1733230363766983000,3.98698291015625,-0.5521783828735352,-0.38531678915023804,-0.7374470829963684
1733230363776992500,3.996992431640625,-0.6517782211303711,-0.30332493782043457,-0.5880969762802124
1733230363787002400,4.00700244140625,-0.6390867233276367,-0.24482762813568115,-0.4422816038131714
1733230363796981800,4.016981689453125,-0.5859746932983398,-0.16656047105789185,-0.2562476694583893
1733230363806991400,4.026991455078125,-0.5219964981079102,0.05080747604370117,0.06538556516170502
1733230363817001200,4.037001220703125,-0.4727907180786133,0.20334452390670776,0.28667306900024414
1733230363826980600,4.046980712890625,-0.5185422897338867,0.2569049596786499,0.3615007698535919
1733230363836990200,4.056990234375,-0.5012521743774414,0.29325342178344727,0.31177112460136414
1733230363847000000,4.067,-0.44059181213378906,0.35257917642593384,0.21941392123699188
1733230363856979500,4.0769794921875,-0.3962688446044922,0.30620646476745605,0.11819791048765182
1733230363866989000,4.086989013671875,-0.2605552673339844,0.31022191047668457,0.014640619978308678
1733230363876999000,4.0969990234375,-0.09589862823486328,0.28351742029190063,-0.06231633946299553
1733230363886978000,4.10697802734375,0.11198139190673828,0.2727031111717224,-0.055143803358078
1733230363896988000,4.11698779296875,0.41333675384521484,0.28528892993927,-0.07280014455318451
1733230363906997500,4.12699755859375,0.5949459075927734,0.3179062008857727,-0.11818105727434158
1733230363916977000,4.136976806640625,0.7238807678222656,0.2954874634742737,-0.13020998239517212
1733230363926986800,4.14698681640625,0.8121509552001953,0.2367672324180603,-0.09157802164554596
1733230363936996400,4.156996337890625,0.8574323654174805,0.21996885538101196,-0.10654858499765396
1733230363946975700,4.166975830078125,0.8309974670410156,0.1923375129699707,-0.12470849603414536
1733230363956985600,4.176985595703125,0.7687931060791016,0.17027246952056885,-0.18977859616279602
1733230363966995200,4.1869951171875,0.7690515518188477,0.16497516632080078,-0.29460373520851135
1733230363976974300,4.196974365234375,0.8173303604125977,0.24197757244110107,-0.4411865770816803
1733230363986984200,4.206984130859375,0.860926628112793,0.30349695682525635,-0.5479977130889893
1733230363996993800,4.216993896484375,0.9190235137939453,0.3875749707221985,-0.6073240041732788
1733230364006973200,4.22697314453125,0.9293441772460938,0.42993319034576416,-0.6224653124809265
1733230364016983000,4.236983154296875,0.9014062881469727,0.3808755874633789,-0.5866286754608154
1733230364026992600,4.24699267578125,0.9237146377563477,0.34171974658966064,-0.6644279956817627
1733230364037002500,4.25700244140625,0.9530372619628906,0.32565271854400635,-0.8198767900466919
1733230364046982000,4.26698193359375,1.0229463577270508,0.23170334100723267,-0.897086501121521
1733230364056991500,4.276991455078125,1.0306062698364258,0.18338125944137573,-0.8929275870323181
1733230364067001300,4.28700146484375,0.9546804428100586,0.1904938817024231,-0.8818001747131348
1733230364076980500,4.29698046875,0.7833795547485352,0.16739988327026367,-0.816796600818634
1733230364086990000,4.306989990234375,0.5479793548583984,0.2083151936531067,-0.8365957736968994
1733230364097000000,4.317,0.2532682418823242,0.260792076587677,-0.981164276599884
1733230364106979300,4.326979248046875,-0.09123706817626953,0.2420053482055664,-0.9834522008895874
1733230364116989000,4.336989013671875,-0.38278675079345703,0.11138796806335449,-0.9014553427696228
1733230364126998800,4.346998779296875,-0.46608829498291016,0.09767138957977295,-0.7758201360702515
1733230364136978200,4.356978271484375,-0.3797740936279297,-0.01625227928161621,-0.7293720245361328
1733230364146988000,4.366988037109375,-0.20815277099609375,-0.29333072900772095,-0.6951621174812317
1733230364156997600,4.37699755859375,-0.03324699401855469,-0.7171682119369507,-0.542538046836853
1733230364166976800,4.386976806640625,0.2793769836425781,-1.1296488046646118,-0.37867069244384766
1733230364176986600,4.396986572265625,0.7033891677856445,-1.4674957990646362,-0.22275230288505554
1733230364186996200,4.406996337890625,1.1551990509033203,-1.628451943397522,-0.1514618992805481
1733230364196975600,4.4169755859375,1.5567960739135742,-1.7242380380630493,-0.16143345832824707
1733230364206985500,4.4269853515625,1.6740789413452148,-1.7623443603515625,-0.060172632336616516
1733230364216995000,4.4369951171875,1.5290756225585938,-1.719118356704712,0.040093421936035156
1733230364226974500,4.446974365234375,1.1842269897460938,-1.603973627090454,0.18289527297019958
1733230364236984300,4.456984375,0.6251106262207031,-1.4954416751861572,0.29547497630119324
1733230364246994000,4.466993896484375,0.11478519439697266,-1.426598310470581,0.49469509720802307
1733230364256973300,4.476973388671875,-0.40946197509765625,-1.3595819473266602,0.696235716342926
1733230364266983000,4.48698291015625,-0.8201828002929688,-1.2994612455368042,0.8544324636459351
1733230364276992500,4.496992431640625,-1.0504589080810547,-1.280623435974121,0.921700119972229
1733230364287002400,4.50700244140625,-1.1828832626342773,-1.2518813610076904,0.9775781631469727
1733230364296981800,4.516981689453125,-1.1934642791748047,-1.2735817432403564,1.1086041927337646
1733230364306991400,4.526991455078125,-1.237574577331543,-0.9194775223731995,1.0383415222167969
1733230364317001200,4.537001220703125,-1.3001127243041992,-0.7339410781860352,1.0232932567596436
1733230364326980600,4.546980712890625,-1.428725242614746,-0.6244723796844482,1.109947919845581
1733230364336990500,4.556990478515625,-1.5350961685180664,-0.559989869594574,1.1761142015457153
1733230364347000000,4.567,-1.637969970703125,-0.6079487800598145,1.2737032175064087
1733230364356979500,4.5769794921875,-1.6473722457885742,-0.6662788391113281,1.293809413909912
1733230364366989000,4.586989013671875,-1.482163429260254,-0.7632534503936768,1.2676910161972046
1733230364376999000,4.5969990234375,-1.1184473037719727,-0.8329190015792847,1.2436314821243286
1733230364386978000,4.60697802734375,-0.7621183395385742,-0.8963685035705566,1.2177900075912476
1733230364396988000,4.61698779296875,-0.35321903228759766,-0.8683486580848694,1.1281142234802246
1733230364406997500,4.62699755859375,-0.016267776489257812,-0.7527594566345215,0.9100934267044067
1733230364416977000,4.636976806640625,0.27767086029052734,-0.6288735866546631,0.6753432154655457
1733230364426986500,4.646986572265625,0.5933008193969727,-0.46234917640686035,0.4483345150947571
1733230364436996400,4.656996337890625,0.9090757369995117,-0.2501525580883026,0.13716575503349304
1733230364446975700,4.666975830078125,1.1220521926879883,-0.16439935564994812,-0.022997498512268066
1733230364456985600,4.676985595703125,1.1675243377685547,-0.13942751288414001,-0.08070975542068481
1733230364466995200,4.6869951171875,1.1215629577636719,-0.01521996408700943,-0.177525132894516
1733230364476974300,4.696974365234375,0.9960222244262695,0.07827873528003693,-0.18107226490974426
1733230364486984200,4.706984130859375,0.8333806991577148,0.22837933897972107,-0.1736767292022705
1733230364496993800,4.716993896484375,0.6057815551757812,0.3759862184524536,-0.13689544796943665
1733230364506973200,4.72697314453125,0.26566600799560547,0.5744321346282959,-0.03596740961074829
1733230364516983000,4.736983154296875,-0.10077762603759766,0.7302263975143433,0.05007338523864746
1733230364526992600,4.74699267578125,-0.4935922622680664,0.897219181060791,0.09563279151916504
1733230364537002500,4.75700244140625,-0.8122329711914062,1.0521825551986694,0.1563206911087036
1733230364546982000,4.76698193359375,-1.173964500427246,1.1253269910812378,0.30338287353515625
1733230364556991500,4.776991455078125,-1.3895368576049805,1.1596957445144653,0.3913004398345947
1733230364567001300,4.78700146484375,-1.4869194030761719,0.957478404045105,0.4090266227722168
1733230364576980500,4.79698046875,-1.4259958267211914,0.7695812582969666,0.4087361693382263
1733230364586990300,4.806990234375,-1.2102575302124023,0.6021696329116821,0.39873266220092773
1733230364597000000,4.817,-0.9065542221069336,0.4110657572746277,0.32605332136154175
1733230364606979300,4.826979248046875,-0.5319223403930664,0.26681041717529297,0.32360607385635376
1733230364616989200,4.8369892578125,-0.07369518280029297,0.1278291642665863,0.26900482177734375
1733230364626998800,4.846998779296875,0.30788230895996094,0.04139438271522522,0.1799294352531433
1733230364636978200,4.856978271484375,0.6537895202636719,-0.033591002225875854,0.0794597864151001
1733230364646988000,4.866988037109375,0.822810173034668,-0.07568086683750153,-0.03197431564331055
1733230364656997600,4.87699755859375,0.9034557342529297,-0.05266888439655304,-0.2728392779827118
1733230364666976800,4.886976806640625,0.8562383651733398,-0.024027228355407715,-0.4482667148113251
1733230364676986600,4.896986572265625,0.7547025680541992,0.02920272946357727,-0.5275185108184814
1733230364686996200,4.906996337890625,0.5566549301147461,0.10167664289474487,-0.5232876539230347
1733230364696975600,4.9169755859375,0.21599864959716797,0.16361230611801147,-0.4895673394203186
1733230364706985500,4.9269853515625,-0.13413333892822266,0.19369450211524963,-0.47330981492996216
1733230364716995000,4.9369951171875,-0.34532833099365234,0.24895334243774414,-0.48846450448036194
1733230364726974500,4.946974365234375,-0.4630460739135742,0.3217727541923523,-0.39073604345321655
1733230364736984300,4.956984375,-0.3794994354248047,0.3772217333316803,-0.39951932430267334
1733230364746994000,4.966993896484375,-0.3288288116455078,0.37649697065353394,-0.29983797669410706
1733230364756973000,4.97697314453125,-0.3421449661254883,0.42819738388061523,-0.2466660737991333
1733230364766983000,4.98698291015625,-0.463958740234375,0.5817634463310242,-0.26382526755332947
1733230364776992500,4.996992431640625,-0.5937299728393555,0.635854184627533,-0.23181527853012085
1733230364787002400,5.00700244140625,-0.6309661865234375,0.6890997886657715,-0.1935923546552658
1733230364796981800,5.016981689453125,-0.5286941528320312,0.6167846322059631,-0.03865903615951538
1733230364806991400,5.026991455078125,-0.45605945587158203,0.39322036504745483,0.34350472688674927
1733230364817001200,5.037001220703125,-0.37478065490722656,0.15720289945602417,0.6228361129760742
1733230364826980600,5.046980712890625,-0.20752906799316406,-0.07605504989624023,0.8147041201591492
1733230364836990500,5.056990478515625,0.13237667083740234,-0.28309714794158936,0.9237563610076904
1733230364847000000,5.067,0.5052480697631836,-0.4825674891471863,1.0850512981414795
1733230364856979500,5.0769794921875,0.9760169982910156,-0.48909834027290344,1.054131269454956
1733230364866989000,5.086989013671875,1.3342523574829102,-0.43805867433547974,1.1272656917572021
1733230364876999000,5.0969990234375,1.5681142807006836,-0.2845904231071472,1.0291956663131714
1733230364886978000,5.10697802734375,1.7592315673828125,-0.013805806636810303,0.785567045211792
1733230364896988000,5.11698779296875,1.8908014297485352,0.3528669476509094,0.4640507698059082
1733230364906997500,5.12699755859375,1.773672103881836,0.5165818333625793,0.12313607335090637
1733230364916977000,5.136976806640625,1.5204658508300781,0.625529408454895,-0.15286719799041748
1733230364926986800,5.14698681640625,1.212937355041504,0.5965063571929932,-0.33073627948760986
1733230364936996400,5.156996337890625,0.95379638671875,0.42233794927597046,-0.433206170797348
1733230364946975700,5.166975830078125,0.8531103134155273,0.36018621921539307,-0.4817555844783783
1733230364956985600,5.176985595703125,0.9728174209594727,0.3002922534942627,-0.6176003217697144
1733230364966995200,5.1869951171875,1.154703140258789,0.176202654838562,-0.7058272361755371
1733230364976974300,5.196974365234375,1.4559307098388672,-0.046312689781188965,-0.7161777019500732
1733230364986984200,5.206984130859375,1.8905448913574219,-0.6252766847610474,-0.5655304193496704
1733230364996993800,5.216993896484375,2.381035804748535,-1.5431675910949707,-0.3536602258682251
1733230365006973200,5.22697314453125,3.1384057998657227,-2.5360043048858643,-0.19898158311843872
1733230365016983000,5.236983154296875,4.069318771362305,-3.1374006271362305,-0.3990294933319092
1733230365026992600,5.24699267578125,5.157443046569824,-3.341705322265625,-0.9631525874137878
1733230365037002500,5.25700244140625,5.58747673034668,-3.3055386543273926,-1.2917633056640625
1733230365046982000,5.26698193359375,5.0638017654418945,-3.1066112518310547,-1.2575762271881104
1733230365056991500,5.276991455078125,3.7791948318481445,-2.798921585083008,-0.9836426377296448
1733230365067001300,5.28700146484375,2.23696231842041,-2.4721758365631104,-0.6105011105537415
1733230365076980500,5.29698046875,0.49082279205322266,-2.0553040504455566,-0.281061053276062
1733230365086990300,5.306990234375,-1.1166753768920898,-1.8093386888504028,-0.3290587067604065
1733230365097000000,5.317,-2.7225027084350586,-1.4935638904571533,-0.5693660974502563
1733230365106979300,5.326979248046875,-3.7674083709716797,-1.286355972290039,-0.632409393787384
1733230365116989200,5.3369892578125,-4.660277843475342,-1.161752462387085,-0.6941337585449219
1733230365126998800,5.346998779296875,-4.930825233459473,-1.0905334949493408,-0.7113161087036133
1733230365136978200,5.356978271484375,-4.964132308959961,-1.0629713535308838,-0.5728940963745117
1733230365146988000,5.366988037109375,-4.794439792633057,-1.0866825580596924,-0.5349854230880737
1733230365156997600,5.37699755859375,-4.472716331481934,-1.191283941268921,-0.6347205638885498
1733230365166976800,5.386976806640625,-4.0731306076049805,-1.3473217487335205,-0.6960301399230957
1733230365176986600,5.396986572265625,-3.7130627632141113,-1.6010406017303467,-0.8061493039131165
1733230365186996200,5.406996337890625,-3.131601333618164,-1.897902250289917,-0.9322776198387146
1733230365196975600,5.4169755859375,-2.6619205474853516,-2.1432201862335205,-1.0993651151657104
1733230365206985500,5.4269853515625,-1.9644947052001953,-2.591090679168701,-1.1917799711227417
1733230365216995000,5.4369951171875,-1.0534381866455078,-3.065758228302002,-1.3747472763061523
1733230365226974500,5.446974365234375,0.31403446197509766,-3.2309932708740234,-1.2701749801635742
1733230365236984300,5.456984375,1.1388559341430664,-3.239224910736084,-1.2784990072250366
1733230365246994000,5.466993896484375,1.9826030731201172,-3.1939454078674316,-1.443811297416687
1733230365256973300,5.476973388671875,2.645514488220215,-2.886129140853882,-1.5403550863265991
1733230365266983000,5.48698291015625,2.9012832641601562,-2.554875612258911,-1.4168672561645508
1733230365276992500,5.496992431640625,2.712924003601074,-2.321918487548828,-1.031781554222107
1733230365287002400,5.50700244140625,2.319575309753418,-2.091499090194702,-0.6348192095756531
1733230365296981800,5.516981689453125,1.6830358505249023,-1.8305565118789673,-0.375546395778656
1733230365306991400,5.526991455078125,1.1255302429199219,-1.5363337993621826,-0.30613964796066284
1733230365317001200,5.537001220703125,0.5005702972412109,-1.189786434173584,-0.23620949685573578
1733230365326980600,5.546980712890625,0.03710746765136719,-0.9003259539604187,-0.16426193714141846
1733230365336990500,5.556990478515625,-0.4209127426147461,-0.6655115485191345,-0.08856719732284546
1733230365347000000,5.567,-0.6098098754882812,-0.5039522647857666,-0.04227864742279053
1733230365356979500,5.5769794921875,-0.7224817276000977,-0.3525921106338501,-0.08906525373458862
1733230365366989000,5.586989013671875,-0.7615289688110352,-0.281960129737854,-0.1405239850282669
1733230365376999000,5.5969990234375,-0.6929826736450195,-0.22043466567993164,-0.2801496684551239
1733230365386978000,5.60697802734375,-0.6171283721923828,0.08884048461914062,-0.21039420366287231
1733230365396988000,5.61698779296875,-0.5622940063476562,0.16942965984344482,-0.25422999262809753
1733230365406997500,5.62699755859375,-0.4624652862548828,0.11182296276092529,-0.3301444947719574
1733230365416977000,5.636976806640625,-0.3556785583496094,0.04690277576446533,-0.3663574755191803
1733230365426986800,5.64698681640625,-0.2347726821899414,-0.04901343584060669,-0.4174594283103943
1733230365436996400,5.656996337890625,-0.06393718719482422,-0.08145517110824585,-0.4152001738548279
1733230365446975700,5.666975830078125,0.02052593231201172,-0.15012478828430176,-0.4479846954345703
1733230365456985600,5.676985595703125,0.10733222961425781,-0.1963987946510315,-0.3940514922142029
1733230365466995200,5.6869951171875,0.1789112091064453,-0.17648661136627197,-0.22833144664764404
1733230365476974300,5.696974365234375,0.2247018814086914,-0.1261640191078186,-0.2197043001651764
1733230365486984200,5.706984130859375,0.26410579681396484,-0.08681696653366089,-0.2545226812362671
1733230365496993800,5.716993896484375,0.24667835235595703,-0.035742104053497314,-0.2570904791355133
1733230365506973200,5.72697314453125,0.2059783935546875,0.01179361343383789,-0.21221309900283813
1733230365516983000,5.736983154296875,0.08422660827636719,0.06500643491744995,-0.07716861367225647
1733230365526992600,5.74699267578125,-0.1235342025756836,0.10414612293243408,0.05573010444641113
1733230365537002500,5.75700244140625,-0.3190956115722656,0.1968156099319458,0.1469639390707016
1733230365546982000,5.76698193359375,-0.4497098922729492,0.21922320127487183,0.22345459461212158
1733230365556991500,5.776991455078125,-0.44449329376220703,0.24987304210662842,0.21717464923858643
1733230365567001300,5.78700146484375,-0.3149690628051758,0.22705382108688354,0.1947198361158371
1733230365576980500,5.79698046875,-0.0827035903930664,0.18737804889678955,0.20759907364845276
1733230365586990300,5.806990234375,0.14464664459228516,0.16657978296279907,0.2146356701850891
1733230365597000000,5.817,0.3097877502441406,0.17372393608093262,0.16105586290359497
1733230365606979300,5.826979248046875,0.3624744415283203,0.2034059762954712,0.0846518874168396
1733230365616989200,5.8369892578125,0.31478023529052734,0.26391369104385376,0.057203441858291626
1733230365626998800,5.846998779296875,0.16199302673339844,0.3043152689933777,0.029054701328277588
1733230365636978200,5.856978271484375,0.01913738250732422,0.37657594680786133,-0.017912298440933228
1733230365646988000,5.866988037109375,-0.10179901123046875,0.4498082995414734,-0.06384262442588806
1733230365656997600,5.87699755859375,-0.148162841796875,0.4766254425048828,-0.04863893985748291
1733230365666976800,5.886976806640625,-0.23497772216796875,0.48896539211273193,-0.019106805324554443
1733230365676986600,5.896986572265625,-0.20923995971679688,0.445963978767395,-0.02889576554298401
1733230365686996200,5.906996337890625,-0.09030342102050781,0.4212908148765564,-0.07400423288345337
1733230365696975600,5.9169755859375,0.21996498107910156,0.5083228349685669,-0.10710030794143677
1733230365706985500,5.9269853515625,0.5537996292114258,0.47947633266448975,-0.24651604890823364
1733230365716995000,5.9369951171875,0.9064903259277344,0.5184557437896729,-0.17297637462615967
1733230365726974500,5.946974365234375,1.031869888305664,0.5281784534454346,-0.1619631052017212
1733230365736984300,5.956984375,0.9180850982666016,0.4017910361289978,-0.1831660270690918
1733230365746994000,5.966993896484375,0.7325849533081055,0.29506129026412964,-0.16864940524101257
1733230365756973300,5.976973388671875,0.6497468948364258,0.1724591851234436,0.0025438666343688965
1733230365766983000,5.98698291015625,0.705225944519043,0.0651315450668335,0.09753717482089996
1733230365776992800,5.99699267578125,0.8582639694213867,0.0296403169631958,0.02283880114555359
1733230365787002400,6.00700244140625,1.0156593322753906,0.029523253440856934,-0.14635804295539856
1733230365796981800,6.016981689453125,1.1513376235961914,0.07511013746261597,-0.3279893100261688
1733230365806991400,6.026991455078125,1.2034683227539062,0.05042916536331177,-0.39217203855514526
1733230365817001200,6.037001220703125,1.1243410110473633,-0.04919224977493286,-0.43622225522994995
1733230365826980600,6.046980712890625,0.9474601745605469,-0.13304269313812256,-0.4518229365348816
1733230365836990500,6.056990478515625,0.8473806381225586,-0.24960458278656006,-0.46449747681617737
1733230365847000000,6.067,0.7519245147705078,-0.506077766418457,-0.3710023760795593
1733230365856979500,6.0769794921875,0.7755861282348633,-0.8125409483909607,-0.3576436936855316
1733230365866989000,6.086989013671875,0.9683609008789062,-1.1854722499847412,-0.3751375079154968
1733230365876999000,6.0969990234375,1.320291519165039,-1.4651451110839844,-0.3855471611022949
1733230365886978000,6.10697802734375,1.7747869491577148,-1.697082757949829,-0.43550145626068115
1733230365896988000,6.11698779296875,2.1476640701293945,-1.740964412689209,-0.5027034282684326
1733230365906997500,6.12699755859375,2.279031753540039,-1.7839007377624512,-0.556387186050415
1733230365916977000,6.136976806640625,2.1096229553222656,-1.7559194564819336,-0.4437476694583893
1733230365926986800,6.14698681640625,1.5775871276855469,-1.7123613357543945,-0.24532431364059448
1733230365936996400,6.156996337890625,0.8243618011474609,-1.6124658584594727,-0.1335408091545105
1733230365946975700,6.166975830078125,0.17367076873779297,-1.5233135223388672,-0.1377606987953186
1733230365956985600,6.176985595703125,-0.545527458190918,-1.4688992500305176,-0.03953976184129715
1733230365966995200,6.1869951171875,-1.022242546081543,-1.412326693534851,0.08619315922260284
1733230365976974300,6.196974365234375,-1.3956518173217773,-1.2852277755737305,0.23426666855812073
1733230365986984200,6.206984130859375,-1.7033262252807617,-1.1515488624572754,0.4011421501636505
1733230365996993800,6.216993896484375,-1.955397605895996,-0.9951707124710083,0.7121896743774414
1733230366006973200,6.22697314453125,-2.209306240081787,-0.8421981930732727,1.1319029331207275
1733230366016983000,6.236983154296875,-2.5847692489624023,-0.7280027866363525,1.5869592428207397
1733230366026992600,6.24699267578125,-2.9292550086975098,-0.6925378441810608,1.9726594686508179
1733230366037002500,6.25700244140625,-3.245513916015625,-0.7382839322090149,2.3404300212860107
1733230366046982000,6.26698193359375,-3.3593735694885254,-0.7799081802368164,2.583791494369507
1733230366056991500,6.276991455078125,-3.1351070404052734,-0.939660906791687,2.724701166152954
1733230366067001300,6.28700146484375,-2.630624771118164,-1.2434062957763672,2.868006706237793
1733230366076980500,6.29698046875,-2.0136895179748535,-1.5173804759979248,2.9651246070861816
1733230366086990300,6.306990234375,-1.2769441604614258,-1.7523884773254395,2.8597967624664307
1733230366097000000,6.317,-0.5909481048583984,-1.8822400569915771,2.6544878482818604
1733230366106979300,6.326979248046875,0.2518730163574219,-2.003014087677002,2.2866265773773193
1733230366116989200,6.3369892578125,1.046412467956543,-2.003420352935791,1.7756047248840332
1733230366126998800,6.346998779296875,1.9059314727783203,-1.9713194370269775,1.2656573057174683
1733230366136978200,6.356978271484375,2.6181907653808594,-1.8427245616912842,0.9150170683860779
1733230366146988000,6.366988037109375,3.197909355163574,-1.6954150199890137,0.5859329700469971
1733230366156997600,6.37699755859375,3.3771238327026367,-1.403989553451538,0.5043004155158997
1733230366166976800,6.386976806640625,3.0606746673583984,-1.2537935972213745,0.36464837193489075
1733230366176986600,6.396986572265625,2.2477951049804688,-1.0781751871109009,0.1894974708557129
1733230366186996200,6.406996337890625,1.4146671295166016,-0.7623506784439087,0.03921542689204216
1733230366196975600,6.4169755859375,0.4939460754394531,-0.3923598527908325,0.0468619242310524
1733230366206985500,6.4269853515625,-0.2991619110107422,-0.13064777851104736,0.14543896913528442
1733230366216995000,6.4369951171875,-1.0367460250854492,0.12339931726455688,0.21016311645507812
1733230366226974500,6.446974365234375,-1.5226802825927734,0.3302847743034363,0.2661154270172119
1733230366236984300,6.456984375,-1.9727153778076172,0.5559420585632324,0.4010487496852875
1733230366246994000,6.466993896484375,-2.2677979469299316,0.632985532283783,0.5627686381340027
1733230366256973300,6.476973388671875,-2.3311281204223633,0.6258969306945801,0.7698526382446289
1733230366266983000,6.48698291015625,-2.2827043533325195,0.5352353453636169,0.8581721186637878
1733230366276992800,6.49699267578125,-1.995842456817627,0.32455968856811523,0.8420405983924866
1733230366287002400,6.50700244140625,-1.3964042663574219,0.15311425924301147,0.6494216918945312
1733230366296981800,6.516981689453125,-0.7380304336547852,0.0393792986869812,0.525739848613739
1733230366306991400,6.526991455078125,0.10407829284667969,-0.08555793762207031,0.4808702766895294
1733230366317001200,6.537001220703125,0.7161350250244141,-0.11746692657470703,0.45062512159347534
1733230366326980600,6.546980712890625,1.1801071166992188,-0.17233869433403015,0.46459823846817017
1733230366336990500,6.556990478515625,1.359755516052246,-0.18094325065612793,0.4830906391143799
1733230366347000000,6.567,1.3148679733276367,-0.1889379620552063,0.590908408164978
1733230366356979500,6.5769794921875,1.112539291381836,-0.18272659182548523,0.6886528730392456
1733230366366989000,6.586989013671875,0.8579940795898438,-0.17301511764526367,0.7383729815483093
1733230366376999000,6.5969990234375,0.6803970336914062,-0.11012634634971619,0.7568896412849426
1733230366386978000,6.60697802734375,0.5629129409790039,-0.06176656484603882,0.7118680477142334
1733230366396988000,6.61698779296875,0.4623222351074219,0.013184279203414917,0.6448742151260376
1733230366406997500,6.62699755859375,0.34991455078125,0.11704882979393005,0.60703444480896
1733230366416977000,6.636976806640625,0.18022632598876953,0.2205474078655243,0.5527312755584717
1733230366426986800,6.64698681640625,0.01551055908203125,0.28498950600624084,0.5070211887359619
1733230366436996400,6.656996337890625,-0.18018341064453125,0.37282705307006836,0.4993442893028259
1733230366446975700,6.666975830078125,-0.28359222412109375,0.38495081663131714,0.16627037525177002
1733230366456985600,6.676985595703125,-0.35918712615966797,0.3831140398979187,0.02293989062309265
1733230366466995200,6.6869951171875,-0.35498905181884766,0.416176974773407,0.01159098744392395
1733230366476974300,6.696974365234375,-0.3388252258300781,0.43503355979919434,0.046902358531951904
1733230366486984200,6.706984130859375,-0.3246736526489258,0.4348984956741333,0.11075219511985779
1733230366496993800,6.716993896484375,-0.3052682876586914,0.4281849265098572,0.14403238892555237
1733230366506973200,6.72697314453125,-0.28811073303222656,0.34825724363327026,0.24075329303741455
1733230366516983000,6.736983154296875,-0.2613105773925781,0.3059810400009155,0.2734357714653015
1733230366526992600,6.74699267578125,-0.14149951934814453,0.20049279928207397,0.3390630781650543
1733230366537002500,6.75700244140625,0.014811515808105469,0.1067425012588501,0.3606993854045868
1733230366546982000,6.76698193359375,0.24276447296142578,-0.013039112091064453,0.38976624608039856
1733230366556991500,6.776991455078125,0.5207605361938477,-0.0584142804145813,0.32011380791664124
1733230366567001300,6.78700146484375,0.8272123336791992,-0.11605226993560791,0.23073303699493408
1733230366576980500,6.79698046875,1.071396827697754,-0.1672627329826355,0.28745245933532715
1733230366586990300,6.806990234375,1.1937618255615234,-0.15573132038116455,0.29762890934944153
1733230366597000000,6.817,1.2592763900756836,-0.04213833808898926,0.17905142903327942
1733230366606979300,6.826979248046875,1.163376808166504,0.06930732727050781,0.09332868456840515
1733230366616989200,6.8369892578125,0.9944515228271484,0.21649479866027832,-0.01982775330543518
1733230366626998800,6.846998779296875,0.8028354644775391,0.3723682165145874,-0.20287975668907166
1733230366636978200,6.856978271484375,0.6554336547851562,0.5204381942749023,-0.40287113189697266
1733230366646988000,6.866988037109375,0.48027801513671875,0.5361922979354858,-0.48712337017059326
1733230366656997600,6.87699755859375,0.39201831817626953,0.36578118801116943,-0.46702075004577637
1733230366666976800,6.886976806640625,0.4715919494628906,0.19540834426879883,-0.36196768283843994
1733230366676986600,6.896986572265625,0.7829036712646484,0.0685807466506958,-0.25942477583885193
1733230366686996200,6.906996337890625,1.2216567993164062,-0.20786607265472412,-0.13140739500522614
1733230366696975600,6.9169755859375,1.7235126495361328,-0.6469507217407227,0.04950585961341858
1733230366706985500,6.9269853515625,2.23104190826416,-1.1827094554901123,0.25430282950401306
1733230366716995000,6.9369951171875,2.7586536407470703,-1.8472024202346802,0.43059924244880676
1733230366726974500,6.946974365234375,3.069582939147949,-2.462921380996704,0.4433785676956177
1733230366736984300,6.956984375,3.3364973068237305,-2.7492876052856445,0.24195019900798798
1733230366746994000,6.966993896484375,3.5620946884155273,-2.6507532596588135,-0.10511735081672668
1733230366756973300,6.976973388671875,3.462757110595703,-2.4560341835021973,-0.38075384497642517
1733230366766983000,6.98698291015625,2.943838119506836,-2.057795524597168,-0.7505140900611877
1733230366776992800,6.99699267578125,2.056629180908203,-1.651620626449585,-0.9428461194038391
1733230366787002400,7.00700244140625,0.9141960144042969,-1.362112283706665,-1.0008553266525269
1733230366796981800,7.016981689453125,-0.04796409606933594,-1.2626076936721802,-0.9687795042991638
1733230366806991400,7.026991455078125,-0.9406280517578125,-1.1319026947021484,-0.9891864657402039
1733230366817001200,7.037001220703125,-1.3720989227294922,-1.0637202262878418,-0.8333296775817871
1733230366826980600,7.046980712890625,-1.8871870040893555,-1.074387550354004,-0.9851776361465454
1733230366836990500,7.056990478515625,-2.151520252227783,-1.1458104848861694,-1.0060752630233765
1733230366847000000,7.067,-2.3033480644226074,-1.138615369796753,-1.0049028396606445
1733230366856979500,7.0769794921875,-2.3545918464660645,-1.0127615928649902,-0.9863682389259338
1733230366866989000,7.086989013671875,-2.4682183265686035,-0.9447065591812134,-0.9736616015434265
1733230366876999000,7.0969990234375,-2.5372109413146973,-0.9863327741622925,-0.891075611114502
1733230366886978000,7.10697802734375,-2.705289363861084,-1.0538626909255981,-0.8548511862754822
1733230366896988000,7.11698779296875,-2.793513774871826,-1.209496259689331,-0.848800003528595
1733230366906997500,7.12699755859375,-2.712703227996826,-1.4051523208618164,-0.8772355318069458
1733230366916977000,7.136976806640625,-2.395735740661621,-1.636747121810913,-1.0602537393569946
1733230366926986800,7.14698681640625,-1.8911900520324707,-1.8869414329528809,-1.1448826789855957
1733230366936996400,7.156996337890625,-1.2805404663085938,-2.207735300064087,-1.1383073329925537
1733230366946975700,7.166975830078125,-0.4675912857055664,-2.499619245529175,-1.311324954032898
1733230366956985600,7.176985595703125,0.3426694869995117,-2.63144588470459,-1.5457041263580322
1733230366966995200,7.1869951171875,1.2086191177368164,-2.6516196727752686,-1.7550936937332153
1733230366976974300,7.196974365234375,1.8609848022460938,-2.6440792083740234,-1.7546687126159668
1733230366986984200,7.206984130859375,2.373368263244629,-2.6223196983337402,-1.5377671718597412
1733230366996993800,7.216993896484375,2.46427059173584,-2.4655511379241943,-1.248569130897522
1733230367006973200,7.22697314453125,2.197384834289551,-2.189488410949707,-0.9470677375793457
1733230367016983000,7.236983154296875,1.5872669219970703,-1.9123759269714355,-0.6928814649581909
1733230367026992600,7.24699267578125,0.644984245300293,-1.6646369695663452,-0.4125135540962219
1733230367037002500,7.25700244140625,-0.19522953033447266,-1.3709419965744019,-0.3157155513763428
1733230367046982000,7.26698193359375,-1.0254144668579102,-0.9809405207633972,-0.28485602140426636
1733230367056991500,7.276991455078125,-1.7398104667663574,-0.6848069429397583,-0.15817159414291382
1733230367067001300,7.28700146484375,-2.2027220726013184,-0.48683857917785645,-0.052012935280799866
1733230367076980500,7.29698046875,-2.510826587677002,-0.2955307960510254,-0.01261049509048462
1733230367086990300,7.306990234375,-2.4948220252990723,-0.1694725751876831,-0.05145764350891113
1733230367097000000,7.317,-2.15285587310791,-0.06023716926574707,-0.14443320035934448
1733230367106979300,7.326979248046875,-1.6623263359069824,-0.03315126895904541,-0.21649697422981262
1733230367116989200,7.3369892578125,-1.0828065872192383,-0.08928704261779785,-0.31589221954345703
1733230367126998800,7.346998779296875,-0.6442165374755859,-0.1750556230545044,-0.31161433458328247
1733230367136978200,7.356978271484375,-0.038570404052734375,-0.11989545822143555,-0.30601584911346436
1733230367146988000,7.366988037109375,0.38978099822998047,-0.1317054033279419,-0.3767811954021454
1733230367156997600,7.37699755859375,0.7872047424316406,-0.169960618019104,-0.447148859500885
1733230367166976800,7.386976806640625,1.0798273086547852,-0.24431777000427246,-0.48839476704597473
1733230367176986600,7.396986572265625,1.2440290451049805,-0.22114992141723633,-0.4830213189125061
1733230367186996200,7.406996337890625,1.335057258605957,-0.29336512088775635,-0.4591106176376343
1733230367196975600,7.4169755859375,1.3270397186279297,-0.36709803342819214,-0.3511654734611511
1733230367206985500,7.4269853515625,1.2792339324951172,-0.42601442337036133,-0.2805374264717102
1733230367216995000,7.4369951171875,1.2154426574707031,-0.5266231298446655,-0.21906454861164093
1733230367226974500,7.446974365234375,1.135514259338379,-0.5363519191741943,-0.15689653158187866
1733230367236984300,7.456984375,0.9579734802246094,-0.5096516609191895,-0.08246105909347534
1733230367246994000,7.466993896484375,0.6779909133911133,-0.4555695652961731,-0.03483900427818298
1733230367256973300,7.476973388671875,0.3984804153442383,-0.39302170276641846,-0.040159136056900024
1733230367266983000,7.48698291015625,0.11459159851074219,-0.3024630546569824,-0.06458869576454163
1733230367276992800,7.49699267578125,-0.13527488708496094,-0.1628042459487915,-0.09911319613456726
1733230367287002400,7.50700244140625,-0.29629039764404297,-0.034592509269714355,-0.1360662281513214
1733230367296981800,7.516981689453125,-0.5169181823730469,0.08941507339477539,-0.182095006108284
1733230367306991400,7.526991455078125,-0.6694707870483398,0.21490061283111572,-0.14427532255649567
1733230367317001200,7.537001220703125,-0.8202934265136719,0.2521803379058838,-0.14903314411640167
1733230367326980600,7.546980712890625,-0.916651725769043,0.20445489883422852,-0.17371515929698944
1733230367336990500,7.556990478515625,-0.9218635559082031,0.09589159488677979,-0.29634228348731995
1733230367347000000,7.567,-0.7557353973388672,-0.026856184005737305,-0.406221866607666
1733230367356979500,7.5769794921875,-0.3975038528442383,-0.14584076404571533,-0.49730366468429565
1733230367366989000,7.586989013671875,0.0010900497436523438,-0.285176157951355,-0.4932624101638794
1733230367376999000,7.5969990234375,0.4162626266479492,-0.44383251667022705,-0.5800449848175049
1733230367386978000,7.60697802734375,0.7639760971069336,-0.553684413433075,-0.6363169550895691
1733230367396988000,7.61698779296875,0.9345798492431641,-0.5896899104118347,-0.7078847885131836
1733230367406997500,7.62699755859375,1.0553293228149414,-0.4709552526473999,-0.7972047924995422
1733230367416977000,7.636976806640625,1.0668468475341797,-0.3428894281387329,-0.8483584523200989
1733230367426986800,7.64698681640625,0.9748287200927734,-0.15182042121887207,-0.7021979689598083
1733230367436996400,7.656996337890625,0.8971872329711914,0.02572953701019287,-0.5870007276535034
1733230367446975700,7.666975830078125,0.7751283645629883,0.13813650608062744,-0.4191901981830597
1733230367456985600,7.676985595703125,0.8295021057128906,0.17353355884552002,-0.3370683789253235
1733230367466995200,7.6869951171875,0.9467430114746094,0.18096041679382324,-0.31558018922805786
1733230367476974300,7.696974365234375,1.1740131378173828,0.16878366470336914,-0.3103742003440857
1733230367486984200,7.706984130859375,1.518239974975586,0.17753112316131592,-0.28888294100761414
1733230367496993800,7.716993896484375,1.826085090637207,0.12300586700439453,-0.2777867019176483
1733230367506973200,7.72697314453125,2.0117406845092773,0.002763509750366211,-0.31449735164642334
1733230367516866300,7.7368662109375,2.139963150024414,-0.33041149377822876,-0.3470747768878937
1733230367526876000,7.7468759765625,2.3184728622436523,-0.7711451053619385,-0.28071528673171997
1733230367536885800,7.7568857421875,2.520817756652832,-1.3662570714950562,-0.24490828812122345
1733230367546865200,7.766865234375,2.7014341354370117,-1.9402081966400146,-0.21098366379737854
1733230367556874800,7.776874755859375,2.920215606689453,-2.4786698818206787,-0.16256968677043915
1733230367566884600,7.786884521484375,3.1701173782348633,-2.700103282928467,-0.2088700532913208
1733230367576863700,7.79686376953125,3.176346778869629,-2.631763219833374,-0.16286662220954895
1733230367586873600,7.80687353515625,2.690524101257324,-2.477034330368042,0.017836391925811768
1733230367596883200,7.81688330078125,1.6678485870361328,-2.176360607147217,0.08701065182685852
1733230367606862600,7.826862548828125,0.48238182067871094,-1.760548710823059,0.20831431448459625
1733230367616872400,7.83687255859375,-0.686161994934082,-1.3185968399047852,0.39672473073005676
1733230367626882000,7.846882080078125,-1.9215288162231445,-1.0000262260437012,0.6260291934013367
1733230367636861400,7.856861328125,-2.859863758087158,-0.7719374895095825,0.7635418176651001
1733230367646871300,7.866871337890625,-3.7084879875183105,-0.5780056118965149,0.9078545570373535
1733230367656881000,7.876880859375,-4.121335983276367,-0.5136927962303162,1.069904088973999
1733230367666860300,7.8868603515625,-4.336583614349365,-0.5179108381271362,1.349044680595398
1733230367676870000,7.896869873046875,-4.286062240600586,-0.6209756135940552,1.6660655736923218
1733230367686879700,7.906879638671875,-3.8963141441345215,-0.8157818913459778,2.0229268074035645
1733230367696859000,7.91685888671875,-3.266139030456543,-0.9996810555458069,2.1896259784698486
1733230367706868700,7.92686865234375,-2.3596787452697754,-1.338362455368042,2.2567458152770996
1733230367716878300,7.93687841796875,-1.4291620254516602,-1.7382228374481201,2.293125629425049
1733230367726857700,7.946857666015625,-0.6872453689575195,-2.0688157081604004,2.2888216972351074
1733230367736867600,7.95686767578125,-0.025109291076660156,-2.328697681427002,2.14196515083313
1733230367746877200,7.966877197265625,0.4524822235107422,-2.4420042037963867,1.9510796070098877
1733230367756856600,7.976856689453125,0.8275270462036133,-2.4817631244659424,1.6292481422424316
1733230367766866400,7.986866455078125,1.1066112518310547,-2.369720935821533,1.3661284446716309
1733230367776876000,7.9968759765625,1.3237075805664062,-2.1180765628814697,0.9600782990455627
1733230367786886000,8.006885986328125,1.3935174942016602,-1.8771320581436157,0.7106022238731384
1733230367796865000,8.016864990234374,1.2806463241577148,-1.5610400438308716,0.6613672375679016
1733230367806874600,8.02687451171875,0.9922904968261719,-1.3531608581542969,0.6957184076309204
1733230367816884500,8.036884521484374,0.5760164260864258,-1.105756163597107,0.6974334120750427
1733230367826863900,8.04686376953125,0.08400154113769531,-0.8439400792121887,0.5294262766838074
1733230367836873700,8.056873779296875,-0.3047981262207031,-0.6993144154548645,0.43997278809547424
1733230367846883300,8.06688330078125,-0.5716695785522461,-0.5963189005851746,0.4909735918045044
1733230367856862700,8.07686279296875,-0.6403980255126953,-0.5026494264602661,0.5187734961509705
1733230367866872600,8.08687255859375,-0.5420150756835938,-0.394910991191864,0.5202323198318481
1733230367876882200,8.096882080078124,-0.4463062286376953,-0.01113581657409668,0.2390732616186142
1733230367886861300,8.106861328125,-0.3137350082397461,0.2048611044883728,0.11813542246818542
1733230367896871200,8.11687109375,-0.24680042266845703,0.33195143938064575,0.09843039512634277
1733230367906880800,8.126880859375,-0.22456741333007812,0.44214576482772827,0.13212203979492188
1733230367916860200,8.136860107421874,-0.26311683654785156,0.48675084114074707,0.21038663387298584
1733230367926870000,8.1468701171875,-0.3401803970336914,0.4633256196975708,0.33681780099868774
1733230367936879600,8.156879638671874,-0.4658479690551758,0.3805060386657715,0.44097286462783813
1733230367946859000,8.16685888671875,-0.44533252716064453,0.27196991443634033,0.423242449760437
1733230367956868900,8.176868896484375,-0.30855560302734375,0.17787301540374756,0.31390851736068726
1733230367966878500,8.18687841796875,-0.09888458251953125,0.13398802280426025,0.2674139738082886
1733230367976857900,8.19685791015625,0.17758655548095703,0.07837569713592529,0.1789534091949463
1733230367986867500,8.206867431640624,0.45140933990478516,0.07690304517745972,0.028381288051605225
1733230367996877000,8.216876953125,0.6459617614746094,0.058713555335998535,-0.12063521146774292
1733230368006856400,8.2268564453125,0.703984260559082,0.07515585422515869,-0.1790798306465149
1733230368016866300,8.2368662109375,0.6472864151000977,0.11108267307281494,-0.2217789590358734
1733230368026876000,8.2468759765625,0.5237903594970703,0.11644202470779419,-0.22325316071510315
1733230368036885800,8.2568857421875,0.33592700958251953,0.11584782600402832,-0.18942439556121826
1733230368046865200,8.266865234375,0.25844764709472656,0.10873556137084961,-0.15033620595932007
1733230368056875000,8.276875,0.21461200714111328,0.11366808414459229,-0.1799924671649933
1733230368066884600,8.286884521484374,0.24979686737060547,0.1367235779762268,-0.24916964769363403
1733230368076863700,8.29686376953125,0.3160247802734375,0.15007418394088745,-0.24952441453933716
1733230368086873600,8.30687353515625,0.2720766067504883,0.21067774295806885,-0.23650801181793213
1733230368096883200,8.31688330078125,0.16592884063720703,0.27074629068374634,-0.23092526197433472
1733230368106862600,8.326862548828124,-0.01908588409423828,0.39551985263824463,-0.187013179063797
1733230368116872400,8.33687255859375,-0.23493576049804688,0.4996078610420227,-0.16284343600273132
1733230368126882000,8.346882080078124,-0.5820035934448242,0.552930474281311,-0.06376385688781738
1733230368136861400,8.356861328125,-0.892634391784668,0.6224061846733093,-0.03148084878921509
1733230368146871300,8.366871337890625,-1.1360387802124023,0.7137002348899841,-0.0709933340549469
1733230368156881000,8.376880859375,-1.0850658416748047,0.7629958987236023,0.00757068395614624
1733230368166860300,8.3868603515625,-0.8859004974365234,0.7800006866455078,0.01906496286392212
1733230368176870100,8.3968701171875,-0.538477897644043,0.8036885261535645,0.0023102164268493652
1733230368186879700,8.406879638671874,-0.19101238250732422,0.8093958497047424,-0.021486341953277588
1733230368196859000,8.41685888671875,0.19015979766845703,0.6989578008651733,0.003070265054702759
1733230368206868700,8.42686865234375,0.40880584716796875,0.6072766184806824,0.09083670377731323
1733230368216878300,8.43687841796875,0.6541461944580078,0.5499961972236633,0.14144587516784668
1733230368226857700,8.446857666015624,0.7965192794799805,0.5202677249908447,0.12880152463912964
1733230368236867600,8.45686767578125,0.9052515029907227,0.5089457035064697,0.09487903118133545
1733230368246877200,8.466877197265624,0.9324789047241211,0.5117836594581604,0.04197549819946289
1733230368256856600,8.476856689453125,0.8639745712280273,0.5645527243614197,0.009509146213531494
1733230368266866400,8.486866455078125,0.7238759994506836,0.5953851342201233,0.031362831592559814
1733230368276876300,8.496876220703125,0.4421672821044922,0.6164737939834595,0.07184946537017822
1733230368286886000,8.506885986328125,0.11302375793457031,0.6070584058761597,0.19204306602478027
1733230368296865000,8.516864990234374,-0.19643497467041016,0.5605676174163818,0.330477237701416
1733230368306875000,8.526875,-0.42660999298095703,0.47727227210998535,0.47675156593322754
1733230368316884500,8.536884521484374,-0.4915428161621094,0.3913695216178894,0.48123806715011597
1733230368326864000,8.54686376953125,-0.4034700393676758,0.3174538016319275,0.415371298789978
1733230368336873700,8.556873779296875,-0.20331668853759766,0.2759218215942383,0.2948610484600067
1733230368346883300,8.56688330078125,-0.032530784606933594,0.1277240514755249,0.026276350021362305
1733230368356862700,8.57686279296875,0.01817798614501953,0.06803369522094727,-0.10321950912475586
1733230368366872600,8.58687255859375,0.09107589721679688,-0.01231229305267334,-0.2912026643753052
1733230368376882200,8.596882080078124,0.18980693817138672,-0.09753954410552979,-0.37373086810112
1733230368386861300,8.606861328125,0.4001131057739258,-0.1510627269744873,-0.3569160997867584
1733230368396871200,8.61687109375,0.6432161331176758,-0.09061002731323242,-0.24124175310134888
1733230368406880800,8.626880859375,0.747288703918457,-0.010292291641235352,-0.15658465027809143
1733230368416860200,8.636860107421874,0.7009124755859375,0.06312036514282227,-0.028181135654449463
1733230368426870000,8.6468701171875,0.6477222442626953,-0.013157248497009277,0.19932106137275696
1733230368436879600,8.656879638671874,0.5892314910888672,-0.27403002977371216,0.261974036693573
1733230368446859000,8.66685888671875,0.6215057373046875,-0.6484726667404175,0.24977299571037292
1733230368456868900,8.676868896484375,0.7926549911499023,-1.0488051176071167,0.14809897541999817
1733230368466879000,8.68687890625,1.1510896682739258,-1.4095721244812012,-0.24592901766300201
1733230368476857600,8.696857666015624,1.8435535430908203,-1.5944969654083252,-0.5788451433181763
1733230368486867500,8.706867431640624,2.3892831802368164,-1.5480217933654785,-0.6214727163314819
1733230368496877300,8.716877197265624,2.592593193054199,-1.270965337753296,-0.7143319845199585
1733230368506856400,8.7268564453125,2.2003822326660156,-1.0056332349777222,-0.8476126194000244
1733230368516866300,8.7368662109375,1.544271469116211,-0.8612719774246216,-0.8879135847091675
1733230368526876200,8.746876220703125,0.6740922927856445,-0.63103848695755,-0.9798057675361633
1733230368536885800,8.7568857421875,-0.046317100524902344,-0.43707332015037537,-1.2339743375778198
1733230368546865200,8.766865234375,-0.6005163192749023,-0.36501485109329224,-1.3588217496871948
1733230368556874800,8.776874755859374,-0.8429059982299805,-0.3434784412384033,-1.4042680263519287
1733230368566884600,8.786884521484374,-0.9779558181762695,-0.46197131276130676,-1.241300106048584
1733230368576863700,8.79686376953125,-0.9314537048339844,-0.6481034755706787,-1.0339173078536987
1733230368586873600,8.80687353515625,-0.7585897445678711,-0.9055627584457397,-0.6780799627304077
1733230368596883200,8.81688330078125,-0.5242519378662109,-1.1801471710205078,-0.47650858759880066
1733230368606862600,8.826862548828124,-0.30233097076416016,-1.4407038688659668,-0.6409286260604858
1733230368616872400,8.83687255859375,-0.09751129150390625,-1.6055934429168701,-1.003404974937439
1733230368626882000,8.846882080078124,-0.053229331970214844,-1.5994775295257568,-1.2072510719299316
1733230368636861400,8.856861328125,-0.11180591583251953,-1.344961404800415,-1.4662566184997559
1733230368646871300,8.866871337890625,-0.2586946487426758,-1.3668677806854248,-1.5133765935897827
1733230368656881000,8.876880859375,-0.6516017913818359,-1.353926181793213,-1.1967287063598633
1733230368666860300,8.8868603515625,-1.0004005432128906,-1.0455055236816406,-1.2622263431549072
1733230368676870100,8.8968701171875,-1.5447893142700195,-0.9649448394775391,-1.3701951503753662
1733230368686879700,8.906879638671874,-1.9520974159240723,-0.9567757844924927,-1.4500248432159424
1733230368696859000,8.91685888671875,-2.1916346549987793,-1.0298278331756592,-1.3991882801055908
1733230368706868700,8.92686865234375,-2.27131986618042,-1.1843526363372803,-1.2427979707717896
1733230368716878300,8.93687841796875,-2.0552148818969727,-1.4036120176315308,-1.2564687728881836
1733230368726857700,8.946857666015624,-1.4790754318237305,-1.6742452383041382,-1.3500144481658936
1733230368736867600,8.95686767578125,-0.8048362731933594,-1.911316156387329,-1.4562697410583496
1733230368746877400,8.96687744140625,0.12427520751953125,-2.070040464401245,-1.6347976922988892
1733230368756856600,8.976856689453125,0.9808492660522461,-2.088000774383545,-1.6967995166778564
1733230368766866400,8.986866455078125,1.8182830810546875,-1.9984347820281982,-1.6697702407836914
1733230368776876000,8.9968759765625,2.1895055770874023,-1.8304822444915771,-1.597091555595398
1733230368786886000,9.006885986328125,2.1379880905151367,-1.5922999382019043,-1.4382009506225586
1733230368796865000,9.016864990234374,1.6300277709960938,-1.3608624935150146,-1.1950653791427612
1733230368806874600,9.02687451171875,0.8287925720214844,-1.032564640045166,-0.8389245271682739
1733230368816884500,9.036884521484374,0.014731407165527344,-0.7555626034736633,-0.6545226573944092
1733230368826863900,9.04686376953125,-0.6935653686523438,-0.49904900789260864,-0.4836438298225403
1733230368836873500,9.05687353515625,-1.0953254699707031,-0.29329410195350647,-0.31125006079673767
1733230368846883300,9.06688330078125,-1.2362794876098633,-0.13185358047485352,-0.20887696743011475
1733230368856862700,9.07686279296875,-1.2247371673583984,-0.016965746879577637,-0.13298283517360687
1733230368866872600,9.08687255859375,-1.1032066345214844,0.03303873538970947,-0.09744350612163544
1733230368876882200,9.096882080078124,-0.9411134719848633,0.048797428607940674,-0.08863404393196106
1733230368886861300,9.106861328125,-0.7480382919311523,0.037860482931137085,-0.11337481439113617
1733230368896871200,9.11687109375,-0.5309791564941406,-0.050587743520736694,-0.16472123563289642
1733230368906880800,9.126880859375,-0.26359081268310547,-0.14201313257217407,-0.25009065866470337
1733230368916860200,9.136860107421874,0.04217815399169922,-0.22045783698558807,-0.3639845550060272
1733230368926870000,9.1468701171875,0.29294586181640625,-0.24527797102928162,-0.4916101098060608
1733230368936879600,9.156879638671874,0.5581731796264648,-0.3255581557750702,-0.5270514488220215
1733230368946859000,9.16685888671875,0.6966047286987305,-0.29516899585723877,-0.5797913670539856
1733230368956868900,9.176868896484375,0.6819725036621094,-0.24944202601909637,-0.6922789812088013
1733230368966878500,9.18687841796875,0.5665254592895508,-0.1591096669435501,-0.5302096009254456
1733230368976857900,9.19685791015625,0.4009380340576172,-0.09864289313554764,-0.4564138352870941
1733230368986867500,9.206867431640624,0.2712421417236328,-0.06105269864201546,-0.42860379815101624
1733230368996877000,9.216876953125,0.1278390884399414,-0.07815798372030258,-0.39069846272468567
1733230369006856400,9.2268564453125,0.024850845336914062,-0.08964622765779495,-0.39668282866477966
1733230369016866300,9.2368662109375,0.02962017059326172,-0.10344246029853821,-0.40346330404281616
1733230369026876000,9.2468759765625,0.09765815734863281,-0.10633659362792969,-0.27302950620651245
1733230369036885800,9.2568857421875,0.12465476989746094,-0.13692960143089294,-0.12353818118572235
1733230369046865200,9.266865234375,0.12736892700195312,-0.12462679296731949,0.01733173429965973
1733230369056875000,9.276875,0.15140247344970703,-0.07690882682800293,0.08937636017799377
1733230369066884600,9.286884521484374,0.12979412078857422,-0.03143372759222984,0.13295920193195343
1733230369076863700,9.29686376953125,0.0673980712890625,-0.021048787981271744,0.1294415295124054
1733230369086873600,9.30687353515625,0.0767965316772461,0.03343567997217178,0.09064854681491852
1733230369096883200,9.31688330078125,0.05267143249511719,0.15529726445674896,0.022480353713035583
1733230369106862600,9.326862548828124,0.0213775634765625,0.22112609446048737,0.017168715596199036
1733230369116872400,9.33687255859375,-0.08411312103271484,0.253275066614151,0.046037331223487854
1733230369126882000,9.346882080078124,-0.1704397201538086,0.28054380416870117,0.11840610206127167
1733230369136861400,9.356861328125,-0.2615690231323242,0.29845982789993286,0.18510209023952484
1733230369146871300,9.366871337890625,-0.2761049270629883,0.2892265319824219,0.18075814843177795
1733230369156881000,9.376880859375,-0.19488525390625,0.3229333460330963,0.08892248570919037
1733230369166860300,9.3868603515625,0.0012645721435546875,0.3591890335083008,0.0015602707862854004
1733230369176870100,9.3968701171875,0.13756847381591797,0.3926098346710205,-0.050203368067741394
1733230369186879700,9.406879638671874,0.22360706329345703,0.38551265001296997,-0.0977051705121994
1733230369196859000,9.41685888671875,0.2689647674560547,0.40485137701034546,-0.13598263263702393
1733230369206868700,9.42686865234375,0.3047761917114258,0.4287065267562866,-0.24186012148857117
1733230369216878300,9.43687841796875,0.37174510955810547,0.443914532661438,-0.27638351917266846
1733230369226857700,9.446857666015624,0.45790576934814453,0.4920792877674103,-0.27037572860717773
1733230369236867600,9.45686767578125,0.5321369171142578,0.5426183938980103,-0.20178157091140747
1733230369246877200,9.466877197265624,0.5872573852539062,0.5712023973464966,-0.15903303027153015
1733230369256856600,9.476856689453125,0.5921649932861328,0.5783002972602844,-0.07784393429756165
1733230369266866400,9.486866455078125,0.5803756713867188,0.6171737909317017,-0.024695631116628647
1733230369276876300,9.496876220703125,0.5614585876464844,0.5671539306640625,-0.016804486513137817
1733230369286886000,9.506885986328125,0.5928554534912109,0.523462176322937,-0.0008424056577496231
1733230369296865000,9.516864990234374,0.6793146133422852,0.40211403369903564,0.07790006697177887
1733230369306875000,9.526875,0.8327846527099609,0.34033721685409546,0.08587333559989929
1733230369316884500,9.536884521484374,1.1873254776000977,0.3456668257713318,-0.014767684042453766
1733230369326864000,9.54686376953125,1.5298337936401367,0.38586145639419556,-0.11205734312534332
1733230369336873700,9.556873779296875,1.8483867645263672,0.4298132658004761,-0.28425833582878113
1733230369346883300,9.56688330078125,2.013766288757324,0.40874218940734863,-0.43384742736816406
1733230369356862700,9.57686279296875,2.0379695892333984,0.3154074251651764,-0.44776371121406555
1733230369366872600,9.58687255859375,1.885091781616211,0.09079080820083618,-0.34458571672439575
1733230369376882200,9.596882080078124,1.7274808883666992,-0.2599467933177948,-0.3174041509628296
1733230369386861300,9.606861328125,1.6776447296142578,-0.641758143901825,-0.35525694489479065
1733230369396871200,9.61687109375,1.771437644958496,-1.0558866262435913,-0.425520122051239
1733230369406880800,9.626880859375,1.9394311904907227,-1.3920233249664307,-0.5982195138931274
1733230369416860200,9.636860107421874,1.9565505981445312,-1.5495837926864624,-0.7532744407653809
1733230369426870000,9.6468701171875,1.6839790344238281,-1.5283836126327515,-0.6849400401115417
1733230369436879600,9.656879638671874,1.162550926208496,-1.4241117238998413,-0.6517653465270996
1733230369446859000,9.66685888671875,0.28467750549316406,-1.3274437189102173,-0.654273271560669
1733230369456868900,9.676868896484375,-0.45626163482666016,-1.3038345575332642,-0.5142128467559814
1733230369466878500,9.68687841796875,-1.2229948043823242,-1.1991220712661743,-0.3615576922893524
1733230369476857600,9.696857666015624,-1.831131935119629,-1.0934370756149292,-0.21424849331378937
1733230369486867500,9.706867431640624,-2.3909912109375,-0.9968006014823914,-0.06041234731674194
1733230369496877300,9.716877197265624,-2.6777663230895996,-0.9218782186508179,0.10946857929229736
1733230369506856400,9.7268564453125,-2.909646987915039,-0.8410787582397461,0.2188890129327774
1733230369516866300,9.7368662109375,-2.8880720138549805,-0.8493770956993103,0.4341539740562439
1733230369526876200,9.746876220703125,-2.7138452529907227,-0.9377058148384094,0.6545750498771667
1733230369536885800,9.7568857421875,-2.3966832160949707,-1.0551316738128662,0.8748694062232971
1733230369546865200,9.766865234375,-2.0159401893615723,-1.1352097988128662,1.0290076732635498
1733230369556874800,9.776874755859374,-1.5735502243041992,-1.2568655014038086,1.2389620542526245
1733230369566884600,9.786884521484374,-1.2417593002319336,-1.3308100700378418,1.3471529483795166
1733230369576863700,9.79686376953125,-0.9557809829711914,-1.4235093593597412,1.368674635887146
1733230369586873600,9.80687353515625,-0.7274770736694336,-1.4690748453140259,1.468459129333496
1733230369596883500,9.816883544921875,-0.5016574859619141,-1.5790555477142334,1.5122228860855103
1733230369606862600,9.826862548828124,-0.29741382598876953,-1.7012810707092285,1.4898948669433594
1733230369616872400,9.83687255859375,-0.033486366271972656,-1.8293805122375488,1.4959310293197632
1733230369626882000,9.846882080078124,0.29737091064453125,-1.9392293691635132,1.4950751066207886
1733230369636861400,9.856861328125,0.5922937393188477,-2.040595054626465,1.4548389911651611
1733230369646871300,9.866871337890625,1.0016279220581055,-1.4067373275756836,0.8629932999610901
1733230369656881000,9.876880859375,1.405538558959961,-1.0049395561218262,0.47966134548187256
1733230369666860300,9.8868603515625,1.7146215438842773,-0.7838519215583801,0.18963074684143066
1733230369676870100,9.8968701171875,1.8522558212280273,-0.5801709294319153,-0.059397339820861816
1733230369686879700,9.906879638671874,1.827117919921875,-0.3197653293609619,-0.2501980662345886
1733230369696859000,9.91685888671875,1.6841812133789062,-0.16469049453735352,-0.3341563940048218
1733230369706868700,9.92686865234375,1.4057769775390625,0.04342389106750488,-0.2899850010871887
1733230369716878300,9.93687841796875,1.0064001083374023,0.21008050441741943,-0.20891475677490234
1733230369726857700,9.946857666015624,0.5317859649658203,0.39817047119140625,-0.14991211891174316
1733230369736867600,9.95686767578125,0.17862987518310547,0.5593694448471069,-0.12617981433868408
1733230369746877400,9.96687744140625,-0.04785633087158203,0.6672260761260986,-0.10319602489471436
1733230369756856600,9.976856689453125,-0.12339019775390625,0.7194207906723022,-0.07195377349853516
1733230369766866400,9.986866455078125,-0.10028457641601562,0.7568698525428772,-0.11219632625579834
1733230369776876000,9.9968759765625,-0.038773536682128906,0.767045259475708,-0.15674257278442383
1733230369786886000,10.006885986328125,0.030989646911621094,0.6145808696746826,-0.14001214504241943
1733230369796865000,10.016864990234374,0.11919784545898438,0.5571148991584778,-0.11841833591461182
1733230369806874600,10.02687451171875,0.09895896911621094,0.4698539972305298,-0.1050337553024292
1733230369816884500,10.036884521484374,0.03094482421875,0.3972935080528259,-0.10223078727722168
1733230369826863900,10.04686376953125,-0.061981201171875,0.33379238843917847,-0.09100520610809326
1733230369836873500,10.05687353515625,-0.1320514678955078,0.1888933777809143,-0.08771979808807373
1733230369846883300,10.06688330078125,-0.1031351089477539,0.0939931571483612,-0.10743123292922974
1733230369856862700,10.07686279296875,-0.016345977783203125,0.021771878004074097,-0.15813374519348145
1733230369866872600,10.08687255859375,0.14470386505126953,-0.046877115964889526,-0.2208731770515442
1733230369876882200,10.096882080078124,0.3211994171142578,-0.08285936713218689,-0.22911840677261353
1733230369886861300,10.106861328125,0.5024318695068359,-0.10740792751312256,-0.27680134773254395
1733230369896871200,10.11687109375,0.5854072570800781,-0.09588372707366943,-0.2875499725341797
1733230369906880800,10.126880859375,0.5173778533935547,-0.04516029357910156,-0.2707918882369995
1733230369916860200,10.136860107421874,0.3651552200317383,0.00034925341606140137,-0.3165137767791748
1733230369926870000,10.1468701171875,0.21733951568603516,0.08281692862510681,-0.40259140729904175
1733230369936879600,10.156879638671874,-0.021793365478515625,0.14843149483203888,-0.43538951873779297
1733230369946859000,10.16685888671875,-0.0816507339477539,0.19323024153709412,-0.48905667662620544
1733230369956868900,10.176868896484375,-0.1659383773803711,0.20589032769203186,-0.4867948293685913
1733230369966878500,10.18687841796875,-0.19060897827148438,0.17989914119243622,-0.4378036558628082
1733230369976857900,10.19685791015625,-0.2345409393310547,0.1188712790608406,-0.41229841113090515
1733230369986867500,10.206867431640624,-0.2017841339111328,0.060306891798973083,-0.3710525929927826
1733230369996877000,10.216876953125,-0.1855020523071289,0.044862300157547,-0.30227726697921753
1733230370006856400,10.2268564453125,-0.1784982681274414,0.02388516068458557,-0.2617136240005493
1733230370016866300,10.2368662109375,-0.1616220474243164,0.0784442126750946,-0.2401096224784851
1733230370026876000,10.2468759765625,-0.1660909652709961,0.08812105655670166,-0.24150526523590088
1733230370036885800,10.2568857421875,-0.18949604034423828,0.1149468719959259,-0.12504076957702637
1733230370046865200,10.266865234375,-0.2748842239379883,0.12486301362514496,-0.02104318141937256
1733230370056875000,10.276875,-0.3049612045288086,0.14877639710903168,0.036968231201171875
1733230370066884600,10.286884521484374,-0.30140018463134766,0.19110950827598572,0.0673934817314148
1733230370076863700,10.29686376953125,-0.2881488800048828,0.19980230927467346,0.13741326332092285
1733230370086873600,10.30687353515625,-0.30593299865722656,0.1794087141752243,0.1659061312675476
1733230370096883500,10.316883544921875,-0.31885814666748047,0.20934665203094482,0.1483728289604187
1733230370106862600,10.326862548828124,-0.3150014877319336,0.19953833520412445,0.08567416667938232
1733230370116872400,10.33687255859375,-0.2248525619506836,0.22753170132637024,0.07950586080551147
1733230370126882000,10.346882080078124,-0.14417648315429688,0.28163743019104004,0.009922623634338379
1733230370136861400,10.356861328125,-0.032283782958984375,0.26999518275260925,-0.09178295731544495
1733230370146871300,10.366871337890625,0.17297840118408203,0.27926838397979736,-0.16910487413406372
1733230370156881000,10.376880859375,0.531402587890625,0.22695322334766388,-0.09163820743560791
1733230370166860300,10.3868603515625,1.112457275390625,0.21428772807121277,0.14468681812286377
1733230370176870100,10.3968701171875,0.5917835235595703,0.4466985762119293,-0.2506684362888336
1733230370186879700,10.406879638671874,-0.1415576934814453,0.4717136323451996,-0.3919035494327545
1733230370196859000,10.41685888671875,-0.3573760986328125,0.491631418466568,-0.2943691611289978
1733230370206868700,10.42686865234375,-0.43436241149902344,0.565854012966156,-0.11361518502235413
1733230370216878300,10.43687841796875,-0.5352792739868164,0.5866847634315491,-0.15552976727485657
1733230370226857700,10.446857666015624,-0.5117473602294922,0.5910723209381104,-0.15341120958328247
1733230370236867600,10.45686767578125,-0.41404247283935547,0.5358734130859375,-0.07661882042884827
1733230370246877200,10.466877197265624,-0.2540750503540039,0.3960161805152893,-0.04616481065750122
1733230370256856600,10.476856689453125,-0.07245922088623047,0.20015573501586914,0.0074419379234313965
1733230370266866400,10.486866455078125,0.13559722900390625,0.08718623220920563,-0.026196002960205078
1733230370276876300,10.496876220703125,0.36527442932128906,0.023511677980422974,-0.08163619041442871
1733230370286886000,10.506885986328125,0.5495538711547852,-0.03380541130900383,-0.08014717698097229
1733230370296865000,10.516864990234374,0.5806550979614258,-0.05772171914577484,-0.053191423416137695
1733230370306875000,10.526875,0.4991321563720703,-0.10639938712120056,0.011362582445144653
1733230370316884500,10.536884521484374,0.28122711181640625,-0.07902213931083679,0.07111212611198425
1733230370326864000,10.54686376953125,-0.07794189453125,0.04444479942321777,0.03354579210281372
1733230370336873700,10.556873779296875,-0.5185022354125977,0.10145087540149689,0.011507958173751831
1733230370346883300,10.56688330078125,-0.8178014755249023,0.09387344121932983,0.03777626156806946
1733230370356862700,10.57686279296875,-0.8060579299926758,0.16619780659675598,-0.015245705842971802
