time,seconds_elapsed,z,y,x
1733230359977173200,0.19717333984375,0.00366519158706069,-0.10384709388017654,-0.1319468915462494
1733230359987131000,0.207130859375,0.00855211354792118,-0.07696902006864548,-0.18509216606616974
1733230359997162500,0.21716259765625,0.05192354694008827,-0.06230825558304787,-0.28527405858039856
1733230360007120100,0.2271201171875,0.0659734457731247,-0.05742133408784866,-0.3536909818649292
1733230360017151500,0.2371513671875,0.06475171446800232,-0.07330382615327835,-0.4129449129104614
1733230360027139300,0.247139404296875,0.05803219974040985,-0.1007927656173706,-0.4440990388393402
1733230360037171200,0.257171142578125,0.056810468435287476,-0.08857546001672745,-0.42210787534713745
1733230360047128300,0.26712841796875,0.06352998316287994,-0.07208210229873657,-0.35552358627319336
1733230360057160200,0.27716015625,0.07513642311096191,-0.05375614017248154,-0.25961771607398987
1733230360067148000,0.28714794921875,0.09468411654233932,-0.00733038317412138,-0.0861319974064827
1733230360077149400,0.2971494140625,0.11178833991289139,0.03420845419168472,0.028099801391363144
1733230360087137000,0.307136962890625,0.12950342893600464,0.07024950534105301,0.11850785464048386
1733230360097168600,0.317168701171875,0.13439035415649414,0.09224065393209457,0.17592918872833252
1733230360107126000,0.3271259765625,0.13255776464939117,0.09407325088977814,0.20097467303276062
1733230360117155800,0.33715576171875,0.12400564551353455,0.07391469180583954,0.19853121042251587
1733230360127144400,0.34714453125,0.10384709388017654,0.031154127791523933,0.16798794269561768
1733230360137145600,0.3571455078125,0.05619960278272629,-0.05192354694008827,0.09651670604944229
1733230360147133400,0.367133544921875,0.02626720629632473,-0.10751228034496307,0.042760565876960754
1733230360157165000,0.3771650390625,0.009773843921720982,-0.15515977144241333,-0.012828170321881771
1733230360167122400,0.387122314453125,-0.004886921960860491,-0.17531833052635193,-0.06108652427792549
1733230360177154000,0.397154052734375,-0.016493361443281174,-0.17776179313659668,-0.0959058403968811
1733230360187142000,0.407141845703125,-0.015882495790719986,-0.1661553531885147,-0.11178833991289139
1733230360197143300,0.417143310546875,-0.00855211354792118,-0.15027284622192383,-0.1062905490398407
1733230360207131100,0.427131103515625,-0.01038470957428217,-0.14782938361167908,-0.09346238523721695
1733230360217163500,0.43716357421875,-0.012217304669320583,-0.1417207419872284,-0.04703662544488907
1733230360227121000,0.447120849609375,0.0024434609804302454,-0.11484266817569733,-0.003054326167330146
1733230360237152500,0.457152587890625,0.019547687843441963,-0.04214970022439957,0.0403171069920063
1733230360247140600,0.467140625,0.019547687843441963,-0.00427605677396059,0.06963863968849182
1733230360257141500,0.4771416015625,0.013439035043120384,0.006108652334660292,0.0806342139840126
1733230360267129600,0.487129638671875,0.00366519158706069,-0.010995574295520782,0.06841690838336945
1733230360277161000,0.497160888671875,-0.009162978269159794,-0.039706241339445114,0.042760565876960754
1733230360287149000,0.507149169921875,-0.015271631069481373,-0.05925392732024193,0.001832595793530345
1733230360297150200,0.517150146484375,-0.015882495790719986,-0.06780604273080826,-0.025045474991202354
1733230360307138300,0.52713818359375,-0.025656340643763542,-0.07757988572120667,-0.04642575979232788
1733230360317170000,0.537169921875,-0.03787364438176155,-0.08246681094169617,-0.0555887371301651
1733230360327127000,0.547126953125,-0.04092797264456749,-0.07696902006864548,-0.05619960278272629
1733230360337159000,0.557158935546875,-0.03420845419168472,-0.05803219974040985,-0.04886921867728233
1733230360347146500,0.567146484375,-0.021380282938480377,-0.0354301854968071,-0.04153883829712868
1733230360357147600,0.577147705078125,-0.024434609338641167,-0.03176499158143997,-0.033597588539123535
1733230360367135700,0.5871357421875,-0.036651913076639175,-0.05742133408784866,-0.03848451003432274
1733230360377167000,0.5971669921875,-0.04886921867728233,-0.07635815441608429,-0.051312681287527084
1733230360387124700,0.607124755859375,-0.05375614017248154,-0.09162978827953339,-0.06414084881544113
1733230360397156400,0.61715625,-0.05497787147760391,-0.10384709388017654,-0.0757472887635231
1733230360407144200,0.627144287109375,-0.05619960278272629,-0.11667526513338089,-0.08735372871160507
1733230360417145300,0.637145263671875,-0.05192354694008827,-0.11911872029304504,-0.09773843735456467
1733230360427133200,0.64713330078125,-0.04214970022439957,-0.11850785464048386,-0.10018189996480942
1733230360437165000,0.6571650390625,-0.02932153269648552,-0.1258382350206375,-0.10384709388017654
1733230360447122200,0.6671220703125,-0.025656340643763542,-0.13744467496871948,-0.10751228034496307
1733230360457154000,0.677154052734375,-0.030543262138962746,-0.14355333149433136,-0.11423180252313614
1733230360467141600,0.6871416015625,-0.03420845419168472,-0.14416420459747314,-0.12400564551353455
1733230360477142800,0.697142822265625,-0.030543262138962746,-0.12950342893600464,-0.1258382350206375
1733230360487131000,0.707130859375,-0.027488935738801956,-0.1111774742603302,-0.11362093687057495
1733230360497162500,0.71716259765625,-0.021380282938480377,-0.09529497474431992,-0.08918632566928864
1733230360507119900,0.727119873046875,-0.006108652334660292,-0.07941248267889023,-0.036651913076639175
1733230360517151500,0.7371513671875,0.001832595793530345,-0.0806342139840126,-0.009162978269159794
1733230360527139300,0.747139404296875,0.006108652334660292,-0.09529497474431992,0.0006108652451075613
1733230360537170700,0.757170654296875,0.007941247895359993,-0.10812314599752426,-0.00366519158706069
1733230360547128300,0.76712841796875,0.009773843921720982,-0.11484266817569733,-0.015271631069481373
1733230360557159700,0.77715966796875,0.01160643994808197,-0.11911872029304504,-0.028099801391363144
1733230360567147800,0.787147705078125,0.018325956538319588,-0.11545353382825851,-0.036041051149368286
1733230360577149000,0.79714892578125,0.03726277872920036,-0.10262536257505417,-0.028099801391363144
1733230360587137000,0.807136962890625,0.04703662544488907,-0.10201449692249298,-0.01160643994808197
1733230360597168600,0.817168701171875,0.05375614017248154,-0.1007927656173706,0.013439035043120384
1733230360607125800,0.827125732421875,0.05925392732024193,-0.09651670604944229,0.0403171069920063
1733230360617157600,0.83715771484375,0.06414084881544113,-0.09712757170200348,0.06658431142568588
1733230360627145200,0.847145263671875,0.06291911751031876,-0.09957103431224823,0.08979719132184982
1733230360637146600,0.857146728515625,0.05497787147760391,-0.11239920556545258,0.10201449692249298
1733230360647134500,0.867134521484375,0.04764748737215996,-0.1270599663257599,0.10751228034496307
1733230360657166000,0.877166015625,0.0507018156349659,-0.13011430203914642,0.0959058403968811
1733230360667123500,0.88712353515625,0.05253441259264946,-0.12278391420841217,0.07757988572120667
1733230360677155000,0.897155029296875,0.04214970022439957,-0.1270599663257599,0.04703662544488907
1733230360687143000,0.907142822265625,0.02076941914856434,-0.1466076523065567,0.00733038317412138
1733230360697144000,0.91714404296875,-0.010995574295520782,-0.1765400618314743,-0.039706241339445114
1733230360707132000,0.9271318359375,-0.04214970022439957,-0.20586158335208893,-0.0861319974064827
1733230360717163800,0.937163818359375,-0.07147123664617538,-0.21624629199504852,-0.12034045159816742
1733230360727121000,0.947120849609375,-0.09773843735456467,-0.18448130786418915,-0.12889257073402405
1733230360737152800,0.95715283203125,-0.10323622822761536,-0.13805554807186127,-0.10873401165008545
1733230360747140600,0.967140625,-0.10690141469240189,-0.08796459436416626,-0.07513642311096191
1733230360757141800,0.977141845703125,-0.11056660860776901,-0.03726277872920036,-0.03420845419168472
1733230360767129600,0.987129638671875,-0.11545353382825851,0.00366519158706069,0.0012217304902151227
1733230360777161200,0.9971611328125,-0.12339477986097336,0.02015855349600315,0.014049900695681572
1733230360787149300,1.0071494140625,-0.13316862285137177,0.014049900695681572,0.001832595793530345
1733230360797150500,1.017150390625,-0.13561208546161652,0.004886921960860491,-0.06291911751031876
1733230360807138000,1.027137939453125,-0.12339477986097336,0.027488935738801956,-0.12034045159816742
1733230360817170000,1.037169921875,-0.10445795953273773,0.06291911751031876,-0.17531833052635193
1733230360827127000,1.047126953125,-0.0806342139840126,0.09957103431224823,-0.21135938167572021
1733230360837159000,1.057158935546875,-0.05375614017248154,0.12339477986097336,-0.21930062770843506
1733230360847146500,1.067146484375,-0.02382374368607998,0.12461651116609573,-0.2015855312347412
1733230360857148000,1.07714794921875,-0.001832595793530345,0.11789698898792267,-0.1667662113904953
1733230360867135700,1.0871357421875,0.010995574295520782,0.11545353382825851,-0.1319468915462494
1733230360877167000,1.0971669921875,0.03176499158143997,0.05619960278272629,-0.11972958594560623
1733230360887124700,1.107124755859375,0.042760565876960754,0.00427605677396059,-0.13988813757896423
1733230360897156400,1.11715625,0.05009094998240471,-0.03848451003432274,-0.17959438264369965
1733230360907144400,1.12714453125,0.05253441259264946,-0.08735372871160507,-0.23151792585849762
1733230360917145300,1.137145263671875,0.03420845419168472,-0.14782938361167908,-0.27000242471694946
1733230360927133200,1.14713330078125,0.004886921960860491,-0.19853121042251587,-0.2926044464111328
1733230360937164800,1.157164794921875,-0.02382374368607998,-0.2376265823841095,-0.2871066629886627
1733230360947122200,1.1671220703125,-0.03726277872920036,-0.27488934993743896,-0.23273965716362
1733230360957154000,1.177154052734375,-0.03848451003432274,-0.27488934993743896,-0.17837265133857727
1733230360967142000,1.187141845703125,-0.04214970022439957,-0.2571742534637451,-0.12095131725072861
1733230360977142800,1.197142822265625,-0.04092797264456749,-0.2174680233001709,-0.0555887371301651
1733230360987131000,1.207130859375,-0.03237585723400116,-0.15332718193531036,0.014049900695681572
1733230360997162500,1.21716259765625,-0.02015855349600315,-0.08307767659425735,0.08857546001672745
1733230361007120000,1.227119873046875,-0.013439035043120384,-0.02382374368607998,0.16004669666290283
1733230361017151500,1.2371513671875,-0.024434609338641167,0.012828170321881771,0.2125810980796814
1733230361027139300,1.247139404296875,-0.06536258012056351,0.015271631069481373,0.2474004179239273
1733230361037171200,1.257171142578125,-0.09773843735456467,0.001832595793530345,0.23945917189121246
1733230361047128600,1.267128662109375,-0.13561208546161652,-0.0012217304902151227,0.21624629199504852
1733230361057160000,1.277159912109375,-0.17043140530586243,0.010995574295520782,0.18325957655906677
1733230361067148000,1.28714794921875,-0.1973094791173935,0.03481931984424591,0.1466076523065567
1733230361077149400,1.2971494140625,-0.21441370248794556,0.0555887371301651,0.11362093687057495
1733230361087137000,1.307136962890625,-0.2278527319431305,0.07391469180583954,0.08307767659425735
1733230361097168600,1.317168701171875,-0.2376265823841095,0.08857546001672745,0.04642575979232788
1733230361107126000,1.3271259765625,-0.23884831368923187,0.09040805697441101,0.021991148591041565
1733230361117156000,1.337156005859375,-0.23579397797584534,0.08002334833145142,-0.00427605677396059
1733230361127144400,1.34714453125,-0.2376265823841095,0.059864792972803116,-0.02871066704392433
1733230361137145900,1.357145751953125,-0.23457226157188416,0.045204028487205505,-0.04948008432984352
1733230361147133400,1.367133544921875,-0.22357667982578278,0.0354301854968071,-0.06475171446800232
1733230361157165000,1.3771650390625,-0.21074850857257843,0.029932396486401558,-0.06841690838336945
1733230361167122400,1.387122314453125,-0.1765400618314743,0.045204028487205505,-0.05253441259264946
1733230361177154300,1.397154296875,-0.14966198801994324,0.0708603709936142,-0.025045474991202354
1733230361187142000,1.407141845703125,-0.1215621829032898,0.09162978827953339,0.010995574295520782
1733230361197143300,1.417143310546875,-0.09834930300712585,0.10690141469240189,0.04581489413976669
1733230361207131100,1.427131103515625,-0.07513642311096191,0.11667526513338089,0.07513642311096191
1733230361217163800,1.437163818359375,-0.05009094998240471,0.11972958594560623,0.10506882518529892
1733230361227121000,1.447120849609375,-0.02382374368607998,0.12034045159816742,0.1313360333442688
1733230361237152800,1.45715283203125,-0.003054326167330146,0.12400564551353455,0.1514945775270462
1733230361247140400,1.467140380859375,0.006108652334660292,0.12217304855585098,0.16371189057826996
1733230361257141800,1.477141845703125,0.00733038317412138,0.10812314599752426,0.1618792861700058
1733230361267129600,1.487129638671875,0.0012217304902151227,0.07819075137376785,0.15393804013729095
1733230361277160700,1.49716064453125,-0.0006108652451075613,0.04764748737215996,0.14538592100143433
1733230361287149000,1.507149169921875,0.00427605677396059,0.02871066704392433,0.13866640627384186
1733230361297150200,1.517150146484375,0.006108652334660292,0.013439035043120384,0.13255776464939117
1733230361307134500,1.527134521484375,-0.006108652334660292,-0.01466076634824276,0.12034045159816742
1733230361317165800,1.537165771484375,-0.05192354694008827,-0.0659734457731247,0.08674286305904388
1733230361327123200,1.547123291015625,-0.08246681094169617,-0.10751228034496307,0.059864792972803116
1733230361337155000,1.557155029296875,-0.09957103431224823,-0.1472185254096985,0.039095375686883926
1733230361347142700,1.567142578125,-0.1014036312699318,-0.1569923609495163,0.03237585723400116
1733230361357144000,1.57714404296875,-0.09773843735456467,-0.1459967941045761,0.03481931984424591
1733230361367131600,1.587131591796875,-0.09407325088977814,-0.10751228034496307,0.051312681287527084
1733230361377163500,1.59716357421875,-0.09040805697441101,-0.0507018156349659,0.07757988572120667
1733230361387121000,1.607120849609375,-0.10506882518529892,0.0012217304902151227,0.1264491081237793
1733230361397152300,1.61715234375,-0.14294247329235077,-0.007941247895359993,0.16004669666290283
1733230361407140400,1.627140380859375,-0.19975294172763824,-0.048258353024721146,0.1820378452539444
1733230361417141500,1.6371416015625,-0.27122417092323303,-0.10812314599752426,0.1771509200334549
1733230361427129600,1.647129638671875,-0.34208452701568604,-0.18081611394882202,0.14477506279945374
1733230361437161500,1.657161376953125,-0.39645153284072876,-0.2474004179239273,0.09162978827953339
1733230361447118600,1.66711865234375,-0.41661009192466736,-0.2834414839744568,0.04214970022439957
1733230361457150200,1.677150146484375,-0.3995058834552765,-0.27000242471694946,0.025656340643763542
1733230361467138000,1.687137939453125,-0.31031954288482666,-0.1563815027475357,0.11911872029304504
1733230361477139200,1.69713916015625,-0.21074850857257843,-0.0403171069920063,0.2736676335334778
1733230361487127000,1.707126953125,-0.09712757170200348,0.07330382615327835,0.48258355259895325
1733230361497158700,1.71715869140625,0.01038470957428217,0.1618792861700058,0.7043276429176331
1733230361507116000,1.727115966796875,0.10262536257505417,0.23518311977386475,0.8845328688621521
1733230361517147600,1.737147705078125,0.17592918872833252,0.2541199326515198,0.9859365224838257
1733230361527135500,1.747135498046875,0.22846360504627228,0.24373523890972137,0.9975429177284241
1733230361537165800,1.757165771484375,0.2638937830924988,0.16798794269561768,0.8619308471679688
1733230361547124500,1.76712451171875,0.2370157092809677,0.0403171069920063,0.6798930168151855
1733230361557155300,1.7771552734375,0.15332718193531036,-0.07696902006864548,0.47708576917648315
1733230361567144000,1.78714404296875,0.04642575979232788,-0.16920967400074005,0.2785545587539673
1733230361577145300,1.797145263671875,-0.05192354694008827,-0.22907446324825287,0.1111774742603302
1733230361587133000,1.8071328125,-0.12278391420841217,-0.25534167885780334,-0.009773843921720982
1733230361597164500,1.81716455078125,-0.16249015927314758,-0.24373523890972137,-0.09651670604944229
1733230361607122200,1.8271220703125,-0.18814650177955627,-0.2015855312347412,-0.19608774781227112
1733230361617153500,1.837153564453125,-0.17531833052635193,-0.1820378452539444,-0.25045475363731384
1733230361627141600,1.8471416015625,-0.15393804013729095,-0.16371189057826996,-0.29077184200286865
1733230361637142800,1.857142822265625,-0.13744467496871948,-0.152105450630188,-0.31581732630729675
1733230361647130600,1.867130615234375,-0.12767083942890167,-0.1514945775270462,-0.3176499307155609
1733230361657162200,1.877162353515625,-0.11850785464048386,-0.1514945775270462,-0.3023782968521118
1733230361667119600,1.88711962890625,-0.09834930300712585,-0.13988813757896423,-0.28038713335990906
1733230361677151200,1.897151123046875,-0.0659734457731247,-0.10506882518529892,-0.2577851414680481
1733230361687139000,1.90713916015625,-0.003054326167330146,-0.022602014243602753,-0.19914206862449646
1733230361697140200,1.91714013671875,0.03848451003432274,0.00733038317412138,-0.1313360333442688
1733230361707128300,1.92712841796875,0.07757988572120667,0.033597588539123535,-0.04214970022439957
1733230361717160000,1.937159912109375,0.10567969083786011,0.04092797264456749,0.04886921867728233
1733230361727117000,1.947116943359375,0.1160643994808197,0.015882495790719986,0.11667526513338089
1733230361737149000,1.95714892578125,0.11056660860776901,-0.031154127791523933,0.15332718193531036
1733230361747136800,1.96713671875,0.10690141469240189,-0.07941248267889023,0.15882496535778046
1733230361757137700,1.9771376953125,0.12278391420841217,-0.11056660860776901,0.1258382350206375
1733230361767125800,1.987125732421875,0.1472185254096985,-0.09285151958465576,0.08735372871160507
1733230361777157600,1.99715771484375,0.17043140530586243,-0.056810468435287476,0.039706241339445114
1733230361787145200,2.007145263671875,0.18387043476104736,-0.021991148591041565,-0.01160643994808197
1733230361797146400,2.017146484375,0.18814650177955627,-0.0012217304902151227,-0.06780604273080826
1733230361807134500,2.027134521484375,0.18325957655906677,-0.004886921960860491,-0.1264491081237793
1733230361817166000,2.037166015625,0.16859880089759827,-0.03298672288656235,-0.18325957655906677
1733230361827123200,2.047123291015625,0.11850785464048386,-0.10323622822761536,-0.2541199326515198
1733230361837155300,2.0571552734375,0.07819075137376785,-0.13744467496871948,-0.28038713335990906
1733230361847143000,2.067142822265625,0.039095375686883926,-0.1466076523065567,-0.28955012559890747
1733230361857144000,2.07714404296875,0.006108652334660292,-0.14477506279945374,-0.2926044464111328
1733230361867158500,2.087158447265625,-0.015271631069481373,-0.13805554807186127,-0.2840523421764374
1733230361877163500,2.09716357421875,-0.021991148591041565,-0.1319468915462494,-0.2675589919090271
1733230361887121000,2.107120849609375,-0.025045474991202354,-0.12889257073402405,-0.24007004499435425
1733230361897152500,2.117152587890625,-0.025656340643763542,-0.12400564551353455,-0.2021963894367218
1733230361907140600,2.127140625,-0.03787364438176155,-0.11056660860776901,-0.1459967941045761
1733230361917141500,2.1371416015625,-0.04642575979232788,-0.09040805697441101,-0.11484266817569733
1733230361927129600,2.147129638671875,-0.05192354694008827,-0.06658431142568588,-0.09529497474431992
1733230361937161200,2.1571611328125,-0.051312681287527084,-0.029932396486401558,-0.09468411654233932
1733230361947118600,2.16711865234375,-0.048258353024721146,0.009162978269159794,-0.10751228034496307
1733230361957150200,2.177150146484375,-0.04153883829712868,0.028099801391363144,-0.13011430203914642
1733230361967138000,2.187137939453125,-0.033597588539123535,0.029932396486401558,-0.15943582355976105
1733230361977139200,2.19713916015625,-0.021380282938480377,0.019547687843441963,-0.20097467303276062
1733230361987127000,2.207126953125,-0.015271631069481373,0.006719517521560192,-0.22296582162380219
1733230361997158700,2.21715869140625,0.00427605677396059,0.0006108652451075613,-0.24434609711170197
1733230362007116000,2.227115966796875,0.031154127791523933,0.010995574295520782,-0.26022860407829285
1733230362017147600,2.237147705078125,0.056810468435287476,0.01771509274840355,-0.26145032048225403
1733230362027135700,2.2471357421875,0.05009094998240471,0.048258353024721146,-0.24190263450145721
1733230362037167400,2.25716748046875,0.021991148591041565,0.09346238523721695,-0.20341812074184418
1733230362047124700,2.267124755859375,-0.007941247895359993,0.11545353382825851,-0.11728613078594208
1733230362057156400,2.27715625,-0.015882495790719986,0.12278391420841217,-0.056810468435287476
1733230362067144200,2.287144287109375,-0.01466076634824276,0.12339477986097336,-0.00366519158706069
1733230362077145600,2.2971455078125,-0.025045474991202354,0.11362093687057495,0.025656340643763542
1733230362087133200,2.30713330078125,-0.056810468435287476,0.07696902006864548,0.022602014243602753
1733230362097164800,2.317164794921875,-0.10384709388017654,0.02321287989616394,-0.009162978269159794
1733230362107122400,2.327122314453125,-0.15393804013729095,-0.02321287989616394,-0.056810468435287476
1733230362117152300,2.33715234375,-0.20036379992961884,-0.06536258012056351,-0.10445795953273773
1733230362127140600,2.347140625,-0.24923302233219147,-0.09407325088977814,-0.15515977144241333
1733230362137141800,2.357141845703125,-0.26572638750076294,-0.09285151958465576,-0.16310101747512817
1733230362147129600,2.367129638671875,-0.2822197377681732,-0.08979719132184982,-0.15943582355976105
1733230362157161500,2.377161376953125,-0.31031954288482666,-0.0910189226269722,-0.1459967941045761
1733230362167118600,2.38711865234375,-0.3433062732219696,-0.1007927656173706,-0.12889257073402405
1733230362177150500,2.397150390625,-0.3793473243713379,-0.11789698898792267,-0.11728613078594208
1733230362187138000,2.407137939453125,-0.41661009192466736,-0.13866640627384186,-0.10934487730264664
1733230362197139700,2.4171396484375,-0.4593706727027893,-0.19058994948863983,-0.11484266817569733
1733230362207127300,2.427127197265625,-0.47830748558044434,-0.22052235901355743,-0.12889257073402405
1733230362217160000,2.437159912109375,-0.4795292317867279,-0.24617868661880493,-0.15271630883216858
1733230362227117000,2.447116943359375,-0.4599815309047699,-0.2638937830924988,-0.17287486791610718
1733230362237149000,2.45714892578125,-0.42760565876960754,-0.2718350291252136,-0.17531833052635193
1733230362247136500,2.467136474609375,-0.384845107793808,-0.2687807083129883,-0.1466076523065567
1733230362257138000,2.477137939453125,-0.3274237811565399,-0.2632829248905182,-0.07880161702632904
1733230362267125800,2.487125732421875,-0.21441370248794556,-0.24984388053417206,0.09407325088977814
1733230362277157400,2.497157470703125,-0.152105450630188,-0.24984388053417206,0.2217440903186798
1733230362287145200,2.507145263671875,-0.11972958594560623,-0.26450464129447937,0.3286454975605011
1733230362297146400,2.517146484375,-0.11178833991289139,-0.28955012559890747,0.39767327904701233
1733230362307134500,2.527134521484375,-0.11301007121801376,-0.3194825351238251,0.4153883755207062
1733230362317166000,2.537166015625,-0.11789698898792267,-0.3549126982688904,0.38179078698158264
1733230362327123200,2.547123291015625,-0.12522737681865692,-0.394008070230484,0.30970868468284607
1733230362337155000,2.557155029296875,-0.14355333149433136,-0.4355469346046448,0.2076941877603531
1733230362347143000,2.567142822265625,-0.18020524084568024,-0.4917465150356293,0.01466076634824276
1733230362357144000,2.57714404296875,-0.1966986060142517,-0.5051855444908142,-0.10262536257505417
1733230362367132000,2.5871318359375,-0.19303341209888458,-0.47830748558044434,-0.18570303916931152
1733230362377163500,2.59716357421875,-0.16737708449363708,-0.42088615894317627,-0.21502456068992615
1733230362387121000,2.607120849609375,-0.12095131725072861,-0.34086281061172485,-0.16798794269561768
1733230362397152500,2.617152587890625,-0.05864306539297104,-0.24923302233219147,-0.036651913076639175
1733230362407140400,2.627140380859375,0.00733038317412138,-0.1508837193250656,0.17470745742321014
1733230362417141500,2.6371416015625,0.09285151958465576,0.009162978269159794,0.5583308339118958
1733230362427129600,2.647129638671875,0.1319468915462494,0.08735372871160507,0.7935139536857605
1733230362437161200,2.6571611328125,0.16249015927314758,0.14538592100143433,0.9761626720428467
1733230362447118300,2.667118408203125,0.18387043476104736,0.18448130786418915,1.0824532508850098
1733230362457150200,2.677150146484375,0.20525072515010834,0.1966986060142517,1.112385630607605
1733230362467138000,2.687137939453125,0.21441370248794556,0.19303341209888458,1.0751228332519531
1733230362477139000,2.697138916015625,0.19425514340400696,0.1820378452539444,0.9779952764511108
1733230362487127000,2.707126953125,0.11850785464048386,0.16310101747512817,0.7287622094154358
1733230362497157000,2.7171572265625,0.03237585723400116,0.14905111491680145,0.4893030524253845
1733230362507116000,2.727115966796875,-0.07269296050071716,0.1111774742603302,0.19364428520202637
1733230362517146400,2.737146484375,-0.19792033731937408,0.03298672288656235,-0.14233160018920898
1733230362527135700,2.7471357421875,-0.3433062732219696,-0.07941248267889023,-0.494189977645874
1733230362537166000,2.757166015625,-0.48258355259895325,-0.19425514340400696,-0.8197811841964722
1733230362547124700,2.767124755859375,-0.6010913848876953,-0.27122417092323303,-1.081842303276062
1733230362557156400,2.77715625,-0.6768386960029602,-0.2993239760398865,-1.2559388875961304
1733230362567144000,2.78714404296875,-0.6676757335662842,-0.2541199326515198,-1.291369080543518
1733230362577145000,2.79714501953125,-0.5632177591323853,-0.18997909128665924,-1.1533136367797852
1733230362587133200,2.80713330078125,-0.3995058834552765,-0.07269296050071716,-0.9028588533401489
1733230362597164500,2.81716455078125,-0.2028072625398636,0.05925392732024193,-0.5815436840057373
1733230362607122200,2.8271220703125,0.0006108652451075613,0.1618792861700058,-0.2321287989616394
1733230362617154000,2.837154052734375,0.1814269721508026,0.22357667982578278,0.0959058403968811
1733230362627141600,2.8471416015625,0.30543261766433716,0.25106561183929443,0.3597996234893799
1733230362637142800,2.857142822265625,0.4031710624694824,0.23396138846874237,0.5693264007568359
1733230362647130600,2.867130615234375,0.43127086758613586,0.21624629199504852,0.588874101638794
1733230362657162200,2.877162353515625,0.4294382631778717,0.19608774781227112,0.5314527750015259
1733230362667119600,2.88711962890625,0.3897320330142975,0.1661553531885147,0.4245513379573822
1733230362677151200,2.897151123046875,0.3188716471195221,0.12461651116609573,0.29138273000717163
1733230362687139000,2.90713916015625,0.23029619455337524,0.07880161702632904,0.15027284622192383
1733230362697140500,2.917140380859375,0.12767083942890167,0.03848451003432274,0.016493361443281174
1733230362707128300,2.92712841796875,-0.03420845419168472,0.004886921960860491,-0.15271630883216858
1733230362717159700,2.93715966796875,-0.13011430203914642,-0.01160643994808197,-0.242513507604599
1733230362727117300,2.947117431640625,-0.20952677726745605,-0.027488935738801956,-0.313373863697052
1733230362737149000,2.95714892578125,-0.27000242471694946,-0.03420845419168472,-0.3701843321323395
1733230362747136800,2.96713671875,-0.3066543638706207,-0.02382374368607998,-0.41111230850219727
1733230362757137700,2.9771376953125,-0.32009339332580566,-0.004886921960860491,-0.4331034719944
1733230362767125800,2.987125732421875,-0.3127630054950714,0.01771509274840355,-0.4300491213798523
1733230362777157000,2.9971572265625,-0.28649580478668213,0.04398229718208313,-0.40256020426750183
1733230362787145200,3.007145263671875,-0.23151792585849762,0.09407325088977814,-0.3188716471195221
1733230362797146400,3.017146484375,-0.18387043476104736,0.12828169763088226,-0.2382374405860901
1733230362807134500,3.027134521484375,-0.13439035415649414,0.15943582355976105,-0.14538592100143433
1733230362817165800,3.037165771484375,-0.08918632566928864,0.18814650177955627,-0.051312681287527084
1733230362827123200,3.047123291015625,-0.05497787147760391,0.20830504596233368,0.04092797264456749
1733230362837155000,3.057155029296875,-0.024434609338641167,0.2125810980796814,0.1264491081237793
1733230362847143000,3.067142822265625,0.005497787147760391,0.21135938167572021,0.2028072625398636
1733230362857144000,3.07714404296875,0.059864792972803116,0.20586158335208893,0.2883284091949463
1733230362867132000,3.0871318359375,0.08918632566928864,0.19364428520202637,0.3170390725135803
1733230362877163500,3.09716357421875,0.11178833991289139,0.17409659922122955,0.323147714138031
1733230362887121000,3.107120849609375,0.12828169763088226,0.1508837193250656,0.31154128909111023
1733230362897152500,3.117152587890625,0.13805554807186127,0.12461651116609573,0.2834414839744568
1733230362907140400,3.127140380859375,0.13316862285137177,0.09712757170200348,0.23579397797584534
1733230362917141500,3.1371416015625,0.11484266817569733,0.0659734457731247,0.17287486791610718
1733230362927129600,3.147129638671875,0.07391469180583954,0.02321287989616394,0.05375614017248154
1733230362937161200,3.1571611328125,0.04764748737215996,-0.0006108652451075613,-0.030543262138962746
1733230362947118600,3.16711865234375,0.027488935738801956,-0.01771509274840355,-0.10751228034496307
1733230362957150200,3.177150146484375,0.02076941914856434,-0.021380282938480377,-0.16554448008537292
1733230362967138000,3.187137939453125,0.027488935738801956,-0.0024434609804302454,-0.18997909128665924
1733230362977139000,3.197138916015625,0.04092797264456749,0.03298672288656235,-0.18020524084568024
1733230362987127000,3.207126953125,0.06230825558304787,0.06291911751031876,-0.1362229436635971
1733230362997158100,3.217158203125,0.09224065393209457,0.08185594528913498,-0.07880161702632904
1733230363007116000,3.227115966796875,0.13439035415649414,0.09773843735456467,0.007941247895359993
1733230363017148000,3.23714794921875,0.15515977144241333,0.09957103431224823,0.051312681287527084
1733230363027135700,3.2471357421875,0.1722639948129654,0.09834930300712585,0.07269296050071716
1733230363037167600,3.257167724609375,0.18509216606616974,0.09896016865968704,0.07269296050071716
1733230363047124500,3.26712451171875,0.1918116807937622,0.09773843735456467,0.05253441259264946
1733230363057156600,3.277156494140625,0.18997909128665924,0.09651670604944229,0.024434609338641167
1733230363067144200,3.287144287109375,0.18020524084568024,0.09040805697441101,-0.007941247895359993
1733230363077145600,3.2971455078125,0.15821409225463867,0.07024950534105301,-0.042760565876960754
1733230363087133200,3.30713330078125,0.14355333149433136,0.06230825558304787,-0.039095375686883926
1733230363097164800,3.317164794921875,0.1368338167667389,0.06536258012056351,-0.014049900695681572
1733230363107122200,3.3271220703125,0.13805554807186127,0.08368854224681854,0.03848451003432274
1733230363117152300,3.33715234375,0.14782938361167908,0.10995574295520782,0.1007927656173706
1733230363127140600,3.347140625,0.16371189057826996,0.13072516024112701,0.16249015927314758
1733230363137141800,3.357141845703125,0.1814269721508026,0.13011430203914642,0.19914206862449646
1733230363147129600,3.367129638671875,0.18020524084568024,0.07330382615327835,0.16982053220272064
1733230363157161500,3.377161376953125,0.17470745742321014,0.014049900695681572,0.1014036312699318
1733230363167118800,3.387118896484375,0.16737708449363708,-0.030543262138962746,0.01710422709584236
1733230363177150500,3.397150390625,0.15821409225463867,-0.05314527451992035,-0.05375614017248154
1733230363187138000,3.407137939453125,0.14355333149433136,-0.05864306539297104,-0.09651670604944229
1733230363197139700,3.4171396484375,0.11484266817569733,-0.06780604273080826,-0.10567969083786011
1733230363207127300,3.427127197265625,0.06352998316287994,-0.08368854224681854,-0.09957103431224823
1733230363217159700,3.43715966796875,-0.005497787147760391,-0.12767083942890167,-0.09834930300712585
1733230363227117000,3.447116943359375,-0.1472185254096985,-0.23335053026676178,-0.1466076523065567
1733230363237149000,3.45714892578125,-0.24984388053417206,-0.31520646810531616,-0.21930062770843506
1733230363247136500,3.467136474609375,-0.3323107063770294,-0.38117989897727966,-0.30970868468284607
1733230363257138200,3.47713818359375,-0.36713001132011414,-0.39706242084503174,-0.3799581825733185
1733230363267125800,3.487125732421875,-0.3341432809829712,-0.34086281061172485,-0.39645153284072876
1733230363277156600,3.497156494140625,-0.22907446324825287,-0.25595253705978394,-0.33658674359321594
1733230363287145200,3.507145263671875,-0.0757472887635231,-0.16493362188339233,-0.18631389737129211
1733230363297146000,3.51714599609375,0.1716531366109848,-0.06108652427792549,0.18020524084568024
1733230363307134500,3.527134521484375,0.3127630054950714,-0.028099801391363144,0.4703662395477295
1733230363317165800,3.537165771484375,0.4300491213798523,-0.024434609338641167,0.7562511563301086
1733230363327123200,3.547123291015625,0.513737678527832,-0.016493361443281174,0.99876469373703
1733230363337155000,3.557155029296875,0.5595525503158569,-0.0006108652451075613,1.1759155988693237
1733230363347143000,3.567142822265625,0.5772676467895508,0.04703662544488907,1.2852604389190674
1733230363357144000,3.57714404296875,0.5619960427284241,0.13011430203914642,1.3200798034667969
1733230363367132000,3.5871318359375,0.47342056035995483,0.2968805134296417,1.2455542087554932
1733230363377163500,3.59716357421875,0.37262779474258423,0.39156460762023926,1.1117748022079468
1733230363387121000,3.607120849609375,0.24556782841682434,0.4550946056842804,0.9083566069602966
1733230363397152500,3.617152587890625,0.09468411654233932,0.49357911944389343,0.6377432942390442
1733230363407140400,3.627140380859375,-0.07330382615327835,0.48258355259895325,0.3274237811565399
1733230363417141500,3.6371416015625,-0.24434609711170197,0.40256020426750183,0.0012217304902151227
1733230363427129600,3.647129638671875,-0.3988949954509735,0.2767219543457031,-0.294437050819397
1733230363437160000,3.657159912109375,-0.49724429845809937,0.11728613078594208,-0.5375614166259766
1733230363447118600,3.66711865234375,-0.4990769028663635,-0.13561208546161652,-0.7867944240570068
1733230363457149000,3.67714892578125,-0.4080579876899719,-0.23090706765651703,-0.8686503767967224
1733230363467138000,3.687137939453125,-0.2730567753314972,-0.28466320037841797,-0.8863654732704163
1733230363477138000,3.697137939453125,-0.12950342893600464,-0.34513887763023376,-0.8625417351722717
1733230363487127000,3.707126953125,0.00427605677396059,-0.4043927788734436,-0.79840087890625
1733230363497158700,3.71715869140625,0.11972958594560623,-0.45814892649650574,-0.6982190012931824
1733230363507116000,3.727115966796875,0.21380282938480377,-0.4990769028663635,-0.5723807215690613
1733230363517147600,3.737147705078125,0.29504790902137756,-0.53328537940979,-0.37079519033432007
1733230363527135700,3.7471357421875,0.31154128909111023,-0.5308418869972229,-0.24007004499435425
1733230363537167000,3.7571669921875,0.3121521472930908,-0.5143485069274902,-0.11301007121801376
1733230363547124500,3.76712451171875,0.29626965522766113,-0.48258355259895325,0.01038470957428217
1733230363557156400,3.77715625,0.26939156651496887,-0.44104471802711487,0.13072516024112701
1733230363567144000,3.78714404296875,0.2370157092809677,-0.3897320330142975,0.23518311977386475
1733230363577145000,3.79714501953125,0.2021963894367218,-0.3280346393585205,0.32681289315223694
1733230363587133200,3.80713330078125,0.14233160018920898,-0.24617868661880493,0.40072759985923767
1733230363597164500,3.81716455078125,0.09773843735456467,-0.2168571650981903,0.39706242084503174
1733230363607122200,3.8271220703125,0.05314527451992035,-0.1973094791173935,0.3494149148464203
1733230363617153800,3.83715380859375,0.006719517521560192,-0.16859880089759827,0.26511552929878235
1733230363627141600,3.8471416015625,-0.04703662544488907,-0.13988813757896423,0.152105450630188
1733230363637142800,3.857142822265625,-0.09468411654233932,-0.12217304855585098,0.022602014243602753
1733230363647130600,3.867130615234375,-0.12522737681865692,-0.12278391420841217,-0.09651670604944229
1733230363657162500,3.87716259765625,-0.13927727937698364,-0.13439035415649414,-0.18387043476104736
1733230363667119600,3.88711962890625,-0.15271630883216858,-0.1362229436635971,-0.23884831368923187
1733230363677151200,3.897151123046875,-0.16554448008537292,-0.12034045159816742,-0.22968533635139465
1733230363687139000,3.90713916015625,-0.1814269721508026,-0.10506882518529892,-0.1869247704744339
1733230363697140200,3.91714013671875,-0.19425514340400696,-0.09651670604944229,-0.11972958594560623
1733230363707128300,3.92712841796875,-0.20891591906547546,-0.08429940044879913,-0.03298672288656235
1733230363717160000,3.937159912109375,-0.22602014243602753,-0.06963863968849182,0.05803219974040985
1733230363727117000,3.947116943359375,-0.242513507604599,-0.06780604273080826,0.13866640627384186
1733230363737149000,3.95714892578125,-0.2541199326515198,-0.06536258012056351,0.21807889640331268
1733230363747136500,3.967136474609375,-0.25106561183929443,-0.06230825558304787,0.2370157092809677
1733230363757138200,3.97713818359375,-0.24007004499435425,-0.0659734457731247,0.22479841113090515
1733230363767125800,3.987125732421875,-0.2174680233001709,-0.07269296050071716,0.19364428520202637
1733230363777157600,3.99715771484375,-0.19120082259178162,-0.07147123664617538,0.15332718193531036
1733230363787145200,4.007145263671875,-0.16798794269561768,-0.06414084881544113,0.11423180252313614
1733230363797146400,4.017146484375,-0.15577064454555511,-0.05253441259264946,0.0861319974064827
1733230363807134500,4.027134521484375,-0.15760323405265808,-0.02687807008624077,0.0708603709936142
1733230363817166000,4.037166015625,-0.17348572611808777,-0.014049900695681572,0.07757988572120667
1733230363827123200,4.047123291015625,-0.20097467303276062,-0.005497787147760391,0.09224065393209457
1733230363837155000,4.057155029296875,-0.2376265823841095,-0.006719517521560192,0.09896016865968704
1733230363847143000,4.067142822265625,-0.2718350291252136,-0.02015855349600315,0.09407325088977814
1733230363857144300,4.077144287109375,-0.2981022298336029,-0.04092797264456749,0.08002334833145142
1733230363867156700,4.08715673828125,-0.3176499307155609,-0.06169738993048668,0.054367005825042725
1733230363877163800,4.097163818359375,-0.32498031854629517,-0.08124507963657379,0.02076941914856434
1733230363887121000,4.107120849609375,-0.32498031854629517,-0.0959058403968811,-0.028099801391363144
1733230363897152800,4.11715283203125,-0.3237585723400116,-0.10201449692249298,-0.051312681287527084
1733230363907140400,4.127140380859375,-0.3188716471195221,-0.10751228034496307,-0.0555887371301651
1733230363917141800,4.137141845703125,-0.30970868468284607,-0.10323622822761536,-0.04764748737215996
1733230363927129600,4.147129638671875,-0.30115658044815063,-0.08735372871160507,-0.030543262138962746
1733230363937161200,4.1571611328125,-0.2981022298336029,-0.07024950534105301,-0.012217304669320583
1733230363947118600,4.16711865234375,-0.303600013256073,-0.06169738993048668,0.007941247895359993
1733230363957150500,4.177150390625,-0.30970868468284607,-0.0555887371301651,0.03481931984424591
1733230363967138000,4.187137939453125,-0.3084869384765625,-0.048258353024721146,0.04948008432984352
1733230363977139200,4.19713916015625,-0.30115658044815063,-0.04153883829712868,0.05864306539297104
1733230363987127000,4.207126953125,-0.28527405858039856,-0.027488935738801956,0.07024950534105301
1733230363997159000,4.217158935546875,-0.26511552929878235,-0.018325956538319588,0.07941248267889023
1733230364007116000,4.227115966796875,-0.24556782841682434,-0.03176499158143997,0.08674286305904388
1733230364017147600,4.237147705078125,-0.22602014243602753,-0.06414084881544113,0.0861319974064827
1733230364027135700,4.2471357421875,-0.21013765037059784,-0.14538592100143433,0.07391469180583954
1733230364037167600,4.257167724609375,-0.17531833052635193,-0.19364428520202637,0.06658431142568588
1733230364047125000,4.267125,-0.13439035415649414,-0.20952677726745605,0.06902777403593063
1733230364057156400,4.27715625,-0.09162978827953339,-0.20341812074184418,0.0910189226269722
1733230364067144400,4.28714453125,-0.05192354694008827,-0.16920967400074005,0.13072516024112701
1733230364077145300,4.297145263671875,-0.021380282938480377,-0.12095131725072861,0.18387043476104736
1733230364087133200,4.30713330078125,-0.0006108652451075613,-0.08246681094169617,0.23273965716362
1733230364097164500,4.31716455078125,0.012217304669320583,-0.04948008432984352,0.2681698501110077
1733230364107122200,4.3271220703125,0.036041051149368286,-0.00855211354792118,0.2828305959701538
1733230364117152000,4.337152099609375,0.04337143152952194,0.01710422709584236,0.2577851414680481
1733230364127140600,4.347140625,0.0403171069920063,0.030543262138962746,0.21135938167572021
1733230364137141800,4.357141845703125,0.033597588539123535,0.01038470957428217,0.14049901068210602
1733230364147129600,4.367129638671875,0.028099801391363144,-0.04764748737215996,0.0507018156349659
1733230364157161200,4.3771611328125,0.03420845419168472,-0.10506882518529892,-0.04703662544488907
1733230364167118600,4.38711865234375,0.045204028487205505,-0.12767083942890167,-0.13805554807186127
1733230364177150500,4.397150390625,0.06414084881544113,-0.09712757170200348,-0.2272418737411499
1733230364187138000,4.407137939453125,0.07635815441608429,-0.05864306539297104,-0.2382374405860901
1733230364197139500,4.417139404296875,0.09162978827953339,-0.012217304669320583,-0.20097467303276062
1733230364207127300,4.427127197265625,0.11239920556545258,0.03420845419168472,-0.11239920556545258
1733230364217159700,4.43715966796875,0.12522737681865692,0.0806342139840126,0.004886921960860491
1733230364227117300,4.447117431640625,0.1319468915462494,0.11667526513338089,0.12828169763088226
1733230364237149000,4.45714892578125,0.1319468915462494,0.12217304855585098,0.23090706765651703
1733230364247136500,4.467136474609375,0.12339477986097336,0.10262536257505417,0.30054569244384766
1733230364257138000,4.477137939453125,0.09468411654233932,0.06719517707824707,0.33475416898727417
1733230364267125800,4.487125732421875,0.0659734457731247,0.04948008432984352,0.3194825351238251
1733230364277157400,4.497157470703125,0.03787364438176155,0.03481931984424591,0.2828305959701538
1733230364287145200,4.507145263671875,0.01466076634824276,0.01710422709584236,0.2376265823841095
1733230364297146400,4.517146484375,-0.0012217304902151227,0.0012217304902151227,0.19547687470912933
1733230364307134500,4.527134521484375,-0.015882495790719986,-0.00366519158706069,0.1618792861700058
1733230364317165800,4.537165771484375,-0.03298672288656235,0.0006108652451075613,0.14294247329235077
1733230364327123500,4.54712353515625,-0.05864306539297104,0.0006108652451075613,0.1258382350206375
1733230364337154800,4.55715478515625,-0.08429940044879913,-0.021380282938480377,0.1014036312699318
1733230364347143000,4.567142822265625,-0.11972958594560623,-0.0659734457731247,0.05314527451992035
1733230364357142800,4.577142822265625,-0.15821409225463867,-0.12400564551353455,-0.01771509274840355
1733230364367131600,4.587131591796875,-0.19120082259178162,-0.17776179313659668,-0.10201449692249298
1733230364377163500,4.59716357421875,-0.21624629199504852,-0.22052235901355743,-0.18997909128665924
1733230364387121000,4.607120849609375,-0.23335053026676178,-0.252287358045578,-0.2638937830924988
1733230364397152500,4.617152587890625,-0.24495697021484375,-0.24984388053417206,-0.3390302062034607
1733230364407140400,4.627140380859375,-0.23884831368923187,-0.23518311977386475,-0.36651915311813354
1733230364417141500,4.6371416015625,-0.21502456068992615,-0.21624629199504852,-0.37690386176109314
1733230364427129600,4.647129638671875,-0.18020524084568024,-0.18875735998153687,-0.3738495409488678
1733230364437161000,4.657160888671875,-0.14049901068210602,-0.16371189057826996,-0.35185837745666504
1733230364447118300,4.667118408203125,-0.0959058403968811,-0.13988813757896423,-0.3078760802745819
1733230364457150200,4.677150146484375,-0.05925392732024193,-0.11301007121801376,-0.24678955972194672
1733230364467138000,4.687137939453125,-0.039706241339445114,-0.07819075137376785,-0.1814269721508026
1733230364477139000,4.697138916015625,-0.0403171069920063,-0.025656340643763542,-0.0910189226269722
1733230364487127000,4.707126953125,-0.0555887371301651,-0.01466076634824276,-0.04398229718208313
1733230364497159000,4.717158935546875,-0.07757988572120667,-0.019547687843441963,-0.00366519158706069
1733230364507116000,4.727115966796875,-0.10201449692249298,-0.02382374368607998,0.033597588539123535
1733230364517148000,4.73714794921875,-0.1258382350206375,-0.019547687843441963,0.07513642311096191
1733230364527135500,4.747135498046875,-0.14477506279945374,-0.007941247895359993,0.1062905490398407
1733230364537167400,4.75716748046875,-0.15943582355976105,-0.001832595793530345,0.12461651116609573
1733230364547124500,4.76712451171875,-0.1820378452539444,-0.01710422709584236,0.10751228034496307
1733230364557156400,4.77715625,-0.2021963894367218,-0.02626720629632473,0.06414084881544113
1733230364567144000,4.78714404296875,-0.22357667982578278,-0.029932396486401558,0
1733230364577145300,4.797145263671875,-0.25045475363731384,-0.02687807008624077,-0.0757472887635231
1733230364587133200,4.80713330078125,-0.2791654169559479,-0.01710422709584236,-0.15332718193531036
1733230364597164800,4.817164794921875,-0.304210901260376,-0.003054326167330146,-0.22357667982578278
1733230364607122200,4.8271220703125,-0.3243694305419922,0.005497787147760391,-0.2840523421764374
1733230364617153800,4.83715380859375,-0.3488040566444397,-0.001832595793530345,-0.33475416898727417
1733230364627141600,4.8471416015625,-0.35552358627319336,-0.01771509274840355,-0.3341432809829712
1733230364637143000,4.85714306640625,-0.35246923565864563,-0.03298672288656235,-0.3017674386501312
1733230364647130600,4.867130615234375,-0.34086281061172485,-0.04153883829712868,-0.24984388053417206
1733230364657162800,4.877162841796875,-0.3139847218990326,-0.03420845419168472,-0.19058994948863983
1733230364667119600,4.88711962890625,-0.2687807083129883,-0.013439035043120384,-0.1264491081237793
1733230364677151500,4.8971513671875,-0.2119702398777008,0.013439035043120384,-0.0659734457731247
1733230364687139000,4.90713916015625,-0.15393804013729095,0.04092797264456749,-0.010995574295520782
1733230364697140500,4.917140380859375,-0.08552113175392151,0.05619960278272629,0.04764748737215996
1733230364707128300,4.92712841796875,-0.06475171446800232,0.048258353024721146,0.05742133408784866
1733230364717160000,4.937159912109375,-0.04948008432984352,0.022602014243602753,0.045204028487205505
1733230364727117000,4.947116943359375,-0.045204028487205505,-0.01771509274840355,0.021991148591041565
1733230364737149000,4.95714892578125,-0.0507018156349659,-0.05619960278272629,0.0024434609804302454
1733230364747136800,4.96713671875,-0.05619960278272629,-0.10201449692249298,-0.0024434609804302454
1733230364757138000,4.977137939453125,-0.048258353024721146,-0.14844025671482086,0.00855211354792118
1733230364767125800,4.987125732421875,-0.00855211354792118,-0.192422553896904,0.03420845419168472
1733230364777157400,4.997157470703125,0.03848451003432274,-0.20036379992961884,0.0354301854968071
1733230364787145200,5.007145263671875,0.08674286305904388,-0.19058994948863983,0.025656340643763542
1733230364797146400,5.017146484375,0.12889257073402405,-0.16737708449363708,0.012217304669320583
1733230364807134500,5.027134521484375,0.1563815027475357,-0.1319468915462494,0.004886921960860491
1733230364817165800,5.037165771484375,0.15515977144241333,-0.08124507963657379,-0.004886921960860491
1733230364827123500,5.04712353515625,0.1258382350206375,-0.02626720629632473,-0.021991148591041565
1733230364837155300,5.0571552734375,0.051312681287527084,0.006108652334660292,-0.06780604273080826
1733230364847143000,5.067142822265625,-0.018325956538319588,-0.03420845419168472,-0.09834930300712585
1733230364857144000,5.07714404296875,-0.0959058403968811,-0.10873401165008545,-0.12095131725072861
1733230364867132000,5.0871318359375,-0.16065755486488342,-0.17592918872833252,-0.12339477986097336
1733230364877163500,5.09716357421875,-0.2028072625398636,-0.21135938167572021,-0.10506882518529892
1733230364887121000,5.107120849609375,-0.20341812074184418,-0.18814650177955627,-0.06230825558304787
1733230364897152500,5.117152587890625,-0.1514945775270462,-0.1160643994808197,0.00733038317412138
1733230364907140400,5.127140380859375,-0.05864306539297104,-0.006719517521560192,0.10690141469240189
1733230364917141500,5.1371416015625,0.09896016865968704,0.17959438264369965,0.2767219543457031
1733230364927129600,5.147129638671875,0.1869247704744339,0.2993239760398865,0.3695734739303589
1733230364937161200,5.1571611328125,0.23335053026676178,0.3897320330142975,0.423329621553421
1733230364947118600,5.16711865234375,0.23029619455337524,0.45631635189056396,0.42638394236564636
1733230364957150200,5.177150146484375,0.18020524084568024,0.4948008358478546,0.39156460762023926
1733230364967138000,5.187137939453125,0.09773843735456467,0.47708576917648315,0.3188716471195221
1733230364977139500,5.197139404296875,-0.007941247895359993,0.39706242084503174,0.21441370248794556
1733230364987127000,5.207126953125,-0.17104226350784302,0.19608774781227112,0.02871066704392433
1733230364997158700,5.21715869140625,-0.2828305959701538,0.013439035043120384,-0.11239920556545258
1733230365007116000,5.227115966796875,-0.3854559659957886,-0.14905111491680145,-0.25045475363731384
1733230365017148000,5.23714794921875,-0.47280970215797424,-0.2321287989616394,-0.3445279896259308
1733230365027135700,5.2471357421875,-0.513737678527832,-0.25106561183929443,-0.3335324227809906
1733230365037167400,5.25716748046875,-0.4697553813457489,-0.23151792585849762,-0.18448130786418915
1733230365047124700,5.267124755859375,-0.34208452701568604,-0.19120082259178162,0.1014036312699318
1733230365057156600,5.277156494140625,-0.07941248267889023,-0.07941248267889023,0.6701191663742065
1733230365067144200,5.287144287109375,0.09224065393209457,-0.01710422709584236,1.0305296182632446
1733230365077145300,5.297145263671875,0.21807889640331268,0.009162978269159794,1.313360333442688
1733230365087133200,5.30713330078125,0.304210901260376,0.01710422709584236,1.4880677461624146
1733230365097164800,5.317164794921875,0.3787364661693573,0.01038470957428217,1.5442672967910767
1733230365107122400,5.327122314453125,0.44287729263305664,0.04153883829712868,1.4984524250030518
1733230365117152000,5.337152099609375,0.485027015209198,0.12095131725072861,1.3756685256958008
1733230365127140600,5.347140625,0.494189977645874,0.22968533635139465,1.1905763149261475
1733230365137141000,5.35714111328125,0.43737950921058655,0.3488040566444397,0.8753699064254761
1733230365147129600,5.367129638671875,0.35185837745666504,0.37262779474258423,0.6695083379745483
1733230365157160700,5.37716064453125,0.24984388053417206,0.35246923565864563,0.47769662737846375
1733230365167118600,5.38711865234375,0.15454891324043274,0.29993483424186707,0.2987131178379059
1733230365177150500,5.397150390625,0.06536258012056351,0.23579397797584534,0.1215621829032898
1733230365187138300,5.40713818359375,-0.007941247895359993,0.16737708449363708,-0.06719517707824707
1733230365197139500,5.417139404296875,-0.056810468435287476,0.08552113175392151,-0.2773328125476837
1733230365207127300,5.427127197265625,-0.09407325088977814,-0.018325956538319588,-0.59803706407547
1733230365217159700,5.43715966796875,-0.15027284622192383,-0.07757988572120667,-0.7745771408081055
1733230365227117000,5.447116943359375,-0.24007004499435425,-0.14905111491680145,-0.8936958312988281
1733230365237149000,5.45714892578125,-0.3341432809829712,-0.2535090744495392,-0.9437867999076843
1733230365247136800,5.46713671875,-0.3781255781650543,-0.31581732630729675,-0.9382890462875366
1733230365257138000,5.477137939453125,-0.35063666105270386,-0.30970868468284607,-0.856433093547821
1733230365267125800,5.487125732421875,-0.2480112910270691,-0.32131510972976685,-0.7110471725463867
1733230365277157400,5.497157470703125,-0.04642575979232788,-0.35246923565864563,-0.4447098970413208
1733230365287145200,5.507145263671875,0.05925392732024193,-0.3585779070854187,-0.27122417092323303
1733230365297146400,5.517146484375,0.1270599663257599,-0.35246923565864563,-0.12400564551353455
1733230365307134200,5.52713427734375,0.16982053220272064,-0.33108896017074585,-0.01771509274840355
1733230365317165800,5.537165771484375,0.1973094791173935,-0.30482175946235657,0.05375614017248154
1733230365327123500,5.54712353515625,0.20891591906547546,-0.26633724570274353,0.10018189996480942
1733230365337155000,5.557155029296875,0.2070833146572113,-0.2174680233001709,0.12095131725072861
1733230365347143000,5.567142822265625,0.18325957655906677,-0.17409659922122955,0.11239920556545258
1733230365357144000,5.57714404296875,0.1062905490398407,-0.1319468915462494,0.06780604273080826
1733230365367132000,5.5871318359375,0.04214970022439957,-0.10506882518529892,0.036041051149368286
1733230365377163500,5.59716357421875,-0.018936822190880775,-0.08429940044879913,0.00855211354792118
1733230365387121000,5.607120849609375,-0.07757988572120667,-0.07757988572120667,-0.016493361443281174
1733230365397152300,5.61715234375,-0.12767083942890167,-0.0861319974064827,-0.039706241339445114
1733230365407140400,5.627140380859375,-0.16432274878025055,-0.1014036312699318,-0.06658431142568588
1733230365417141800,5.637141845703125,-0.18997909128665924,-0.11239920556545258,-0.09346238523721695
1733230365427129600,5.647129638671875,-0.2174680233001709,-0.11178833991289139,-0.1313360333442688
1733230365437161200,5.6571611328125,-0.2321287989616394,-0.10873401165008545,-0.1514945775270462
1733230365447118300,5.667118408203125,-0.2376265823841095,-0.10690141469240189,-0.16065755486488342
1733230365457150500,5.677150390625,-0.2376265823841095,-0.09773843735456467,-0.1563815027475357
1733230365467138000,5.687137939453125,-0.23029619455337524,-0.09162978827953339,-0.14355333149433136
1733230365477139500,5.697139404296875,-0.2125810980796814,-0.08002334833145142,-0.12339477986097336
1733230365487127000,5.707126953125,-0.1820378452539444,-0.05864306539297104,-0.09773843735456467
1733230365497158700,5.71715869140625,-0.11423180252313614,-0.014049900695681572,-0.048258353024721146
1733230365507116000,5.727115966796875,-0.06475171446800232,0.01710422709584236,-0.013439035043120384
1733230365517148000,5.73714794921875,-0.02321287989616394,0.036651913076639175,0.01771509274840355
1733230365527135500,5.747135498046875,0.0012217304902151227,0.04398229718208313,0.036041051149368286
1733230365537167000,5.7571669921875,0.004886921960860491,0.036041051149368286,0.0403171069920063
1733230365547124500,5.76712451171875,-0.005497787147760391,0.02321287989616394,0.03298672288656235
1733230365557156400,5.77715625,-0.022602014243602753,0.009773843921720982,0.00855211354792118
1733230365567144000,5.78714404296875,-0.04337143152952194,0.01038470957428217,-0.021380282938480377
1733230365577145300,5.797145263671875,-0.07330382615327835,0.03176499158143997,-0.04886921867728233
1733230365587133200,5.80713330078125,-0.09285151958465576,0.029932396486401558,-0.04581489413976669
1733230365597164800,5.817164794921875,-0.11362093687057495,0.013439035043120384,-0.03176499158143997
1733230365607122200,5.8271220703125,-0.1319468915462494,-0.005497787147760391,-0.005497787147760391
1733230365617153800,5.83715380859375,-0.14294247329235077,-0.01771509274840355,0.024434609338641167
1733230365627142000,5.847141845703125,-0.14538592100143433,-0.018325956538319588,0.0555887371301651
1733230365637143000,5.85714306640625,-0.14477506279945374,-0.012217304669320583,0.0757472887635231
1733230365647130600,5.867130615234375,-0.13805554807186127,-0.001832595793530345,0.08735372871160507
1733230365657162500,5.87716259765625,-0.13316862285137177,-0.00366519158706069,0.08735372871160507
1733230365667119600,5.88711962890625,-0.13561208546161652,-0.018325956538319588,0.08002334833145142
1733230365677151700,5.89715185546875,-0.14477506279945374,-0.04581489413976669,0.05864306539297104
1733230365687139300,5.907139404296875,-0.1563815027475357,-0.0806342139840126,0.02932153269648552
1733230365697140200,5.91714013671875,-0.1612684279680252,-0.10812314599752426,0.001832595793530345
1733230365707128300,5.92712841796875,-0.1563815027475357,-0.11301007121801376,-0.010995574295520782
1733230365717160000,5.937159912109375,-0.12950342893600464,-0.08735372871160507,0.01710422709584236
1733230365727117300,5.947117431640625,-0.1215621829032898,-0.07208210229873657,0.06230825558304787
1733230365737149000,5.95714892578125,-0.1258382350206375,-0.09773843735456467,0.1007927656173706
1733230365747136800,5.96713671875,-0.13561208546161652,-0.1563815027475357,0.11056660860776901
1733230365757138000,5.977137939453125,-0.1466076523065567,-0.22113321721553802,0.09346238523721695
1733230365767125800,5.987125732421875,-0.16432274878025055,-0.2669481039047241,0.05619960278272629
1733230365777157400,5.997157470703125,-0.17837265133857727,-0.2791654169559479,0.018936822190880775
1733230365787145200,6.007145263671875,-0.18081611394882202,-0.2620611786842346,-0.005497787147760391
1733230365797146400,6.017146484375,-0.15393804013729095,-0.20891591906547546,0.00427605677396059
1733230365807134500,6.027134521484375,-0.12767083942890167,-0.1716531366109848,0.03726277872920036
1733230365817165800,6.037165771484375,-0.10812314599752426,-0.14905111491680145,0.07269296050071716
1733230365827123500,6.04712353515625,-0.09957103431224823,-0.1472185254096985,0.09162978827953339
1733230365837155000,6.057155029296875,-0.09957103431224823,-0.16920967400074005,0.08368854224681854
1733230365847143000,6.067142822265625,-0.10262536257505417,-0.21135938167572021,0.04214970022439957
1733230365857144000,6.07714404296875,-0.11362093687057495,-0.2583959996700287,-0.028099801391363144
1733230365867158800,6.08715869140625,-0.12339477986097336,-0.2987131178379059,-0.1563815027475357
1733230365877163300,6.097163330078125,-0.1111774742603302,-0.29626965522766113,-0.22602014243602753
1733230365887121000,6.107120849609375,-0.08368854224681854,-0.27488934993743896,-0.26572638750076294
1733230365897152800,6.11715283203125,-0.04398229718208313,-0.22907446324825287,-0.24923302233219147
1733230365907140400,6.127140380859375,0.015882495790719986,-0.16371189057826996,-0.16798794269561768
1733230365917141500,6.1371416015625,0.08491026610136032,-0.08796459436416626,-0.033597588539123535
1733230365927129600,6.147129638671875,0.14538592100143433,-0.013439035043120384,0.12461651116609573
1733230365937161200,6.1571611328125,0.19425514340400696,0.05375614017248154,0.33108896017074585
1733230365947118600,6.16711865234375,0.2076941877603531,0.051312681287527084,0.4196644127368927
1733230365957150200,6.177150146484375,0.21624629199504852,0.0403171069920063,0.46792277693748474
1733230365967138000,6.187137939453125,0.22296582162380219,0.0507018156349659,0.48319441080093384
1733230365977139500,6.197139404296875,0.22357667982578278,0.06719517707824707,0.4789183437824249
1733230365987127000,6.207126953125,0.2168571650981903,0.08307767659425735,0.46792277693748474
1733230365997158700,6.21715869140625,0.20341812074184418,0.09529497474431992,0.4550946056842804
1733230366007116000,6.227115966796875,0.1765400618314743,0.10445795953273773,0.4453207552433014
1733230366017146400,6.237146484375,0.1014036312699318,0.0959058403968811,0.41599923372268677
1733230366027135700,6.2471357421875,0.025045474991202354,0.07513642311096191,0.3677408695220947
1733230366037166000,6.257166015625,-0.06719517707824707,0.039095375686883926,0.2767219543457031
1733230366047124700,6.267124755859375,-0.16493362188339233,-0.01771509274840355,0.14049901068210602
1733230366057155300,6.2771552734375,-0.26022860407829285,-0.08002334833145142,-0.02687807008624077
1733230366067144200,6.287144287109375,-0.342695415019989,-0.1472185254096985,-0.20891591906547546
1733230366077144300,6.297144287109375,-0.41172316670417786,-0.21807889640331268,-0.38667771220207214
1733230366087133200,6.30713330078125,-0.49785518646240234,-0.3194825351238251,-0.6304129362106323
1733230366097163500,6.31716357421875,-0.5296201705932617,-0.3897320330142975,-0.769690215587616
1733230366107122200,6.3271220703125,-0.5375614166259766,-0.43249258399009705,-0.8814785480499268
1733230366117152000,6.337152099609375,-0.5064072608947754,-0.41111230850219727,-0.9388998746871948
1733230366127140900,6.347140869140625,-0.4343251883983612,-0.3390302062034607,-0.9266825914382935
1733230366137141800,6.357141845703125,-0.33536502718925476,-0.2535090744495392,-0.8478809595108032
1733230366147129600,6.367129638671875,-0.22602014243602753,-0.1612684279680252,-0.7067710757255554
1733230366157161500,6.377161376953125,-0.07635815441608429,-0.033597588539123535,-0.41111230850219727
1733230366167118600,6.38711865234375,0.001832595793530345,0.04948008432984352,-0.18387043476104736
1733230366177150500,6.397150390625,0.060475658625364304,0.11056660860776901,0.02321287989616394
1733230366187138300,6.40713818359375,0.11056660860776901,0.13805554807186127,0.17898350954055786
1733230366197139500,6.417139404296875,0.15393804013729095,0.14049901068210602,0.2816088795661926
1733230366207127300,6.427127197265625,0.182648703455925,0.13988813757896423,0.33536502718925476
1733230366217159700,6.43715966796875,0.1869247704744339,0.14844025671482086,0.35063666105270386
1733230366227117000,6.447116943359375,0.16982053220272064,0.14905111491680145,0.3323107063770294
1733230366237149000,6.45714892578125,0.11362093687057495,0.1368338167667389,0.252287358045578
1733230366247136800,6.46713671875,0.05497787147760391,0.11484266817569733,0.16982053220272064
1733230366257137200,6.47713720703125,-0.021380282938480377,0.07757988572120667,0.06658431142568588
1733230366267125800,6.487125732421875,-0.11178833991289139,0.02687807008624077,-0.051312681287527084
1733230366277157400,6.497157470703125,-0.20586158335208893,-0.022602014243602753,-0.18081611394882202
1733230366287145200,6.507145263671875,-0.2828305959701538,-0.05742133408784866,-0.30543261766433716
1733230366297146400,6.517146484375,-0.32681289315223694,-0.06169738993048668,-0.4098905920982361
1733230366307134500,6.527134521484375,-0.3323107063770294,-0.033597588539123535,-0.4801400899887085
1733230366317165800,6.537165771484375,-0.31031954288482666,-0.019547687843441963,-0.46364670991897583
1733230366327123500,6.54712353515625,-0.2779437005519867,-0.018936822190880775,-0.40194934606552124
1733230366337155000,6.557155029296875,-0.23640485107898712,-0.031154127791523933,-0.313373863697052
1733230366347143000,6.567142822265625,-0.19058994948863983,-0.04214970022439957,-0.21319197118282318
1733230366357144000,6.57714404296875,-0.1508837193250656,-0.04581489413976669,-0.12522737681865692
1733230366367132000,6.5871318359375,-0.11850785464048386,-0.04703662544488907,-0.056810468435287476
1733230366377163800,6.597163818359375,-0.08918632566928864,-0.0354301854968071,-0.006108652334660292
1733230366387121000,6.607120849609375,-0.07757988572120667,-0.01466076634824276,0.015271631069481373
1733230366397152800,6.61715283203125,-0.06291911751031876,0.015271631069481373,0.036651913076639175
1733230366407140400,6.627140380859375,-0.04703662544488907,0.04581489413976669,0.06291911751031876
1733230366417141500,6.6371416015625,-0.02932153269648552,0.06414084881544113,0.09224065393209457
1733230366427129600,6.647129638671875,-0.01466076634824276,0.06658431142568588,0.11850785464048386
1733230366437161200,6.6571611328125,0.0006108652451075613,0.06230825558304787,0.13561208546161652
1733230366447118600,6.66711865234375,0.01038470957428217,0.05192354694008827,0.14477506279945374
1733230366457150200,6.677150146484375,0.02932153269648552,0.04092797264456749,0.14416420459747314
1733230366467138000,6.687137939453125,0.03726277872920036,0.03726277872920036,0.14049901068210602
1733230366477139200,6.69713916015625,0.04092797264456749,0.030543262138962746,0.13500121235847473
1733230366487127000,6.707126953125,0.039706241339445114,0.02015855349600315,0.12950342893600464
1733230366497158700,6.71715869140625,0.036651913076639175,0.006108652334660292,0.12217304855585098
1733230366507116000,6.727115966796875,0.028099801391363144,-0.010995574295520782,0.11178833991289139
1733230366517147600,6.737147705078125,0.02015855349600315,-0.03420845419168472,0.09285151958465576
1733230366527135500,6.747135498046875,0.012828170321881771,-0.05619960278272629,0.05375614017248154
1733230366537167000,6.7571669921875,0.01038470957428217,-0.06352998316287994,0.02871066704392433
1733230366547124500,6.76712451171875,0.012217304669320583,-0.06475171446800232,0.01038470957428217
1733230366557156000,6.777156005859375,0.019547687843441963,-0.05619960278272629,0
1733230366567144000,6.78714404296875,0.04214970022439957,-0.03420845419168472,0.01710422709584236
1733230366577145600,6.7971455078125,0.06963863968849182,0.003054326167330146,0.06780604273080826
1733230366587133200,6.80713330078125,0.09407325088977814,0.051312681287527084,0.1514945775270462
1733230366597164500,6.81716455078125,0.1313360333442688,0.13927727937698364,0.3194825351238251
1733230366607122200,6.8271220703125,0.16920967400074005,0.19303341209888458,0.4386012554168701
1733230366617153800,6.83715380859375,0.2076941877603531,0.24007004499435425,0.543059229850769
1733230366627141600,6.8471416015625,0.24129177629947662,0.2932153046131134,0.6255260109901428
1733230366637142800,6.857142822265625,0.2742784917354584,0.35613444447517395,0.6805039048194885
1733230366647130600,6.867130615234375,0.30482175946235657,0.40194934606552124,0.7000515460968018
1733230366657162200,6.877162353515625,0.32070425152778625,0.41661009192466736,0.6719517707824707
1733230366667119600,6.88711962890625,0.3139847218990326,0.3952298164367676,0.5974262356758118
1733230366677151500,6.8971513671875,0.2474004179239273,0.35124751925468445,0.43249258399009705
1733230366687139300,6.907139404296875,0.16982053220272064,0.29565876722335815,0.3078760802745819
1733230366697140200,6.91714013671875,0.07024950534105301,0.20586158335208893,0.18936823308467865
1733230366707128300,6.92712841796875,-0.04337143152952194,0.09224065393209457,0.08429940044879913
1733230366717160000,6.937159912109375,-0.16493362188339233,-0.03298672288656235,0.0006108652451075613
1733230366727117300,6.947117431640625,-0.29016098380088806,-0.13805554807186127,-0.06352998316287994
1733230366737149200,6.957149169921875,-0.3952298164367676,-0.19853121042251587,-0.10690141469240189
1733230366747136800,6.96713671875,-0.46242499351501465,-0.18814650177955627,-0.06291911751031876
1733230366757138200,6.97713818359375,-0.4282165467739105,-0.1411098688840866,0.060475658625364304
1733230366767125800,6.987125732421875,-0.3280346393585205,-0.09896016865968704,0.25106561183929443
1733230366777157600,6.99715771484375,-0.1667662113904953,-0.07208210229873657,0.4660901725292206
1733230366787145200,7.007145263671875,0.02626720629632473,-0.0507018156349659,0.6517932415008545
1733230366797146400,7.017146484375,0.20463985204696655,-0.042760565876960754,0.7757988572120667
1733230366807134500,7.027134521484375,0.3488040566444397,-0.04948008432984352,0.8313875794410706
1733230366817165800,7.037165771484375,0.475253164768219,-0.0354301854968071,0.8038986921310425
1733230366827123500,7.04712353515625,0.49785518646240234,-0.01038470957428217,0.7458664774894714
1733230366837155000,7.057155029296875,0.4795292317867279,0.04764748737215996,0.6866125464439392
1733230366847143000,7.067142822265625,0.4294382631778717,0.09773843735456467,0.6212499737739563
1733230366857144000,7.07714404296875,0.35613444447517395,0.12034045159816742,0.5626068711280823
1733230366867132000,7.0871318359375,0.26450464129447937,0.10751228034496307,0.5082398653030396
1733230366877163500,7.09716357421875,0.15943582355976105,0.07635815441608429,0.45142942667007446
1733230366887121000,7.107120849609375,0.04398229718208313,0.036651913076639175,0.3738495409488678
1733230366897152500,7.117152587890625,-0.13255776464939117,0.010995574295520782,0.21380282938480377
1733230366907140600,7.127140625,-0.25534167885780334,-0.031154127791523933,0.06414084881544113
1733230366917141800,7.137141845703125,-0.3695734739303589,-0.10506882518529892,-0.11728613078594208
1733230366927129600,7.147129638671875,-0.4612032473087311,-0.19792033731937408,-0.30604347586631775
1733230366937161200,7.1571611328125,-0.5229006409645081,-0.28466320037841797,-0.4813618063926697
1733230366947118600,7.16711865234375,-0.5577199459075928,-0.35613444447517395,-0.6322455406188965
1733230366957150200,7.177150146484375,-0.5510004758834839,-0.4129449129104614,-0.7428121566772461
1733230366967138000,7.187137939453125,-0.44165557622909546,-0.44654250144958496,-0.8093964457511902
1733230366977139500,7.197139404296875,-0.3121521472930908,-0.43188172578811646,-0.7800748944282532
1733230366987127000,7.207126953125,-0.15454891324043274,-0.39584067463874817,-0.6884451508522034
1733230366997158700,7.21715869140625,0.00366519158706069,-0.34636059403419495,-0.5406157374382019
1733230367007116300,7.2271162109375,0.1411098688840866,-0.2968805134296417,-0.3579670190811157
1733230367017147600,7.237147705078125,0.2541199326515198,-0.22907446324825287,-0.16737708449363708
1733230367027135700,7.2471357421875,0.342695415019989,-0.14538592100143433,0.015271631069481373
1733230367037167600,7.257167724609375,0.4086688458919525,-0.02321287989616394,0.20952677726745605
1733230367047125000,7.267125,0.42088615894317627,0.004886921960860491,0.26633724570274353
1733230367057156600,7.277156494140625,0.40683624148368835,-0.01038470957428217,0.26450464129447937
1733230367067144200,7.287144287109375,0.3634648323059082,-0.039095375686883926,0.20952677726745605
1733230367077144600,7.29714453125,0.29993483424186707,-0.06658431142568588,0.11484266817569733
1733230367087133200,7.30713330078125,0.22968533635139465,-0.09407325088977814,-0.01038470957428217
1733230367097164300,7.317164306640625,0.16004669666290283,-0.13744467496871948,-0.15271630883216858
1733230367107122200,7.3271220703125,0.10690141469240189,-0.18325957655906677,-0.28588494658470154
1733230367117151200,7.337151123046875,0.05314527451992035,-0.20891591906547546,-0.4239404797554016
1733230367127140600,7.347140625,0.03237585723400116,-0.19975294172763824,-0.47219884395599365
1733230367137142000,7.35714208984375,0.012828170321881771,-0.20036379992961884,-0.49724429845809937
1733230367147129600,7.367129638671875,-0.003054326167330146,-0.19425514340400696,-0.48869219422340393
1733230367157161200,7.3771611328125,-0.015271631069481373,-0.17959438264369965,-0.455705463886261
1733230367167118800,7.387118896484375,-0.02076941914856434,-0.15760323405265808,-0.3988949954509735
1733230367177150500,7.397150390625,-0.02382374368607998,-0.13500121235847473,-0.32620203495025635
1733230367187138300,7.40713818359375,-0.033597588539123535,-0.09957103431224823,-0.21502456068992615
1733230367197139500,7.417139404296875,-0.051312681287527084,-0.08368854224681854,-0.1472185254096985
1733230367207127300,7.427127197265625,-0.07941248267889023,-0.07696902006864548,-0.08979719132184982
1733230367217160000,7.437159912109375,-0.11301007121801376,-0.06963863968849182,-0.04153883829712868
1733230367227117000,7.447116943359375,-0.14233160018920898,-0.06780604273080826,0.0006108652451075613
1733230367237149000,7.45714892578125,-0.16859880089759827,-0.07513642311096191,0.039095375686883926
1733230367247136800,7.46713671875,-0.1869247704744339,-0.0806342139840126,0.07696902006864548
1733230367257138200,7.47713818359375,-0.20036379992961884,-0.08307767659425735,0.11178833991289139
1733230367267125800,7.487125732421875,-0.2070833146572113,-0.0910189226269722,0.1514945775270462
1733230367277157600,7.49715771484375,-0.20402899384498596,-0.09285151958465576,0.1716531366109848
1733230367287145200,7.507145263671875,-0.19486601650714874,-0.08857546001672745,0.18997909128665924
1733230367297146400,7.517146484375,-0.18631389737129211,-0.08368854224681854,0.20525072515010834
1733230367307134500,7.527134521484375,-0.17959438264369965,-0.08368854224681854,0.21013765037059784
1733230367317165800,7.537165771484375,-0.17959438264369965,-0.10384709388017654,0.2021963894367218
1733230367327123500,7.54712353515625,-0.19364428520202637,-0.1417207419872284,0.17837265133857727
1733230367337155000,7.557155029296875,-0.23151792585849762,-0.2174680233001709,0.09285151958465576
1733230367347143000,7.567142822265625,-0.26450464129447937,-0.25534167885780334,0.012828170321881771
1733230367357144000,7.57714404296875,-0.29504790902137756,-0.27977627515792847,-0.06536258012056351
1733230367367132000,7.5871318359375,-0.32070425152778625,-0.28099802136421204,-0.11972958594560623
1733230367377164000,7.5971640625,-0.3439171314239502,-0.2785545587539673,-0.14477506279945374
1733230367387121000,7.607120849609375,-0.3646865487098694,-0.2742784917354584,-0.1362229436635971
1733230367397152800,7.61715283203125,-0.37568211555480957,-0.2583959996700287,-0.10262536257505417
1733230367407140400,7.627140380859375,-0.3683517575263977,-0.2321287989616394,-0.02932153269648552
1733230367417141800,7.637141845703125,-0.35124751925468445,-0.2174680233001709,0.02687807008624077
1733230367427129600,7.647129638671875,-0.33169981837272644,-0.21380282938480377,0.07269296050071716
1733230367437161200,7.6571611328125,-0.3078760802745819,-0.23029619455337524,0.09773843735456467
1733230367447118600,7.66711865234375,-0.28038713335990906,-0.2571742534637451,0.09834930300712585
1733230367457150500,7.677150390625,-0.25045475363731384,-0.2816088795661926,0.07208210229873657
1733230367467138000,7.687137939453125,-0.2223549485206604,-0.2919935882091522,0.033597588539123535
1733230367477139500,7.697139404296875,-0.19425514340400696,-0.2822197377681732,-0.00855211354792118
1733230367487127000,7.707126953125,-0.1667662113904953,-0.24190263450145721,-0.056810468435287476
1733230367497158700,7.71715869140625,-0.15454891324043274,-0.21441370248794556,-0.07024950534105301
1733230367507116000,7.727115966796875,-0.1466076523065567,-0.1966986060142517,-0.07269296050071716
1733230367517031000,7.737031005859375,-0.1368338167667389,-0.18814650177955627,-0.07513642311096191
1733230367527018800,7.747018798828125,-0.1258382350206375,-0.20463985204696655,-0.08735372871160507
1733230367537050400,7.75705029296875,-0.12400564551353455,-0.2474004179239273,-0.10751228034496307
1733230367547007700,7.7670078125,-0.11972958594560623,-0.29626965522766113,-0.12889257073402405
1733230367557039400,7.777039306640625,-0.10567969083786011,-0.33108896017074585,-0.13805554807186127
1733230367567027200,7.787027099609375,-0.08491026610136032,-0.2919935882091522,-0.09040805697441101
1733230367577028900,7.79702880859375,-0.0507018156349659,-0.20830504596233368,0.030543262138962746
1733230367587016400,7.807016357421875,-0.009162978269159794,-0.0959058403968811,0.22846360504627228
1733230367597048000,7.817048095703125,0.028099801391363144,0.025045474991202354,0.4703662395477295
1733230367607005400,7.82700537109375,0.07391469180583954,0.10567969083786011,0.6982190012931824
1733230367617037000,7.837037109375,0.11911872029304504,0.13744467496871948,0.8784242272377014
1733230367627025000,7.84702490234375,0.15760323405265808,0.18570303916931152,1.0256427526474
1733230367637026000,7.857026123046875,0.16493362188339233,0.20952677726745605,1.0317513942718506
1733230367647014000,7.867013916015625,0.1563815027475357,0.22113321721553802,0.9633345007896423
1733230367657044200,7.877044189453125,0.1362229436635971,0.2168571650981903,0.827722430229187
1733230367667003100,7.887003173828125,0.10018189996480942,0.18509216606616974,0.6426302194595337
1733230367677033500,7.897033447265625,0.048258353024721146,0.14233160018920898,0.4245513379573822
1733230367687022600,7.907022705078125,-0.02321287989616394,0.0959058403968811,0.18997909128665924
1733230367697022500,7.9170224609375,-0.11362093687057495,0.04092797264456749,-0.04092797264456749
1733230367707011600,7.927011474609375,-0.25534167885780334,-0.05314527451992035,-0.323147714138031
1733230367717042000,7.9370419921875,-0.33597588539123535,-0.11484266817569733,-0.44226643443107605
1733230367727000600,7.94700048828125,-0.3995058834552765,-0.1618792861700058,-0.5076290369033813
1733230367737030700,7.95703076171875,-0.44287729263305664,-0.20036379992961884,-0.53328537940979
1733230367747020300,7.967020263671875,-0.4599815309047699,-0.21807889640331268,-0.5283984541893005
1733230367757021200,7.977021240234375,-0.4495968222618103,-0.21013765037059784,-0.49846604466438293
1733230367767009000,7.987009033203125,-0.4080579876899719,-0.17287486791610718,-0.44837507605552673
1733230367777041000,7.997041015625,-0.3029891550540924,-0.07208210229873657,-0.34147366881370544
1733230367787028500,8.007028564453124,-0.2064724564552307,0.005497787147760391,-0.25106561183929443
1733230367797029600,8.017029541015624,-0.10934487730264664,0.06536258012056351,-0.15027284622192383
1733230367807017700,8.027017822265625,-0.028099801391363144,0.09896016865968704,-0.05314527451992035
1733230367817049000,8.037049072265624,0.018936822190880775,0.10567969083786011,0.018936822190880775
1733230367827006700,8.0470068359375,0.042760565876960754,0.08429940044879913,0.04764748737215996
1733230367837038300,8.057038330078125,0.06230825558304787,0.05925392732024193,0.03787364438176155
1733230367847026200,8.067026123046874,0.08307767659425735,0.03481931984424591,-0.03237585723400116
1733230367857027600,8.077027587890624,0.08002334833145142,0.02382374368607998,-0.09712757170200348
1733230367867043600,8.087043701171876,0.07269296050071716,0.009773843921720982,-0.15515977144241333
1733230367877046800,8.097046875,0.060475658625364304,0.0024434609804302454,-0.18997909128665924
1733230367887004200,8.107004150390624,0.04703662544488907,0.01160643994808197,-0.19792033731937408
1733230367897035800,8.117035888671875,0.03298672288656235,0.02076941914856434,-0.18020524084568024
1733230367907023600,8.127023681640624,0.015271631069481373,0.022602014243602753,-0.14905111491680145
1733230367917024800,8.137024658203124,-0.00427605677396059,0.019547687843441963,-0.11423180252313614
1733230367927012900,8.147012939453125,-0.03787364438176155,0.006108652334660292,-0.08491026610136032
1733230367937044500,8.15704443359375,-0.07208210229873657,-0.00366519158706069,-0.08918632566928864
1733230367947001900,8.167001953125,-0.10934487730264664,-0.006108652334660292,-0.11850785464048386
1733230367957033500,8.177033447265625,-0.1472185254096985,0,-0.1569923609495163
1733230367967021300,8.187021240234374,-0.17409659922122955,0.015271631069481373,-0.19120082259178162
1733230367977022500,8.1970224609375,-0.18997909128665924,0.03481931984424591,-0.20830504596233368
1733230367987010300,8.20701025390625,-0.19486601650714874,0.05925392732024193,-0.2028072625398636
1733230367997042000,8.2170419921875,-0.17837265133857727,0.0910189226269722,-0.15393804013729095
1733230368006999300,8.226999267578124,-0.15515977144241333,0.10018189996480942,-0.10323622822761536
1733230368017031400,8.237031494140625,-0.13255776464939117,0.1014036312699318,-0.0555887371301651
1733230368027019000,8.24701904296875,-0.10995574295520782,0.09468411654233932,-0.01710422709584236
1733230368037050600,8.257050537109375,-0.09529497474431992,0.07391469180583954,0.0024434609804302454
1733230368047008000,8.267008056640625,-0.08552113175392151,0.0555887371301651,0.001832595793530345
1733230368057040000,8.277039794921874,-0.08246681094169617,0.03787364438176155,-0.014049900695681572
1733230368067027500,8.28702734375,-0.07269296050071716,0.027488935738801956,-0.039706241339445114
1733230368077028900,8.29702880859375,-0.059864792972803116,0.03726277872920036,-0.03787364438176155
1733230368087016400,8.307016357421874,-0.042760565876960754,0.05497787147760391,-0.015271631069481373
1733230368097048000,8.317048095703125,-0.02932153269648552,0.07513642311096191,0.01771509274840355
1733230368107005700,8.327005615234375,-0.015882495790719986,0.08979719132184982,0.05497787147760391
1733230368117035500,8.337035400390626,-0.006719517521560192,0.09712757170200348,0.09162978827953339
1733230368127023900,8.34702392578125,-0.003054326167330146,0.08674286305904388,0.1160643994808197
1733230368137025000,8.35702490234375,-0.00427605677396059,0.07391469180583954,0.11545353382825851
1733230368147012900,8.367012939453126,-0.012217304669320583,0.042760565876960754,0.05864306539297104
1733230368157044500,8.37704443359375,-0.01710422709584236,0.02321287989616394,-0.00366519158706069
1733230368167002000,8.387002197265625,-0.021991148591041565,0.006108652334660292,-0.06352998316287994
1733230368177033700,8.39703369140625,-0.02382374368607998,-0.01771509274840355,-0.10384709388017654
1733230368187021800,8.407021728515625,-0.01710422709584236,-0.03726277872920036,-0.1270599663257599
1733230368197022700,8.417022705078125,-0.003054326167330146,-0.04642575979232788,-0.1313360333442688
1733230368207010600,8.427010498046876,0.01466076634824276,-0.05009094998240471,-0.12034045159816742
1733230368217043000,8.43704296875,0.03298672288656235,-0.05742133408784866,-0.08735372871160507
1733230368227000600,8.44700048828125,0.04337143152952194,-0.056810468435287476,-0.05375614017248154
1733230368237032200,8.4570322265625,0.05192354694008827,-0.03420845419168472,-0.01038470957428217
1733230368247020000,8.46702001953125,0.06291911751031876,0.0012217304902151227,0.045204028487205505
1733230368257021400,8.477021484375,0.0708603709936142,0.04337143152952194,0.11362093687057495
1733230368267009000,8.487009033203124,0.0757472887635231,0.08429940044879913,0.1820378452539444
1733230368277040600,8.49704052734375,0.07024950534105301,0.11728613078594208,0.24556782841682434
1733230368287028500,8.507028564453124,0.03176499158143997,0.13439035415649414,0.3017674386501312
1733230368297029600,8.517029541015624,-0.010995574295520782,0.11972958594560623,0.304210901260376
1733230368307017500,8.527017578125,-0.06780604273080826,0.09224065393209457,0.2767219543457031
1733230368317049000,8.537049072265624,-0.12217304855585098,0.05803219974040985,0.22357667982578278
1733230368327006700,8.5470068359375,-0.1612684279680252,0.036651913076639175,0.16249015927314758
1733230368337038300,8.557038330078125,-0.17837265133857727,0.025045474991202354,0.11178833991289139
1733230368347026200,8.567026123046874,-0.16982053220272064,0.015882495790719986,0.07880161702632904
1733230368357027600,8.577027587890624,-0.13255776464939117,0.010995574295520782,0.06536258012056351
1733230368367015400,8.587015380859375,-0.04948008432984352,0.022602014243602753,0.05253441259264946
1733230368377047000,8.597047119140624,0.01160643994808197,0.04642575979232788,0.04337143152952194
1733230368387004200,8.607004150390624,0.05497787147760391,0.08002334833145142,0.036041051149368286
1733230368397035500,8.617035400390625,0.0708603709936142,0.11911872029304504,0.039706241339445114
1733230368407023900,8.62702392578125,0.06230825558304787,0.14233160018920898,0.051312681287527084
1733230368417024800,8.637024658203124,0.031154127791523933,0.13255776464939117,0.05925392732024193
1733230368427012900,8.647012939453125,-0.018325956538319588,0.09468411654233932,0.04337143152952194
1733230368437044500,8.65704443359375,-0.13011430203914642,0.007941247895359993,-0.04642575979232788
1733230368447001900,8.667001953125,-0.21013765037059784,-0.05314527451992035,-0.14966198801994324
1733230368457033700,8.67703369140625,-0.2742784917354584,-0.0861319974064827,-0.2736676335334778
1733230368467021800,8.687021728515624,-0.3023782968521118,-0.05314527451992035,-0.3891211748123169
1733230368477022500,8.6970224609375,-0.27611109614372253,0.007941247895359993,-0.46547931432724
1733230368487010300,8.70701025390625,-0.2119702398777008,0.06475171446800232,-0.4703662395477295
1733230368497042000,8.7170419921875,-0.12950342893600464,0.12400564551353455,-0.3933972120285034
1733230368506999300,8.726999267578124,0.027488935738801956,0.20891591906547546,-0.15515977144241333
1733230368517031000,8.737031005859375,0.13561208546161652,0.251676470041275,0.024434609338641167
1733230368527019000,8.74701904296875,0.21991148591041565,0.26572638750076294,0.17776179313659668
1733230368537050400,8.75705029296875,0.28649580478668213,0.24678955972194672,0.2742784917354584
1733230368547008000,8.767008056640625,0.3445279896259308,0.18509216606616974,0.304210901260376
1733230368557039600,8.77703955078125,0.39217549562454224,0.10812314599752426,0.28588494658470154
1733230368567027200,8.787027099609375,0.41661009192466736,0.03176499158143997,0.23335053026676178
1733230368577028900,8.79702880859375,0.41111230850219727,-0.045204028487205505,0.16249015927314758
1733230368587016400,8.807016357421874,0.33536502718925476,-0.17470745742321014,0.04214970022439957
1733230368597048300,8.81704833984375,0.24068090319633484,-0.24984388053417206,-0.024434609338641167
1733230368607005400,8.82700537109375,0.13988813757896423,-0.28466320037841797,-0.06536258012056351
1733230368617037000,8.837037109375,0.06169738993048668,-0.2675589919090271,-0.06780604273080826
1733230368627025200,8.847025146484375,0.028099801391363144,-0.20830504596233368,-0.03481931984424591
1733230368637026300,8.8570263671875,0.030543262138962746,-0.12828169763088226,0.027488935738801956
1733230368647014100,8.86701416015625,0.06169738993048668,-0.0708603709936142,0.10690141469240189
1733230368657045800,8.877045654296875,0.08307767659425735,0.0757472887635231,0.2528982162475586
1733230368667003000,8.8870029296875,0.06963863968849182,0.10201449692249298,0.3090978264808655
1733230368677034500,8.897034423828124,0.06291911751031876,0.12034045159816742,0.33475416898727417
1733230368687022300,8.907022216796875,0.05742133408784866,0.11484266817569733,0.3072652220726013
1733230368697023700,8.917023681640625,0.05009094998240471,0.09224065393209457,0.23335053026676178
1733230368707011600,8.927011474609374,0.031154127791523933,0.06536258012056351,0.1111774742603302
1733230368717043200,8.937043212890625,-0.00366519158706069,0.028099801391363144,-0.05009094998240471
1733230368727000600,8.94700048828125,-0.0507018156349659,-0.03298672288656235,-0.323147714138031
1733230368737032200,8.9570322265625,-0.05925392732024193,-0.06291911751031876,-0.485027015209198
1733230368747020300,8.967020263671875,-0.036651913076639175,-0.06902777403593063,-0.6041457056999207
1733230368757021200,8.977021240234375,0.012828170321881771,-0.060475658625364304,-0.6487388610839844
1733230368767009300,8.98700927734375,0.07819075137376785,-0.054367005825042725,-0.616973876953125
1733230368777040600,8.99704052734375,0.1466076523065567,-0.07452555745840073,-0.5229006409645081
1733230368787028500,9.007028564453124,0.21380282938480377,-0.1111774742603302,-0.384845107793808
1733230368797030000,9.01702978515625,0.27488934993743896,-0.1466076523065567,-0.22846360504627228
1733230368807017700,9.027017822265625,0.3335324227809906,-0.1722639948129654,-0.0354301854968071
1733230368817049600,9.037049560546874,0.3445279896259308,-0.1869247704744339,0.028099801391363144
1733230368827006700,9.0470068359375,0.34208452701568604,-0.1973094791173935,0.033597588539123535
1733230368837038300,9.057038330078125,0.32986724376678467,-0.2028072625398636,-0.0024434609804302454
1733230368847026400,9.0670263671875,0.30970868468284607,-0.21563543379306793,-0.06291911751031876
1733230368857027600,9.077027587890624,0.2785545587539673,-0.2217440903186798,-0.12767083942890167
1733230368867015200,9.08701513671875,0.24129177629947662,-0.21807889640331268,-0.1814269721508026
1733230368877047000,9.097047119140624,0.17959438264369965,-0.21563543379306793,-0.23396138846874237
1733230368887004200,9.107004150390624,0.1319468915462494,-0.22052235901355743,-0.25595253705978394
1733230368897036000,9.1170361328125,0.08491026610136032,-0.2278527319431305,-0.27488934993743896
1733230368907023600,9.127023681640624,0.039095375686883926,-0.23273965716362,-0.2877175211906433
1733230368917024800,9.137024658203124,-0.0012217304902151227,-0.23457226157188416,-0.2974913716316223
1733230368927012900,9.147012939453125,-0.029932396486401558,-0.2321287989616394,-0.2926044464111328
1733230368937044000,9.1570439453125,-0.0507018156349659,-0.2223549485206604,-0.27122417092323303
1733230368947001900,9.167001953125,-0.0757472887635231,-0.20036379992961884,-0.2119702398777008
1733230368957033500,9.177033447265625,-0.08185594528913498,-0.1716531366109848,-0.16065755486488342
1733230368967021300,9.187021240234374,-0.07819075137376785,-0.1362229436635971,-0.1111774742603302
1733230368977022200,9.197022216796874,-0.06963863968849182,-0.09957103431224823,-0.07147123664617538
1733230368987010300,9.20701025390625,-0.060475658625364304,-0.07024950534105301,-0.04398229718208313
1733230368997042000,9.2170419921875,-0.0555887371301651,-0.04642575979232788,-0.030543262138962746
1733230369006999600,9.22699951171875,-0.05192354694008827,-0.033597588539123535,-0.031154127791523933
1733230369017031200,9.23703125,-0.05314527451992035,-0.029932396486401558,-0.045204028487205505
1733230369027019000,9.24701904296875,-0.06352998316287994,-0.03787364438176155,-0.06108652427792549
1733230369037051000,9.25705078125,-0.07757988572120667,-0.04398229718208313,-0.0659734457731247
1733230369047008300,9.26700830078125,-0.1007927656173706,-0.059864792972803116,-0.06475171446800232
1733230369057040000,9.277039794921874,-0.1270599663257599,-0.08429940044879913,-0.06108652427792549
1733230369067027700,9.28702783203125,-0.1508837193250656,-0.1111774742603302,-0.05375614017248154
1733230369077028900,9.29702880859375,-0.16065755486488342,-0.1264491081237793,-0.04337143152952194
1733230369087016400,9.307016357421874,-0.1612684279680252,-0.13439035415649414,-0.03176499158143997
1733230369097048600,9.317048583984375,-0.1368338167667389,-0.13255776464939117,-0.013439035043120384
1733230369107005400,9.32700537109375,-0.1111774742603302,-0.12095131725072861,0.0012217304902151227
1733230369117035300,9.33703515625,-0.08674286305904388,-0.11423180252313614,0.016493361443281174
1733230369127023900,9.34702392578125,-0.06719517707824707,-0.11850785464048386,0.02687807008624077
1733230369137025300,9.357025390625,-0.06414084881544113,-0.13011430203914642,0.02626720629632473
1733230369147012900,9.367012939453126,-0.0757472887635231,-0.14294247329235077,0.01771509274840355
1733230369157044500,9.37704443359375,-0.09896016865968704,-0.14905111491680145,0.0024434609804302454
1733230369167002000,9.387002197265625,-0.13988813757896423,-0.15943582355976105,-0.012217304669320583
1733230369177033500,9.397033447265626,-0.16249015927314758,-0.17409659922122955,-0.005497787147760391
1733230369187021600,9.407021484375,-0.17837265133857727,-0.18997909128665924,0.009162978269159794
1733230369197022700,9.417022705078125,-0.1869247704744339,-0.21380282938480377,0.025656340643763542
1733230369207010600,9.427010498046876,-0.18631389737129211,-0.2376265823841095,0.031154127791523933
1733230369217043000,9.43704296875,-0.17959438264369965,-0.24984388053417206,0.03481931984424591
1733230369227000600,9.44700048828125,-0.16859880089759827,-0.24923302233219147,0.036041051149368286
1733230369237032200,9.4570322265625,-0.1618792861700058,-0.23945917189121246,0.042760565876960754
1733230369247020300,9.467020263671875,-0.1569923609495163,-0.23151792585849762,0.0708603709936142
1733230369257021200,9.477021240234375,-0.15882496535778046,-0.24129177629947662,0.09040805697441101
1733230369267009000,9.487009033203124,-0.16798794269561768,-0.2583959996700287,0.09773843735456467
1733230369277041000,9.497041015625,-0.18020524084568024,-0.2681698501110077,0.08796459436416626
1733230369287028500,9.507028564453124,-0.1973094791173935,-0.28099802136421204,0.06230825558304787
1733230369297029600,9.517029541015624,-0.21135938167572021,-0.2877175211906433,0.03176499158143997
1733230369307017700,9.527017822265625,-0.2272418737411499,-0.2919935882091522,0.00427605677396059
1733230369317049000,9.537049072265624,-0.23945917189121246,-0.2993239760398865,-0.03237585723400116
1733230369327006700,9.5470068359375,-0.23273965716362,-0.2968805134296417,-0.04153883829712868
1733230369337038300,9.557038330078125,-0.2174680233001709,-0.2822197377681732,-0.03420845419168472
1733230369347026200,9.567026123046874,-0.18997909128665924,-0.26633724570274353,-0.005497787147760391
1733230369357027300,9.57702734375,-0.14844025671482086,-0.2431243658065796,0.039706241339445114
1733230369367015200,9.58701513671875,-0.11239920556545258,-0.2119702398777008,0.08124507963657379
1733230369377047000,9.597047119140624,-0.09468411654233932,-0.19058994948863983,0.10506882518529892
1733230369387004200,9.607004150390624,-0.08857546001672745,-0.18020524084568024,0.09346238523721695
1733230369397035800,9.617035888671875,-0.09162978827953339,-0.17409659922122955,0.07880161702632904
1733230369407023900,9.62702392578125,-0.08857546001672745,-0.1411098688840866,0.08918632566928864
1733230369417024800,9.637024658203124,-0.06902777403593063,-0.08429940044879913,0.1466076523065567
1733230369427012900,9.647012939453125,-0.03298672288656235,-0.02687807008624077,0.2528982162475586
1733230369437044500,9.65704443359375,0,0.025045474991202354,0.3787364661693573
1733230369447001600,9.667001708984374,0.03420845419168472,0.0403171069920063,0.49296826124191284
1733230369457033500,9.677033447265625,0.06780604273080826,0.07208210229873657,0.5907067060470581
1733230369467021000,9.68702099609375,0.09957103431224823,0.09346238523721695,0.6572909951210022
1733230369477022700,9.697022705078124,0.10751228034496307,0.08796459436416626,0.6511823534965515
1733230369487010300,9.70701025390625,0.10812314599752426,0.08185594528913498,0.6047565937042236
1733230369497041700,9.717041748046874,0.1007927656173706,0.07391469180583954,0.5283984541893005
1733230369506999300,9.726999267578124,0.08674286305904388,0.056810468435287476,0.4282165467739105
1733230369517031000,9.737031005859375,0.07024950534105301,0.03481931984424591,0.313373863697052
1733230369527019000,9.74701904296875,0.04642575979232788,0.007941247895359993,0.19547687470912933
1733230369537050400,9.75705029296875,-0.0012217304902151227,-0.0354301854968071,0.03298672288656235
1733230369547007700,9.7670078125,-0.039095375686883926,-0.05497787147760391,-0.056810468435287476
1733230369557039400,9.777039306640624,-0.08185594528913498,-0.07024950534105301,-0.12828169763088226
1733230369567027200,9.787027099609375,-0.1258382350206375,-0.07819075137376785,-0.182648703455925
1733230369577028600,9.797028564453125,-0.1612684279680252,-0.08796459436416626,-0.22418753802776337
1733230369587016400,9.807016357421874,-0.18448130786418915,-0.09896016865968704,-0.251676470041275
1733230369597046500,9.817046630859375,-0.2021963894367218,-0.11423180252313614,-0.2724458873271942
1733230369607005400,9.82700537109375,-0.21991148591041565,-0.1466076523065567,-0.3121521472930908
1733230369617037000,9.837037109375,-0.2223549485206604,-0.16371189057826996,-0.34086281061172485
1733230369627025000,9.84702490234375,-0.2272418737411499,-0.16982053220272064,-0.3677408695220947
1733230369637026000,9.857026123046875,-0.22968533635139465,-0.16982053220272064,-0.38606682419776917
1733230369647014100,9.86701416015625,-0.23090706765651703,-0.16737708449363708,-0.394008070230484
1733230369657045800,9.877045654296875,-0.23151792585849762,-0.16982053220272064,-0.3854559659957886
1733230369667003000,9.8870029296875,-0.22663100063800812,-0.17287486791610718,-0.3579670190811157
1733230369677034800,9.89703466796875,-0.21013765037059784,-0.16859880089759827,-0.31154128909111023
1733230369687022300,9.907022216796875,-0.1417207419872284,-0.12095131725072861,-0.19425514340400696
1733230369697023700,9.917023681640625,-0.07819075137376785,-0.08368854224681854,-0.10384709388017654
1733230369707011600,9.927011474609374,-0.02015855349600315,-0.05497787147760391,-0.01466076634824276
1733230369717043000,9.93704296875,0.018325956538319588,-0.0403171069920063,0.06536258012056351
1733230369727000600,9.94700048828125,0.036041051149368286,-0.036651913076639175,0.12217304855585098
1733230369737032200,9.9570322265625,0.03848451003432274,-0.04642575979232788,0.15027284622192383
1733230369747020000,9.96702001953125,0.02626720629632473,-0.060475658625364304,0.14966198801994324
1733230369757021200,9.977021240234375,-0.012217304669320583,-0.08002334833145142,0.11484266817569733
1733230369767009300,9.98700927734375,-0.04214970022439957,-0.07330382615327835,0.08918632566928864
1733230369777041000,9.997041015625,-0.06719517707824707,-0.05742133408784866,0.07696902006864548
1733230369787028500,10.007028564453124,-0.08796459436416626,-0.04581489413976669,0.07757988572120667
1733230369797030100,10.017030029296874,-0.10567969083786011,-0.0403171069920063,0.0910189226269722
1733230369807017700,10.027017822265625,-0.11423180252313614,-0.03420845419168472,0.10934487730264664
1733230369817049300,10.03704931640625,-0.1160643994808197,-0.02932153269648552,0.1313360333442688
1733230369827006700,10.0470068359375,-0.1160643994808197,-0.025045474991202354,0.1472185254096985
1733230369837038300,10.057038330078125,-0.11301007121801376,-0.02076941914856434,0.1472185254096985
1733230369847026400,10.0670263671875,-0.11362093687057495,-0.019547687843441963,0.13377949595451355
1733230369857027300,10.07702734375,-0.11545353382825851,-0.02076941914856434,0.11178833991289139
1733230369867043600,10.087043701171876,-0.11362093687057495,-0.02015855349600315,0.08796459436416626
1733230369877047000,10.097047119140624,-0.1014036312699318,-0.015882495790719986,0.07330382615327835
1733230369887004200,10.107004150390624,-0.08735372871160507,-0.014049900695681572,0.07635815441608429
1733230369897036000,10.1170361328125,-0.06841690838336945,-0.00855211354792118,0.09468411654233932
1733230369907023600,10.127023681640624,-0.0403171069920063,0.005497787147760391,0.15271630883216858
1733230369917024800,10.137024658203124,-0.021991148591041565,0.02015855349600315,0.192422553896904
1733230369927012900,10.147012939453125,-0.006108652334660292,0.03481931984424591,0.2174680233001709
1733230369937044500,10.15704443359375,0.012828170321881771,0.045204028487205505,0.23090706765651703
1733230369947001900,10.167001953125,0.030543262138962746,0.08552113175392151,0.23884831368923187
1733230369957033700,10.17703369140625,0.0507018156349659,0.11362093687057495,0.23884831368923187
1733230369967021300,10.187021240234374,0.06658431142568588,0.14355333149433136,0.23273965716362
1733230369977022700,10.197022705078124,0.07024950534105301,0.1722639948129654,0.21135938167572021
1733230369987010300,10.20701025390625,0.06108652427792549,0.17898350954055786,0.18875735998153687
1733230369997042000,10.2170419921875,0.04581489413976669,0.17592918872833252,0.1722639948129654
1733230370006999300,10.226999267578124,0.02687807008624077,0.16798794269561768,0.1569923609495163
1733230370017031200,10.23703125,0.01160643994808197,0.16065755486488342,0.1472185254096985
1733230370027019000,10.24701904296875,0.009773843921720982,0.1569923609495163,0.1417207419872284
1733230370037050400,10.25705029296875,0.016493361443281174,0.1411098688840866,0.14233160018920898
1733230370047008300,10.26700830078125,0.024434609338641167,0.12217304855585098,0.1472185254096985
1733230370057039600,10.27703955078125,0.0403171069920063,0.11239920556545258,0.15454891324043274
1733230370067027500,10.28702734375,0.05314527451992035,0.10445795953273773,0.15577064454555511
1733230370077028900,10.29702880859375,0.06108652427792549,0.10018189996480942,0.1569923609495163
1733230370087016400,10.307016357421874,0.06230825558304787,0.1007927656173706,0.15271630883216858
1733230370097048000,10.317048095703125,0.06108652427792549,0.10751228034496307,0.13927727937698364
1733230370107005400,10.32700537109375,0.059864792972803116,0.10323622822761536,0.1160643994808197
1733230370117035300,10.33703515625,0.05864306539297104,0.09162978827953339,0.08674286305904388
1733230370127023900,10.34702392578125,0.054367005825042725,0.07880161702632904,0.04337143152952194
1733230370137025300,10.357025390625,0.056810468435287476,0.07757988572120667,0.01771509274840355
1733230370147013000,10.36701318359375,0.06780604273080826,0.0910189226269722,0.00366519158706069
1733230370157044500,10.37704443359375,0.08124507963657379,0.10262536257505417,0.018936822190880775
1733230370167002000,10.387002197265625,0.06414084881544113,0.17348572611808777,0.14844025671482086
1733230370177033700,10.39703369140625,0.02871066704392433,0.08857546001672745,0.2681698501110077
1733230370187021300,10.407021240234375,0.02871066704392433,0.039095375686883926,0.3194825351238251
1733230370197022700,10.417022705078125,0.09162978827953339,0.05742133408784866,0.24984388053417206
1733230370207010600,10.427010498046876,0.10690141469240189,0.05742133408784866,0.18020524084568024
1733230370217043000,10.43704296875,0.1014036312699318,0.06658431142568588,0.12400564551353455
1733230370227000600,10.44700048828125,0.09468411654233932,0.07330382615327835,0.07147123664617538
1733230370237032200,10.4570322265625,0.0806342139840126,0.06475171446800232,0.030543262138962746
1733230370247020300,10.467020263671875,0.051312681287527084,0.033597588539123535,-0.00855211354792118
1733230370257021400,10.477021484375,0.012217304669320583,-0.001832595793530345,-0.04581489413976669
1733230370267009000,10.487009033203124,-0.02626720629632473,-0.029932396486401558,-0.08185594528913498
1733230370277040600,10.49704052734375,-0.054367005825042725,-0.060475658625364304,-0.11728613078594208
1733230370287028500,10.507028564453124,-0.05375614017248154,-0.06902777403593063,-0.1111774742603302
1733230370297029600,10.517029541015624,-0.042760565876960754,-0.06719517707824707,-0.07880161702632904
1733230370307017700,10.527017822265625,-0.028099801391363144,-0.05253441259264946,-0.03420845419168472
1733230370317049300,10.53704931640625,-0.016493361443281174,-0.02626720629632473,0.021380282938480377
1733230370327006700,10.5470068359375,-0.01038470957428217,-0.0024434609804302454,0.06475171446800232
1733230370337038000,10.5570380859375,-0.001832595793530345,0.018325956538319588,0.0757472887635231
1733230370347026400,10.5670263671875,0.009162978269159794,0.07513642311096191,0.025656340643763542
1733230370357027300,10.57702734375,0.00733038317412138,0.09162978827953339,-0.03787364438176155
