time,seconds_elapsed,z,y,x
1733230359957179000,0.177178955078125,0.05009094998240471,-0.1508837193250656,-0.06108652427792549
1733230359966922500,0.186922607421875,0.05803219974040985,-0.09712757170200348,-0.10384709388017654
1733230359977102600,0.1971025390625,0.054367005825042725,-0.0555887371301651,-0.15332718193531036
1733230359987060200,0.207060302734375,0.05925392732024193,-0.02871066704392433,-0.2064724564552307
1733230359997091800,0.217091796875,0.10262536257505417,-0.014049900695681572,-0.3066543638706207
1733230360007049200,0.22704931640625,0.11667526513338089,-0.009162978269159794,-0.375071257352829
1733230360017080800,0.237080810546875,0.11545353382825851,-0.025045474991202354,-0.4343251883983612
1733230360027068700,0.247068603515625,0.10873401165008545,-0.05253441259264946,-0.46547931432724
1733230360037100300,0.257100341796875,0.10751228034496307,-0.0403171069920063,-0.4434881806373596
1733230360047057700,0.2670576171875,0.11423180252313614,-0.02382374368607998,-0.37690386176109314
1733230360057089300,0.27708935546875,0.1258382350206375,-0.005497787147760391,-0.28099802136421204
1733230360067077400,0.287077392578125,0.14538592100143433,0.04092797264456749,-0.10751228034496307
1733230360077078500,0.29707861328125,0.16249015927314758,0.08246681094169617,0.006719517521560192
1733230360087066400,0.30706640625,0.18020524084568024,0.11850785464048386,0.09712757170200348
1733230360097098000,0.317097900390625,0.18509216606616974,0.14049901068210602,0.15454891324043274
1733230360107055000,0.32705517578125,0.18325957655906677,0.14233160018920898,0.17959438264369965
1733230360117086000,0.3370859375,0.17470745742321014,0.12217304855585098,0.1771509200334549
1733230360127074300,0.34707421875,0.15454891324043274,0.07941248267889023,0.1466076523065567
1733230360137075200,0.3570751953125,0.10690141469240189,-0.00366519158706069,0.07513642311096191
1733230360147063300,0.367063232421875,0.07696902006864548,-0.05925392732024193,0.021380282938480377
1733230360157095000,0.377094970703125,0.060475658625364304,-0.10690141469240189,-0.03420845419168472
1733230360167052300,0.38705224609375,0.04581489413976669,-0.1270599663257599,-0.08246681094169617
1733230360177084000,0.397083984375,0.03420845419168472,-0.12950342893600464,-0.11728613078594208
1733230360187071700,0.40707177734375,0.03481931984424591,-0.11789698898792267,-0.13316862285137177
1733230360197073000,0.417072998046875,0.04214970022439957,-0.10201449692249298,-0.12767083942890167
1733230360207060700,0.427060791015625,0.0403171069920063,-0.09957103431224823,-0.11484266817569733
1733230360217092900,0.4370927734375,0.03848451003432274,-0.09346238523721695,-0.06841690838336945
1733230360227050200,0.44705029296875,0.05314527451992035,-0.06658431142568588,-0.024434609338641167
1733230360237081900,0.457081787109375,0.07024950534105301,0.006108652334660292,0.018936822190880775
1733230360247070000,0.467070068359375,0.07024950534105301,0.04398229718208313,0.048258353024721146
1733230360257070800,0.47707080078125,0.06414084881544113,0.054367005825042725,0.05925392732024193
1733230360267059000,0.487058837890625,0.054367005825042725,0.03726277872920036,0.04703662544488907
1733230360277090600,0.497090576171875,0.04153883829712868,0.00855211354792118,0.021380282938480377
1733230360287078400,0.507078369140625,0.0354301854968071,-0.010995574295520782,-0.019547687843441963
1733230360297079600,0.51707958984375,0.03481931984424591,-0.019547687843441963,-0.04642575979232788
1733230360307067400,0.5270673828125,0.025045474991202354,-0.02932153269648552,-0.06780604273080826
1733230360317099000,0.53709912109375,0.012828170321881771,-0.03420845419168472,-0.07696902006864548
1733230360327056400,0.547056396484375,0.009773843921720982,-0.02871066704392433,-0.07757988572120667
1733230360337088000,0.557087890625,0.016493361443281174,-0.009773843921720982,-0.07024950534105301
1733230360347076000,0.567076171875,0.02932153269648552,0.012828170321881771,-0.06291911751031876
1733230360357077000,0.577076904296875,0.02626720629632473,0.016493361443281174,-0.05497787147760391
1733230360367064800,0.58706494140625,0.014049900695681572,-0.009162978269159794,-0.059864792972803116
1733230360377096700,0.5970966796875,0.001832595793530345,-0.028099801391363144,-0.07269296050071716
1733230360387053800,0.6070537109375,-0.003054326167330146,-0.04337143152952194,-0.08552113175392151
1733230360397085400,0.61708544921875,-0.00427605677396059,-0.0555887371301651,-0.09712757170200348
1733230360407073300,0.6270732421875,-0.005497787147760391,-0.06841690838336945,-0.10873401165008545
1733230360417074700,0.63707470703125,-0.0012217304902151227,-0.0708603709936142,-0.11911872029304504
1733230360427062500,0.6470625,0.00855211354792118,-0.07024950534105301,-0.1215621829032898
1733230360437094100,0.65709423828125,0.021380282938480377,-0.07757988572120667,-0.12522737681865692
1733230360447051500,0.667051513671875,0.025045474991202354,-0.08918632566928864,-0.12889257073402405
1733230360457083100,0.677083251953125,0.02015855349600315,-0.09529497474431992,-0.13561208546161652
1733230360467071000,0.687071044921875,0.016493361443281174,-0.0959058403968811,-0.14538592100143433
1733230360477072100,0.697072021484375,0.02015855349600315,-0.08124507963657379,-0.1472185254096985
1733230360487060000,0.70706005859375,0.02321287989616394,-0.06291911751031876,-0.13500121235847473
1733230360497091800,0.717091796875,0.02932153269648552,-0.04703662544488907,-0.11056660860776901
1733230360507049000,0.727049072265625,0.04459316283464432,-0.031154127791523933,-0.05803219974040985
1733230360517080800,0.737080810546875,0.05253441259264946,-0.03237585723400116,-0.030543262138962746
1733230360527068700,0.747068603515625,0.056810468435287476,-0.04703662544488907,-0.02076941914856434
1733230360537100000,0.75710009765625,0.05864306539297104,-0.059864792972803116,-0.025045474991202354
1733230360547057700,0.7670576171875,0.060475658625364304,-0.06658431142568588,-0.036651913076639175
1733230360557089300,0.77708935546875,0.06230825558304787,-0.0708603709936142,-0.04948008432984352
1733230360567077000,0.7870771484375,0.06902777403593063,-0.06719517707824707,-0.05742133408784866
1733230360577078300,0.797078369140625,0.08796459436416626,-0.054367005825042725,-0.04948008432984352
1733230360587066000,0.807066162109375,0.09773843735456467,-0.05375614017248154,-0.03298672288656235
1733230360597098000,0.817097900390625,0.10445795953273773,-0.05253441259264946,-0.007941247895359993
1733230360607055000,0.82705517578125,0.10995574295520782,-0.048258353024721146,0.018936822190880775
1733230360617087000,0.8370869140625,0.11484266817569733,-0.04886921867728233,0.045204028487205505
1733230360627074800,0.84707470703125,0.11362093687057495,-0.051312681287527084,0.06841690838336945
1733230360637075700,0.85707568359375,0.10567969083786011,-0.06414084881544113,0.0806342139840126
1733230360647063800,0.867063720703125,0.09834930300712585,-0.07880161702632904,0.0861319974064827
1733230360657095400,0.877095458984375,0.1014036312699318,-0.08185594528913498,0.07452555745840073
1733230360667052800,0.887052734375,0.10323622822761536,-0.07452555745840073,0.05619960278272629
1733230360677084400,0.89708447265625,0.09285151958465576,-0.07880161702632904,0.025656340643763542
1733230360687072300,0.907072265625,0.07147123664617538,-0.09834930300712585,-0.014049900695681572
1733230360697073700,0.91707373046875,0.039706241339445114,-0.12828169763088226,-0.06108652427792549
1733230360707061200,0.927061279296875,0.00855211354792118,-0.15760323405265808,-0.10751228034496307
1733230360717093000,0.937093017578125,-0.02076941914856434,-0.16798794269561768,-0.1417207419872284
1733230360727050200,0.94705029296875,-0.04703662544488907,-0.1362229436635971,-0.15027284622192383
1733230360737081900,0.957081787109375,-0.05253441259264946,-0.08979719132184982,-0.13011430203914642
1733230360747070000,0.967070068359375,-0.05619960278272629,-0.039706241339445114,-0.09651670604944229
1733230360757071000,0.977071044921875,-0.059864792972803116,0.010995574295520782,-0.0555887371301651
1733230360767059000,0.987058837890625,-0.06475171446800232,0.05192354694008827,-0.02015855349600315
1733230360777090600,0.997090576171875,-0.07269296050071716,0.06841690838336945,-0.00733038317412138
1733230360787078400,1.007078369140625,-0.08246681094169617,0.06230825558304787,-0.019547687843441963
1733230360797079800,1.017079833984375,-0.08491026610136032,0.05314527451992035,-0.08429940044879913
1733230360807067400,1.0270673828125,-0.07269296050071716,0.0757472887635231,-0.1417207419872284
1733230360817099300,1.037099365234375,-0.05375614017248154,0.1111774742603302,-0.1966986060142517
1733230360827056400,1.047056396484375,-0.029932396486401558,0.14782938361167908,-0.23273965716362
1733230360837088000,1.057087890625,-0.003054326167330146,0.1716531366109848,-0.24068090319633484
1733230360847076000,1.067076171875,0.02687807008624077,0.17287486791610718,-0.22296582162380219
1733230360857077000,1.077076904296875,0.04886921867728233,0.1661553531885147,-0.18814650177955627
1733230360867064800,1.08706494140625,0.06169738993048668,0.16371189057826996,-0.15332718193531036
1733230360877096700,1.0970966796875,0.08246681094169617,0.10445795953273773,-0.1411098688840866
1733230360887053800,1.1070537109375,0.09346238523721695,0.05253441259264946,-0.1612684279680252
1733230360897085400,1.11708544921875,0.1007927656173706,0.009773843921720982,-0.20097467303276062
1733230360907073500,1.127073486328125,0.10323622822761536,-0.039095375686883926,-0.2528982162475586
1733230360917074700,1.13707470703125,0.08491026610136032,-0.09957103431224823,-0.29138273000717163
1733230360927062500,1.1470625,0.0555887371301651,-0.15027284622192383,-0.3139847218990326
1733230360937094000,1.157093994140625,0.02687807008624077,-0.18936823308467865,-0.3084869384765625
1733230360947051500,1.167051513671875,0.013439035043120384,-0.22663100063800812,-0.2541199326515198
1733230360957083100,1.177083251953125,0.012217304669320583,-0.22663100063800812,-0.19975294172763824
1733230360967071200,1.1870712890625,0.00855211354792118,-0.20891591906547546,-0.14233160018920898
1733230360977072400,1.197072265625,0.009773843921720982,-0.16920967400074005,-0.07696902006864548
1733230360987060200,1.207060302734375,0.018325956538319588,-0.10506882518529892,-0.00733038317412138
1733230360997091800,1.217091796875,0.030543262138962746,-0.03481931984424591,0.06719517707824707
1733230361007049200,1.22704931640625,0.03726277872920036,0.024434609338641167,0.13866640627384186
1733230361017080800,1.237080810546875,0.02626720629632473,0.06108652427792549,0.19120082259178162
1733230361027068700,1.247068603515625,-0.01466076634824276,0.06352998316287994,0.22602014243602753
1733230361037100300,1.257100341796875,-0.04703662544488907,0.05009094998240471,0.21807889640331268
1733230361047058000,1.267057861328125,-0.08491026610136032,0.04703662544488907,0.19486601650714874
1733230361057089300,1.27708935546875,-0.11972958594560623,0.05925392732024193,0.1618792861700058
1733230361067077400,1.287077392578125,-0.1466076523065567,0.08307767659425735,0.12522737681865692
1733230361077078500,1.29707861328125,-0.16371189057826996,0.10384709388017654,0.09224065393209457
1733230361087066000,1.307066162109375,-0.1771509200334549,0.12217304855585098,0.06169738993048668
1733230361097098000,1.317097900390625,-0.1869247704744339,0.1368338167667389,0.025045474991202354
1733230361107055000,1.32705517578125,-0.18814650177955627,0.13866640627384186,0.0006108652451075613
1733230361117086200,1.337086181640625,-0.18509216606616974,0.12828169763088226,-0.025656340643763542
1733230361127074300,1.34707421875,-0.1869247704744339,0.10812314599752426,-0.05009094998240471
1733230361137075700,1.35707568359375,-0.18387043476104736,0.09346238523721695,-0.0708603709936142
1733230361147063300,1.367063232421875,-0.17287486791610718,0.08368854224681854,-0.0861319974064827
1733230361157095000,1.377094970703125,-0.16004669666290283,0.07819075137376785,-0.08979719132184982
1733230361167052000,1.387052001953125,-0.1258382350206375,0.09346238523721695,-0.07391469180583954
1733230361177084000,1.397083984375,-0.09896016865968704,0.11911872029304504,-0.04642575979232788
1733230361187071700,1.40707177734375,-0.0708603709936142,0.13988813757896423,-0.01038470957428217
1733230361197073200,1.4170732421875,-0.04764748737215996,0.15515977144241333,0.024434609338641167
1733230361207060700,1.427060791015625,-0.024434609338641167,0.16493362188339233,0.05375614017248154
1733230361217092900,1.4370927734375,0.0006108652451075613,0.16798794269561768,0.08368854224681854
1733230361227050200,1.44705029296875,0.02687807008624077,0.16859880089759827,0.10995574295520782
1733230361237081900,1.457081787109375,0.04764748737215996,0.1722639948129654,0.13011430203914642
1733230361247070000,1.467070068359375,0.056810468435287476,0.17043140530586243,0.14233160018920898
1733230361257070800,1.47707080078125,0.05803219974040985,0.1563815027475357,0.14049901068210602
1733230361267059000,1.487058837890625,0.05192354694008827,0.1264491081237793,0.13255776464939117
1733230361277090300,1.49709033203125,0.05009094998240471,0.0959058403968811,0.12400564551353455
1733230361287078400,1.507078369140625,0.05497787147760391,0.07696902006864548,0.11728613078594208
1733230361297079300,1.517079345703125,0.056810468435287476,0.06169738993048668,0.1111774742603302
1733230361307063600,1.5270634765625,0.04459316283464432,0.033597588539123535,0.09896016865968704
1733230361317095400,1.537095458984375,-0.0012217304902151227,-0.01771509274840355,0.06536258012056351
1733230361327052500,1.547052490234375,-0.03176499158143997,-0.05925392732024193,0.03848451003432274
1733230361337084400,1.55708447265625,-0.04886921867728233,-0.09896016865968704,0.01771509274840355
1733230361347072300,1.567072265625,-0.0507018156349659,-0.10873401165008545,0.010995574295520782
1733230361357073200,1.5770732421875,-0.04703662544488907,-0.09773843735456467,0.013439035043120384
1733230361367061200,1.587061279296875,-0.04337143152952194,-0.05925392732024193,0.029932396486401558
1733230361377092900,1.5970927734375,-0.039706241339445114,-0.0024434609804302454,0.05619960278272629
1733230361387050200,1.60705029296875,-0.054367005825042725,0.04948008432984352,0.10506882518529892
1733230361397081600,1.61708154296875,-0.09224065393209457,0.0403171069920063,0.13866640627384186
1733230361407069700,1.627069580078125,-0.14905111491680145,0,0.16065755486488342
1733230361417071000,1.637071044921875,-0.22052235901355743,-0.059864792972803116,0.15577064454555511
1733230361427058700,1.64705859375,-0.29138273000717163,-0.13255776464939117,0.12339477986097336
1733230361437090800,1.6570908203125,-0.34574973583221436,-0.19914206862449646,0.07024950534105301
1733230361447047700,1.667047607421875,-0.36590829491615295,-0.23518311977386475,0.02076941914856434
1733230361457079600,1.67707958984375,-0.3488040566444397,-0.2217440903186798,0.00427605677396059
1733230361467067400,1.6870673828125,-0.25961771607398987,-0.10812314599752426,0.09773843735456467
1733230361477068500,1.697068603515625,-0.16004669666290283,0.007941247895359993,0.252287358045578
1733230361487056400,1.707056396484375,-0.04642575979232788,0.1215621829032898,0.4612032473087311
1733230361497088000,1.717087890625,0.06108652427792549,0.21013765037059784,0.6829473376274109
1733230361507045000,1.727045166015625,0.15332718193531036,0.2834414839744568,0.8631525635719299
1733230361517076700,1.73707666015625,0.22663100063800812,0.3023782968521118,0.9645562171936035
1733230361527064800,1.74706494140625,0.2791654169559479,0.2919935882091522,0.9761626720428467
1733230361537095400,1.757095458984375,0.31459560990333557,0.21624629199504852,0.8405506014823914
1733230361547053800,1.7670537109375,0.2877175211906433,0.08857546001672745,0.6585127115249634
1733230361557085000,1.7770849609375,0.20402899384498596,-0.02871066704392433,0.455705463886261
1733230361567073500,1.787073486328125,0.09712757170200348,-0.12095131725072861,0.2571742534637451
1733230361577074400,1.797074462890625,-0.0012217304902151227,-0.18081611394882202,0.08979719132184982
1733230361587062300,1.807062255859375,-0.07208210229873657,-0.2070833146572113,-0.031154127791523933
1733230361597094000,1.817093994140625,-0.11178833991289139,-0.19547687470912933,-0.11789698898792267
1733230361607051500,1.827051513671875,-0.13744467496871948,-0.15332718193531036,-0.2174680233001709
1733230361617083100,1.837083251953125,-0.12461651116609573,-0.13377949595451355,-0.2718350291252136
1733230361627071000,1.847071044921875,-0.10323622822761536,-0.11545353382825851,-0.3121521472930908
1733230361637072100,1.857072021484375,-0.08674286305904388,-0.10384709388017654,-0.33719760179519653
1733230361647060000,1.86706005859375,-0.07696902006864548,-0.10323622822761536,-0.3390302062034607
1733230361657091600,1.877091552734375,-0.06780604273080826,-0.10323622822761536,-0.3237585723400116
1733230361667049200,1.88704931640625,-0.04764748737215996,-0.09162978827953339,-0.3017674386501312
1733230361677080600,1.89708056640625,-0.015271631069481373,-0.056810468435287476,-0.2791654169559479
1733230361687068700,1.907068603515625,0.04764748737215996,0.025656340643763542,-0.22052235901355743
1733230361697069600,1.917069580078125,0.08918632566928864,0.0555887371301651,-0.15271630883216858
1733230361707057700,1.9270576171875,0.12828169763088226,0.08185594528913498,-0.06352998316287994
1733230361717089500,1.937089599609375,0.1563815027475357,0.08918632566928864,0.027488935738801956
1733230361727046400,1.94704638671875,0.1667662113904953,0.06414084881544113,0.09529497474431992
1733230361737078000,1.957078125,0.1612684279680252,0.01710422709584236,0.1319468915462494
1733230361747066000,1.967066162109375,0.15760323405265808,-0.031154127791523933,0.13744467496871948
1733230361757067000,1.97706689453125,0.17348572611808777,-0.06230825558304787,0.10445795953273773
1733230361767055000,1.98705517578125,0.19792033731937408,-0.04459316283464432,0.0659734457731247
1733230361777086700,1.997086669921875,0.22113321721553802,-0.00855211354792118,0.018325956538319588
1733230361787074800,2.00707470703125,0.23457226157188416,0.02626720629632473,-0.03298672288656235
1733230361797076000,2.017075927734375,0.23884831368923187,0.04703662544488907,-0.08918632566928864
1733230361807063600,2.0270634765625,0.23396138846874237,0.04337143152952194,-0.14782938361167908
1733230361817095400,2.037095458984375,0.21930062770843506,0.015271631069481373,-0.20463985204696655
1733230361827052500,2.047052490234375,0.16920967400074005,-0.05497787147760391,-0.27550023794174194
1733230361837084400,2.05708447265625,0.12889257073402405,-0.08918632566928864,-0.3017674386501312
1733230361847072300,2.067072265625,0.08979719132184982,-0.09834930300712585,-0.31093040108680725
1733230361857073200,2.0770732421875,0.056810468435287476,-0.09651670604944229,-0.3139847218990326
1733230361867088000,2.087087890625,0.0354301854968071,-0.08979719132184982,-0.30543261766433716
1733230361877092900,2.0970927734375,0.02871066704392433,-0.08368854224681854,-0.2889392673969269
1733230361887050200,2.10705029296875,0.025656340643763542,-0.0806342139840126,-0.26145032048225403
1733230361897081900,2.117081787109375,0.025045474991202354,-0.0757472887635231,-0.22357667982578278
1733230361907069700,2.127069580078125,0.012828170321881771,-0.06230825558304787,-0.16737708449363708
1733230361917070800,2.13707080078125,0.00427605677396059,-0.04214970022439957,-0.1362229436635971
1733230361927058700,2.14705859375,-0.0012217304902151227,-0.018325956538319588,-0.11667526513338089
1733230361937090300,2.15709033203125,-0.0006108652451075613,0.018325956538319588,-0.1160643994808197
1733230361947047700,2.167047607421875,0.0024434609804302454,0.05742133408784866,-0.12889257073402405
1733230361957079300,2.177079345703125,0.009162978269159794,0.07635815441608429,-0.1514945775270462
1733230361967067400,2.1870673828125,0.01710422709584236,0.07819075137376785,-0.18081611394882202
1733230361977068300,2.197068359375,0.02932153269648552,0.06780604273080826,-0.2223549485206604
1733230361987056400,2.207056396484375,0.0354301854968071,0.05497787147760391,-0.24434609711170197
1733230361997088000,2.217087890625,0.05497787147760391,0.04886921867728233,-0.26572638750076294
1733230362007045400,2.22704541015625,0.08185594528913498,0.05925392732024193,-0.2816088795661926
1733230362017077000,2.237076904296875,0.10751228034496307,0.0659734457731247,-0.2828305959701538
1733230362027064800,2.24706494140625,0.1007927656173706,0.09651670604944229,-0.2632829248905182
1733230362037096400,2.257096435546875,0.07269296050071716,0.1417207419872284,-0.22479841113090515
1733230362047053800,2.2670537109375,0.042760565876960754,0.16371189057826996,-0.13866640627384186
1733230362057085400,2.27708544921875,0.03481931984424591,0.17104226350784302,-0.07819075137376785
1733230362067073500,2.287073486328125,0.036041051149368286,0.1716531366109848,-0.025045474991202354
1733230362077074400,2.297074462890625,0.025656340643763542,0.1618792861700058,0.00427605677396059
1733230362087062500,2.3070625,-0.006108652334660292,0.12522737681865692,0.0012217304902151227
1733230362097094100,2.31709423828125,-0.05314527451992035,0.07147123664617538,-0.030543262138962746
1733230362107051500,2.327051513671875,-0.10323622822761536,0.025045474991202354,-0.07819075137376785
1733230362117082400,2.337082275390625,-0.14966198801994324,-0.01710422709584236,-0.1258382350206375
1733230362127070500,2.347070556640625,-0.19853121042251587,-0.04581489413976669,-0.1765400618314743
1733230362137071600,2.357071533203125,-0.21502456068992615,-0.04459316283464432,-0.18448130786418915
1733230362147059500,2.3670595703125,-0.23151792585849762,-0.04153883829712868,-0.18081611394882202
1733230362157091000,2.377091064453125,-0.25961771607398987,-0.042760565876960754,-0.16737708449363708
1733230362167048400,2.38704833984375,-0.2926044464111328,-0.05253441259264946,-0.15027284622192383
1733230362177080300,2.397080322265625,-0.3286454975605011,-0.06963863968849182,-0.13866640627384186
1733230362187068000,2.40706787109375,-0.36590829491615295,-0.09040805697441101,-0.13072516024112701
1733230362197069300,2.4170693359375,-0.4086688458919525,-0.14233160018920898,-0.1362229436635971
1733230362207057000,2.427056884765625,-0.42760565876960754,-0.1722639948129654,-0.15027284622192383
1733230362217089300,2.43708935546875,-0.4288274049758911,-0.19792033731937408,-0.17409659922122955
1733230362227046400,2.44704638671875,-0.4092797040939331,-0.21563543379306793,-0.19425514340400696
1733230362237078500,2.45707861328125,-0.37690386176109314,-0.22357667982578278,-0.1966986060142517
1733230362247066000,2.467066162109375,-0.3341432809829712,-0.22052235901355743,-0.16798794269561768
1733230362257067300,2.4770673828125,-0.2767219543457031,-0.21502456068992615,-0.10018189996480942
1733230362267055000,2.48705517578125,-0.16371189057826996,-0.2015855312347412,0.07269296050071716
1733230362277086700,2.497086669921875,-0.1014036312699318,-0.2015855312347412,0.20036379992961884
1733230362287074600,2.507074462890625,-0.06902777403593063,-0.21624629199504852,0.3072652220726013
1733230362297075700,2.51707568359375,-0.06108652427792549,-0.24129177629947662,0.37629300355911255
1733230362307063600,2.5270634765625,-0.06230825558304787,-0.27122417092323303,0.394008070230484
1733230362317095400,2.537095458984375,-0.06719517707824707,-0.3066543638706207,0.3604104816913605
1733230362327052500,2.547052490234375,-0.07452555745840073,-0.34574973583221436,0.2883284091949463
1733230362337084400,2.55708447265625,-0.09285151958465576,-0.38728857040405273,0.18631389737129211
1733230362347072300,2.567072265625,-0.12950342893600464,-0.4434881806373596,-0.006719517521560192
1733230362357073200,2.5770732421875,-0.1459967941045761,-0.45692721009254456,-0.12400564551353455
1733230362367061200,2.587061279296875,-0.14233160018920898,-0.4300491213798523,-0.2070833146572113
1733230362377092900,2.5970927734375,-0.11667526513338089,-0.37262779474258423,-0.23640485107898712
1733230362387050200,2.60705029296875,-0.07024950534105301,-0.2926044464111328,-0.18936823308467865
1733230362397081900,2.617081787109375,-0.007941247895359993,-0.20097467303276062,-0.05803219974040985
1733230362407069700,2.627069580078125,0.05803219974040985,-0.10262536257505417,0.15332718193531036
1733230362417070800,2.63707080078125,0.14355333149433136,0.05742133408784866,0.5369505286216736
1733230362427058700,2.64705859375,0.182648703455925,0.13561208546161652,0.7721336483955383
1733230362437090300,2.65709033203125,0.21319197118282318,0.19364428520202637,0.9547823667526245
1733230362447047700,2.667047607421875,0.23457226157188416,0.23273965716362,1.0610729455947876
1733230362457079300,2.677079345703125,0.25595253705978394,0.24495697021484375,1.0910053253173828
1733230362467067400,2.6870673828125,0.26511552929878235,0.24129177629947662,1.053742527961731
1733230362477068300,2.697068359375,0.24495697021484375,0.23029619455337524,0.9566149711608887
1733230362487056100,2.70705615234375,0.16920967400074005,0.21135938167572021,0.7073819637298584
1733230362497086700,2.717086669921875,0.08307767659425735,0.1973094791173935,0.46792277693748474
1733230362507045400,2.72704541015625,-0.021991148591041565,0.15943582355976105,0.1722639948129654
1733230362517075700,2.73707568359375,-0.1472185254096985,0.08124507963657379,-0.16371189057826996
1733230362527064800,2.74706494140625,-0.2926044464111328,-0.031154127791523933,-0.5155702829360962
1733230362537095400,2.757095458984375,-0.43188172578811646,-0.1459967941045761,-0.8411614298820496
1733230362547054000,2.76705419921875,-0.5503895878791809,-0.22296582162380219,-1.1032226085662842
1733230362557085400,2.77708544921875,-0.6261368989944458,-0.25106561183929443,-1.2773191928863525
1733230362567073500,2.787073486328125,-0.616973876953125,-0.20586158335208893,-1.3127493858337402
1733230362577074400,2.797074462890625,-0.5125159621238708,-0.1417207419872284,-1.1746938228607178
1733230362587062500,2.8070625,-0.3488040566444397,-0.024434609338641167,-0.9242390990257263
1733230362597094100,2.81709423828125,-0.152105450630188,0.10751228034496307,-0.6029239892959595
1733230362607051300,2.82705126953125,0.051312681287527084,0.21013765037059784,-0.2535090744495392
1733230362617083400,2.83708349609375,0.2321287989616394,0.2718350291252136,0.07452555745840073
1733230362627071000,2.847071044921875,0.35613444447517395,0.2993239760398865,0.3384193480014801
1733230362637072100,2.857072021484375,0.4538728892803192,0.2822197377681732,0.5479460954666138
1733230362647060000,2.86706005859375,0.48197266459465027,0.26450464129447937,0.5674937963485718
1733230362657091600,2.877091552734375,0.4801400899887085,0.24434609711170197,0.5100724697113037
1733230362667049000,2.887049072265625,0.4404338300228119,0.21441370248794556,0.4031710624694824
1733230362677080600,2.89708056640625,0.3695734739303589,0.17287486791610718,0.27000242471694946
1733230362687068700,2.907068603515625,0.28099802136421204,0.1270599663257599,0.12889257073402405
1733230362697069800,2.91706982421875,0.17837265133857727,0.08674286305904388,-0.004886921960860491
1733230362707057700,2.9270576171875,0.016493361443281174,0.05314527451992035,-0.17409659922122955
1733230362717089000,2.937089111328125,-0.07941248267889023,0.036651913076639175,-0.2638937830924988
1733230362727046700,2.947046630859375,-0.15882496535778046,0.02076941914856434,-0.33475416898727417
1733230362737078000,2.957078125,-0.21930062770843506,0.014049900695681572,-0.39156460762023926
1733230362747066000,2.967066162109375,-0.25595253705978394,0.024434609338641167,-0.43249258399009705
1733230362757067000,2.97706689453125,-0.26939156651496887,0.04337143152952194,-0.4544837474822998
1733230362767055000,2.98705517578125,-0.2620611786842346,0.0659734457731247,-0.45142942667007446
1733230362777086700,2.997086669921875,-0.23579397797584534,0.09224065393209457,-0.4239404797554016
1733230362787074800,3.00707470703125,-0.18081611394882202,0.14233160018920898,-0.34025195240974426
1733230362797075700,3.01707568359375,-0.13316862285137177,0.1765400618314743,-0.25961771607398987
1733230362807063600,3.0270634765625,-0.08368854224681854,0.2076941877603531,-0.1667662113904953
1733230362817095400,3.037095458984375,-0.03848451003432274,0.23640485107898712,-0.07269296050071716
1733230362827052500,3.047052490234375,-0.00427605677396059,0.2565633952617645,0.019547687843441963
1733230362837084400,3.05708447265625,0.02626720629632473,0.26083946228027344,0.10506882518529892
1733230362847072300,3.067072265625,0.05619960278272629,0.25961771607398987,0.1814269721508026
1733230362857073200,3.0770732421875,0.11056660860776901,0.2541199326515198,0.2669481039047241
1733230362867061200,3.087061279296875,0.13988813757896423,0.24190263450145721,0.29565876722335815
1733230362877092900,3.0970927734375,0.16249015927314758,0.2223549485206604,0.3017674386501312
1733230362887050200,3.10705029296875,0.17898350954055786,0.19914206862449646,0.29016098380088806
1733230362897081900,3.117081787109375,0.18875735998153687,0.17287486791610718,0.2620611786842346
1733230362907069700,3.127069580078125,0.18387043476104736,0.14538592100143433,0.21441370248794556
1733230362917070800,3.13707080078125,0.16554448008537292,0.11423180252313614,0.1514945775270462
1733230362927058700,3.14705859375,0.12461651116609573,0.07147123664617538,0.03237585723400116
1733230362937090300,3.15709033203125,0.09834930300712585,0.04764748737215996,-0.05192354694008827
1733230362947047700,3.167047607421875,0.07819075137376785,0.030543262138962746,-0.12889257073402405
1733230362957079300,3.177079345703125,0.07147123664617538,0.02687807008624077,-0.1869247704744339
1733230362967067400,3.1870673828125,0.07819075137376785,0.04581489413976669,-0.21135938167572021
1733230362977068300,3.197068359375,0.09162978827953339,0.08124507963657379,-0.2015855312347412
1733230362987056400,3.207056396484375,0.11301007121801376,0.1111774742603302,-0.15760323405265808
1733230362997087500,3.21708740234375,0.14294247329235077,0.13011430203914642,-0.10018189996480942
1733230363007045400,3.22704541015625,0.18509216606616974,0.1459967941045761,-0.013439035043120384
1733230363017077200,3.2370771484375,0.20586158335208893,0.14782938361167908,0.029932396486401558
1733230363027064800,3.24706494140625,0.22296582162380219,0.1466076523065567,0.051312681287527084
1733230363037097000,3.257096923828125,0.23579397797584534,0.1472185254096985,0.051312681287527084
1733230363047053800,3.2670537109375,0.242513507604599,0.1459967941045761,0.031154127791523933
1733230363057085700,3.277085693359375,0.24068090319633484,0.14477506279945374,0.003054326167330146
1733230363067073500,3.287073486328125,0.23090706765651703,0.13866640627384186,-0.02932153269648552
1733230363077074700,3.29707470703125,0.20891591906547546,0.11850785464048386,-0.06414084881544113
1733230363087062500,3.3070625,0.19425514340400696,0.11056660860776901,-0.060475658625364304
1733230363097094100,3.31709423828125,0.1875356286764145,0.11362093687057495,-0.0354301854968071
1733230363107051500,3.327051513671875,0.18875735998153687,0.1319468915462494,0.01710422709584236
1733230363117082400,3.337082275390625,0.19853121042251587,0.15821409225463867,0.07941248267889023
1733230363127070500,3.347070556640625,0.21441370248794556,0.17898350954055786,0.1411098688840866
1733230363137071600,3.357071533203125,0.2321287989616394,0.17837265133857727,0.17776179313659668
1733230363147059500,3.3670595703125,0.23090706765651703,0.1215621829032898,0.14844025671482086
1733230363157091000,3.377091064453125,0.22540926933288574,0.06230825558304787,0.08002334833145142
1733230363167048400,3.38704833984375,0.21807889640331268,0.01771509274840355,-0.00427605677396059
1733230363177080300,3.397080322265625,0.20891591906547546,-0.004886921960860491,-0.07513642311096191
1733230363187068000,3.40706787109375,0.19425514340400696,-0.01038470957428217,-0.11789698898792267
1733230363197069300,3.4170693359375,0.16554448008537292,-0.019547687843441963,-0.1270599663257599
1733230363207057200,3.42705712890625,0.11423180252313614,-0.0354301854968071,-0.12095131725072861
1733230363217089300,3.43708935546875,0.045204028487205505,-0.07941248267889023,-0.11972958594560623
1733230363227046400,3.44704638671875,-0.09651670604944229,-0.18509216606616974,-0.16798794269561768
1733230363237078000,3.457078125,-0.19914206862449646,-0.2669481039047241,-0.24068090319633484
1733230363247066000,3.467066162109375,-0.2816088795661926,-0.33292156457901,-0.33108896017074585
1733230363257067300,3.4770673828125,-0.31642818450927734,-0.3488040566444397,-0.40133845806121826
1733230363267055000,3.48705517578125,-0.2834414839744568,-0.2926044464111328,-0.4178318381309509
1733230363277086000,3.4970859375,-0.17837265133857727,-0.2076941877603531,-0.3579670190811157
1733230363287074800,3.50707470703125,-0.025045474991202354,-0.11667526513338089,-0.2076941877603531
1733230363297075700,3.51707568359375,0.2223549485206604,-0.012828170321881771,0.15882496535778046
1733230363307063600,3.5270634765625,0.3634648323059082,0.02015855349600315,0.4489859640598297
1733230363317095200,3.53709521484375,0.4807509481906891,0.02382374368607998,0.7348709106445312
1733230363327052500,3.547052490234375,0.5644394755363464,0.03176499158143997,0.9773843884468079
1733230363337084200,3.557084228515625,0.6102544069290161,0.04764748737215996,1.1545352935791016
1733230363347072300,3.567072265625,0.6279694437980652,0.09529497474431992,1.2638801336288452
1733230363357073200,3.5770732421875,0.6126978397369385,0.17837265133857727,1.2986994981765747
1733230363367061200,3.587061279296875,0.5241223573684692,0.34513887763023376,1.224173903465271
1733230363377092900,3.5970927734375,0.423329621553421,0.4398229718208313,1.0903944969177246
1733230363387050200,3.60705029296875,0.29626965522766113,0.50335294008255,0.8869763612747192
1733230363397081900,3.617081787109375,0.14538592100143433,0.5418374538421631,0.6163630485534668
1733230363407069700,3.627069580078125,-0.022602014243602753,0.5308418869972229,0.30604347586631775
1733230363417070800,3.63707080078125,-0.19364428520202637,0.4508185386657715,-0.02015855349600315
1733230363427058700,3.64705859375,-0.3481931984424591,0.32498031854629517,-0.31581732630729675
1733230363437089300,3.65708935546875,-0.44654250144958496,0.16554448008537292,-0.5589417219161987
1733230363447047700,3.667047607421875,-0.44837507605552673,-0.08735372871160507,-0.808174729347229
1733230363457078300,3.677078369140625,-0.35735616087913513,-0.182648703455925,-0.8900306820869446
1733230363467067400,3.6870673828125,-0.2223549485206604,-0.23640485107898712,-0.9077457785606384
1733230363477067000,3.69706689453125,-0.07880161702632904,-0.2968805134296417,-0.8839219808578491
1733230363487056100,3.70705615234375,0.05497787147760391,-0.35613444447517395,-0.8197811841964722
1733230363497088000,3.717087890625,0.17043140530586243,-0.4098905920982361,-0.7195992469787598
1733230363507045400,3.72704541015625,0.26450464129447937,-0.4508185386657715,-0.5937610268592834
1733230363517077000,3.737076904296875,0.34574973583221436,-0.485027015209198,-0.39217549562454224
1733230363527064800,3.74706494140625,0.36224308609962463,-0.48258355259895325,-0.26145032048225403
1733230363537096400,3.757096435546875,0.3628539443016052,-0.4660901725292206,-0.13439035415649414
1733230363547053800,3.7670537109375,0.34697145223617554,-0.4343251883983612,-0.010995574295520782
1733230363557085400,3.77708544921875,0.32009339332580566,-0.3927863538265228,0.10934487730264664
1733230363567073300,3.7870732421875,0.2877175211906433,-0.34147366881370544,0.21380282938480377
1733230363577074400,3.797074462890625,0.2528982162475586,-0.27977627515792847,0.30543261766433716
1733230363587062500,3.8070625,0.19303341209888458,-0.19792033731937408,0.3793473243713379
1733230363597094100,3.81709423828125,0.14844025671482086,-0.16859880089759827,0.37568211555480957
1733230363607051500,3.827051513671875,0.10384709388017654,-0.14905111491680145,0.3280346393585205
1733230363617083100,3.837083251953125,0.05742133408784866,-0.12034045159816742,0.24373523890972137
1733230363627071000,3.847071044921875,0.00366519158706069,-0.09162978827953339,0.13072516024112701
1733230363637072100,3.857072021484375,-0.04398229718208313,-0.07391469180583954,0.0012217304902151227
1733230363647060000,3.86706005859375,-0.07452555745840073,-0.07452555745840073,-0.11789698898792267
1733230363657091600,3.877091552734375,-0.08857546001672745,-0.0861319974064827,-0.20525072515010834
1733230363667049000,3.887049072265625,-0.10201449692249298,-0.08796459436416626,-0.26022860407829285
1733230363677080600,3.89708056640625,-0.11484266817569733,-0.07208210229873657,-0.25106561183929443
1733230363687068700,3.907068603515625,-0.13072516024112701,-0.056810468435287476,-0.20830504596233368
1733230363697069800,3.91706982421875,-0.14355333149433136,-0.048258353024721146,-0.1411098688840866
1733230363707057400,3.927057373046875,-0.15821409225463867,-0.036041051149368286,-0.054367005825042725
1733230363717089500,3.937089599609375,-0.17531833052635193,-0.021380282938480377,0.036651913076639175
1733230363727046400,3.94704638671875,-0.1918116807937622,-0.019547687843441963,0.11728613078594208
1733230363737078500,3.95707861328125,-0.20341812074184418,-0.01710422709584236,0.1966986060142517
1733230363747066000,3.967066162109375,-0.20036379992961884,-0.014049900695681572,0.21563543379306793
1733230363757067300,3.9770673828125,-0.18936823308467865,-0.01771509274840355,0.20341812074184418
1733230363767055000,3.98705517578125,-0.1667662113904953,-0.024434609338641167,0.1722639948129654
1733230363777086700,3.997086669921875,-0.14049901068210602,-0.02321287989616394,0.1319468915462494
1733230363787074600,4.007074462890625,-0.11728613078594208,-0.015882495790719986,0.09285151958465576
1733230363797076000,4.017075927734375,-0.10506882518529892,-0.00427605677396059,0.06475171446800232
1733230363807063600,4.0270634765625,-0.10690141469240189,0.021380282938480377,0.04948008432984352
1733230363817095400,4.037095458984375,-0.12278391420841217,0.03420845419168472,0.05619960278272629
1733230363827052500,4.047052490234375,-0.15027284622192383,0.042760565876960754,0.0708603709936142
1733230363837084700,4.057084716796875,-0.1869247704744339,0.04153883829712868,0.07757988572120667
1733230363847072300,4.067072265625,-0.22113321721553802,0.028099801391363144,0.07269296050071716
1733230363857073400,4.077073486328125,-0.2474004179239273,0.00733038317412138,0.05864306539297104
1733230363867085800,4.0870859375,-0.2669481039047241,-0.013439035043120384,0.03298672288656235
1733230363877093000,4.097093017578125,-0.2742784917354584,-0.03298672288656235,-0.0006108652451075613
1733230363887050200,4.10705029296875,-0.2742784917354584,-0.04764748737215996,-0.04948008432984352
1733230363897082000,4.11708203125,-0.2730567753314972,-0.05375614017248154,-0.07269296050071716
1733230363907069700,4.127069580078125,-0.2681698501110077,-0.05925392732024193,-0.07696902006864548
1733230363917071000,4.137071044921875,-0.2590068578720093,-0.05497787147760391,-0.06902777403593063
1733230363927058700,4.14705859375,-0.25045475363731384,-0.039095375686883926,-0.05192354694008827
1733230363937090600,4.157090576171875,-0.2474004179239273,-0.021991148591041565,-0.033597588539123535
1733230363947047700,4.167047607421875,-0.2528982162475586,-0.013439035043120384,-0.013439035043120384
1733230363957079600,4.17707958984375,-0.2590068578720093,-0.00733038317412138,0.013439035043120384
1733230363967067400,4.1870673828125,-0.2577851414680481,0,0.028099801391363144
1733230363977068500,4.197068603515625,-0.25045475363731384,0.006719517521560192,0.03726277872920036
1733230363987056400,4.207056396484375,-0.23457226157188416,0.02076941914856434,0.04886921867728233
1733230363997088000,4.217087890625,-0.21441370248794556,0.029932396486401558,0.05803219974040985
1733230364007045400,4.22704541015625,-0.19486601650714874,0.016493361443281174,0.06536258012056351
1733230364017077000,4.237076904296875,-0.17531833052635193,-0.015882495790719986,0.06475171446800232
1733230364027064800,4.24706494140625,-0.15943582355976105,-0.09712757170200348,0.05253441259264946
1733230364037097000,4.257096923828125,-0.12461651116609573,-0.14538592100143433,0.045204028487205505
1733230364047053800,4.2670537109375,-0.08368854224681854,-0.1612684279680252,0.04764748737215996
1733230364057085400,4.27708544921875,-0.04092797264456749,-0.15515977144241333,0.06963863968849182
1733230364067073500,4.287073486328125,-0.0012217304902151227,-0.12095131725072861,0.10934487730264664
1733230364077074400,4.297074462890625,0.02932153269648552,-0.07269296050071716,0.16249015927314758
1733230364087062500,4.3070625,0.05009094998240471,-0.03420845419168472,0.21135938167572021
1733230364097094000,4.317093994140625,0.06291911751031876,-0.0012217304902151227,0.24678955972194672
1733230364107051500,4.327051513671875,0.08674286305904388,0.039706241339445114,0.26145032048225403
1733230364117082000,4.33708203125,0.09407325088977814,0.06536258012056351,0.23640485107898712
1733230364127070500,4.347070556640625,0.0910189226269722,0.07880161702632904,0.18997909128665924
1733230364137071600,4.357071533203125,0.08429940044879913,0.05864306539297104,0.11911872029304504
1733230364147059500,4.3670595703125,0.07880161702632904,0.0006108652451075613,0.02932153269648552
1733230364157091000,4.377091064453125,0.08491026610136032,-0.056810468435287476,-0.06841690838336945
1733230364167048400,4.38704833984375,0.0959058403968811,-0.07941248267889023,-0.15943582355976105
1733230364177080300,4.397080322265625,0.11484266817569733,-0.04886921867728233,-0.24862214922904968
1733230364187068000,4.40706787109375,0.1270599663257599,-0.01038470957428217,-0.25961771607398987
1733230364197069000,4.417069091796875,0.14233160018920898,0.036041051149368286,-0.2223549485206604
1733230364207057200,4.42705712890625,0.16310101747512817,0.08246681094169617,-0.13377949595451355
1733230364217089300,4.43708935546875,0.17592918872833252,0.12889257073402405,-0.016493361443281174
1733230364227046700,4.447046630859375,0.182648703455925,0.16493362188339233,0.10690141469240189
1733230364237078500,4.45707861328125,0.182648703455925,0.17043140530586243,0.20952677726745605
1733230364247066000,4.467066162109375,0.17409659922122955,0.1508837193250656,0.2791654169559479
1733230364257067000,4.47706689453125,0.14538592100143433,0.11545353382825851,0.313373863697052
1733230364267055000,4.48705517578125,0.11667526513338089,0.09773843735456467,0.2981022298336029
1733230364277086700,4.497086669921875,0.08857546001672745,0.08307767659425735,0.26145032048225403
1733230364287074600,4.507074462890625,0.06536258012056351,0.06536258012056351,0.21624629199504852
1733230364297075700,4.51707568359375,0.04948008432984352,0.04948008432984352,0.17409659922122955
1733230364307063600,4.5270634765625,0.03481931984424591,0.04459316283464432,0.14049901068210602
1733230364317095400,4.537095458984375,0.01771509274840355,0.04886921867728233,0.1215621829032898
1733230364327052500,4.547052490234375,-0.007941247895359993,0.04886921867728233,0.10445795953273773
1733230364337084000,4.557083984375,-0.033597588539123535,0.02687807008624077,0.08002334833145142
1733230364347072300,4.567072265625,-0.06902777403593063,-0.01771509274840355,0.03176499158143997
1733230364357072100,4.577072021484375,-0.10751228034496307,-0.0757472887635231,-0.039095375686883926
1733230364367061200,4.587061279296875,-0.14049901068210602,-0.12950342893600464,-0.12339477986097336
1733230364377092900,4.5970927734375,-0.16554448008537292,-0.1722639948129654,-0.21135938167572021
1733230364387050200,4.60705029296875,-0.182648703455925,-0.20402899384498596,-0.28527405858039856
1733230364397081900,4.617081787109375,-0.19425514340400696,-0.2015855312347412,-0.3604104816913605
1733230364407069700,4.627069580078125,-0.18814650177955627,-0.1869247704744339,-0.3878994286060333
1733230364417070800,4.63707080078125,-0.16432274878025055,-0.16798794269561768,-0.3982841372489929
1733230364427058700,4.64705859375,-0.12950342893600464,-0.14049901068210602,-0.3952298164367676
1733230364437090300,4.65709033203125,-0.08979719132184982,-0.11545353382825851,-0.3732386529445648
1733230364447047700,4.667047607421875,-0.045204028487205505,-0.09162978827953339,-0.3292563557624817
1733230364457079300,4.677079345703125,-0.00855211354792118,-0.06475171446800232,-0.2681698501110077
1733230364467067400,4.6870673828125,0.010995574295520782,-0.029932396486401558,-0.2028072625398636
1733230364477068300,4.697068359375,0.01038470957428217,0.022602014243602753,-0.11239920556545258
1733230364487056400,4.707056396484375,-0.004886921960860491,0.033597588539123535,-0.06536258012056351
1733230364497088000,4.717087890625,-0.02687807008624077,0.02871066704392433,-0.025045474991202354
1733230364507045400,4.72704541015625,-0.051312681287527084,0.024434609338641167,0.012217304669320583
1733230364517077200,4.7370771484375,-0.07513642311096191,0.02871066704392433,0.05375614017248154
1733230364527064800,4.74706494140625,-0.09407325088977814,0.0403171069920063,0.08491026610136032
1733230364537096400,4.757096435546875,-0.10873401165008545,0.04642575979232788,0.10323622822761536
1733230364547053800,4.7670537109375,-0.1313360333442688,0.031154127791523933,0.0861319974064827
1733230364557085400,4.77708544921875,-0.1514945775270462,0.021991148591041565,0.042760565876960754
1733230364567073300,4.7870732421875,-0.17287486791610718,0.018325956538319588,-0.021380282938480377
1733230364577074700,4.79707470703125,-0.19975294172763824,0.021380282938480377,-0.09712757170200348
1733230364587062500,4.8070625,-0.22846360504627228,0.031154127791523933,-0.17470745742321014
1733230364597094100,4.81709423828125,-0.2535090744495392,0.045204028487205505,-0.24495697021484375
1733230364607051500,4.827051513671875,-0.2736676335334778,0.05375614017248154,-0.30543261766433716
1733230364617083100,4.837083251953125,-0.2981022298336029,0.04642575979232788,-0.35613444447517395
1733230364627071000,4.847071044921875,-0.30482175946235657,0.030543262138962746,-0.35552358627319336
1733230364637072100,4.857072021484375,-0.3017674386501312,0.015271631069481373,-0.323147714138031
1733230364647060000,4.86706005859375,-0.29016098380088806,0.006719517521560192,-0.27122417092323303
1733230364657091800,4.877091796875,-0.2632829248905182,0.014049900695681572,-0.2119702398777008
1733230364667049000,4.887049072265625,-0.21807889640331268,0.03481931984424591,-0.14782938361167908
1733230364677080800,4.897080810546875,-0.1612684279680252,0.06169738993048668,-0.08735372871160507
1733230364687068700,4.907068603515625,-0.10323622822761536,0.08918632566928864,-0.03237585723400116
1733230364697069800,4.91706982421875,-0.03481931984424591,0.10445795953273773,0.02626720629632473
1733230364707057700,4.9270576171875,-0.014049900695681572,0.09651670604944229,0.036041051149368286
1733230364717089300,4.93708935546875,0.0012217304902151227,0.0708603709936142,0.02382374368607998
1733230364727046400,4.94704638671875,0.005497787147760391,0.030543262138962746,0.0006108652451075613
1733230364737078300,4.957078369140625,0,-0.007941247895359993,-0.018936822190880775
1733230364747066000,4.967066162109375,-0.005497787147760391,-0.05375614017248154,-0.02382374368607998
1733230364757067000,4.97706689453125,0.0024434609804302454,-0.10018189996480942,-0.012828170321881771
1733230364767055000,4.98705517578125,0.04214970022439957,-0.14416420459747314,0.012828170321881771
1733230364777086700,4.997086669921875,0.08918632566928864,-0.152105450630188,0.014049900695681572
1733230364787074600,5.007074462890625,0.13744467496871948,-0.14233160018920898,0.00427605677396059
1733230364797075700,5.01707568359375,0.17959438264369965,-0.11911872029304504,-0.009162978269159794
1733230364807063600,5.0270634765625,0.2070833146572113,-0.08368854224681854,-0.016493361443281174
1733230364817095200,5.03709521484375,0.20586158335208893,-0.03298672288656235,-0.02626720629632473
1733230364827052500,5.047052490234375,0.1765400618314743,0.021991148591041565,-0.04337143152952194
1733230364837084700,5.057084716796875,0.10201449692249298,0.054367005825042725,-0.08918632566928864
1733230364847072300,5.067072265625,0.03237585723400116,0.014049900695681572,-0.11972958594560623
1733230364857073200,5.0770732421875,-0.045204028487205505,-0.060475658625364304,-0.14233160018920898
1733230364867061200,5.087061279296875,-0.10995574295520782,-0.12767083942890167,-0.14477506279945374
1733230364877092900,5.0970927734375,-0.152105450630188,-0.16310101747512817,-0.1264491081237793
1733230364887050200,5.10705029296875,-0.15271630883216858,-0.13988813757896423,-0.08368854224681854
1733230364897082000,5.11708203125,-0.1007927656173706,-0.06780604273080826,-0.014049900695681572
1733230364907069700,5.127069580078125,-0.007941247895359993,0.04153883829712868,0.08552113175392151
1733230364917070800,5.13707080078125,0.14966198801994324,0.2278527319431305,0.25534167885780334
1733230364927058700,5.14705859375,0.2376265823841095,0.34758231043815613,0.3481931984424591
1733230364937090300,5.15709033203125,0.2840523421764374,0.43799036741256714,0.40194934606552124
1733230364947047700,5.167047607421875,0.28099802136421204,0.504574716091156,0.4050036668777466
1733230364957079300,5.177079345703125,0.23090706765651703,0.543059229850769,0.3701843321323395
1733230364967067400,5.1870673828125,0.14844025671482086,0.5253441333770752,0.2974913716316223
1733230364977068500,5.197068603515625,0.042760565876960754,0.4453207552433014,0.19303341209888458
1733230364987056400,5.207056396484375,-0.12034045159816742,0.24434609711170197,0.00733038317412138
1733230364997088000,5.217087890625,-0.2321287989616394,0.06169738993048668,-0.13377949595451355
1733230365007045400,5.22704541015625,-0.33475416898727417,-0.1007927656173706,-0.2718350291252136
1733230365017077200,5.2370771484375,-0.42210787534713745,-0.18387043476104736,-0.36590829491615295
1733230365027064800,5.24706494140625,-0.46303585171699524,-0.2028072625398636,-0.3549126982688904
1733230365037096700,5.2570966796875,-0.4190535545349121,-0.18325957655906677,-0.20586158335208893
1733230365047053800,5.2670537109375,-0.29138273000717163,-0.14294247329235077,0.08002334833145142
1733230365057085700,5.277085693359375,-0.02871066704392433,-0.031154127791523933,0.6487388610839844
1733230365067073500,5.287073486328125,0.14294247329235077,0.031154127791523933,1.009149432182312
1733230365077074400,5.297074462890625,0.2687807083129883,0.05742133408784866,1.2919800281524658
1733230365087062500,5.3070625,0.3549126982688904,0.06536258012056351,1.4666874408721924
1733230365097094100,5.31709423828125,0.4294382631778717,0.05864306539297104,1.522887110710144
1733230365107051500,5.327051513671875,0.49357911944389343,0.08979719132184982,1.4770721197128296
1733230365117082000,5.33708203125,0.5357288122177124,0.16920967400074005,1.3542882204055786
1733230365127070500,5.347070556640625,0.5448917746543884,0.2779437005519867,1.1691961288452148
1733230365137070800,5.35707080078125,0.48808133602142334,0.39706242084503174,0.8539896011352539
1733230365147059500,5.3670595703125,0.40256020426750183,0.42088615894317627,0.6481280326843262
1733230365157090300,5.37709033203125,0.30054569244384766,0.40072759985923767,0.45631635189056396
1733230365167048400,5.38704833984375,0.20525072515010834,0.3481931984424591,0.2773328125476837
1733230365177080300,5.397080322265625,0.1160643994808197,0.2840523421764374,0.10018189996480942
1733230365187068000,5.40706787109375,0.042760565876960754,0.21563543379306793,-0.08857546001672745
1733230365197069000,5.417069091796875,-0.006108652334660292,0.13377949595451355,-0.2987131178379059
1733230365207057200,5.42705712890625,-0.04337143152952194,0.029932396486401558,-0.6194173693656921
1733230365217089300,5.43708935546875,-0.09957103431224823,-0.02932153269648552,-0.7959573864936829
1733230365227046400,5.44704638671875,-0.18936823308467865,-0.1007927656173706,-0.9150761365890503
1733230365237078300,5.457078369140625,-0.2834414839744568,-0.20525072515010834,-0.9651671051979065
1733230365247066000,5.467066162109375,-0.3274237811565399,-0.2675589919090271,-0.959669291973114
1733230365257067000,5.47706689453125,-0.29993483424186707,-0.26145032048225403,-0.8778133392333984
1733230365267055000,5.48705517578125,-0.1973094791173935,-0.2730567753314972,-0.7324274182319641
1733230365277086700,5.497086669921875,0.00427605677396059,-0.304210901260376,-0.4660901725292206
1733230365287074800,5.50707470703125,0.10995574295520782,-0.31031954288482666,-0.2926044464111328
1733230365297075700,5.51707568359375,0.17776179313659668,-0.304210901260376,-0.14538592100143433
1733230365307063600,5.5270634765625,0.22052235901355743,-0.2828305959701538,-0.039095375686883926
1733230365317095400,5.537095458984375,0.2480112910270691,-0.2565633952617645,0.03237585723400116
1733230365327052500,5.547052490234375,0.25961771607398987,-0.21807889640331268,0.07880161702632904
1733230365337084400,5.55708447265625,0.2577851414680481,-0.16920967400074005,0.09957103431224823
1733230365347072300,5.567072265625,0.23396138846874237,-0.1258382350206375,0.0910189226269722
1733230365357073200,5.5770732421875,0.1569923609495163,-0.08368854224681854,0.04642575979232788
1733230365367061200,5.587061279296875,0.09285151958465576,-0.056810468435287476,0.01466076634824276
1733230365377092900,5.5970927734375,0.03176499158143997,-0.036041051149368286,-0.012828170321881771
1733230365387050200,5.60705029296875,-0.02687807008624077,-0.02932153269648552,-0.03787364438176155
1733230365397081600,5.61708154296875,-0.07696902006864548,-0.03787364438176155,-0.06108652427792549
1733230365407069700,5.627069580078125,-0.11362093687057495,-0.05314527451992035,-0.08796459436416626
1733230365417071000,5.637071044921875,-0.13927727937698364,-0.06414084881544113,-0.11484266817569733
1733230365427058700,5.64705859375,-0.1667662113904953,-0.06352998316287994,-0.15271630883216858
1733230365437090600,5.657090576171875,-0.1814269721508026,-0.060475658625364304,-0.17287486791610718
1733230365447047700,5.667047607421875,-0.1869247704744339,-0.05864306539297104,-0.1820378452539444
1733230365457079800,5.677079833984375,-0.1869247704744339,-0.04948008432984352,-0.17776179313659668
1733230365467067400,5.6870673828125,-0.17959438264369965,-0.04337143152952194,-0.16493362188339233
1733230365477068500,5.697068603515625,-0.1618792861700058,-0.03176499158143997,-0.14477506279945374
1733230365487056400,5.707056396484375,-0.1313360333442688,-0.01038470957428217,-0.11911872029304504
1733230365497088000,5.717087890625,-0.06352998316287994,0.03420845419168472,-0.06963863968849182
1733230365507045400,5.72704541015625,-0.014049900695681572,0.06536258012056351,-0.03481931984424591
1733230365517077000,5.737076904296875,0.027488935738801956,0.08491026610136032,-0.00366519158706069
1733230365527064800,5.74706494140625,0.05192354694008827,0.09224065393209457,0.01466076634824276
1733230365537096400,5.757096435546875,0.0555887371301651,0.08429940044879913,0.018936822190880775
1733230365547053800,5.7670537109375,0.045204028487205505,0.07147123664617538,0.01160643994808197
1733230365557085400,5.77708544921875,0.028099801391363144,0.05803219974040985,-0.012828170321881771
1733230365567073500,5.787073486328125,0.00733038317412138,0.05864306539297104,-0.042760565876960754
1733230365577074700,5.79707470703125,-0.022602014243602753,0.08002334833145142,-0.07024950534105301
1733230365587062500,5.8070625,-0.04214970022439957,0.07819075137376785,-0.06719517707824707
1733230365597094100,5.81709423828125,-0.06291911751031876,0.06169738993048668,-0.05314527451992035
1733230365607051500,5.827051513671875,-0.08124507963657379,0.042760565876960754,-0.02687807008624077
1733230365617083100,5.837083251953125,-0.09224065393209457,0.030543262138962746,0.003054326167330146
1733230365627071000,5.847071044921875,-0.09468411654233932,0.029932396486401558,0.03420845419168472
1733230365637072100,5.857072021484375,-0.09407325088977814,0.036041051149368286,0.054367005825042725
1733230365647060000,5.86706005859375,-0.08735372871160507,0.04642575979232788,0.0659734457731247
1733230365657091800,5.877091796875,-0.08246681094169617,0.04459316283464432,0.0659734457731247
1733230365667049000,5.887049072265625,-0.08491026610136032,0.029932396486401558,0.05864306539297104
1733230365677080800,5.897080810546875,-0.09407325088977814,0.0024434609804302454,0.03726277872920036
1733230365687068700,5.907068603515625,-0.10567969083786011,-0.03237585723400116,0.007941247895359993
1733230365697069600,5.917069580078125,-0.11056660860776901,-0.059864792972803116,-0.019547687843441963
1733230365707057700,5.9270576171875,-0.10567969083786011,-0.06475171446800232,-0.03237585723400116
1733230365717089300,5.93708935546875,-0.07880161702632904,-0.039095375686883926,-0.00427605677396059
1733230365727046400,5.94704638671875,-0.0708603709936142,-0.02382374368607998,0.04092797264456749
1733230365737078500,5.95707861328125,-0.07513642311096191,-0.04948008432984352,0.07941248267889023
1733230365747066000,5.967066162109375,-0.08491026610136032,-0.10812314599752426,0.08918632566928864
1733230365757067000,5.97706689453125,-0.0959058403968811,-0.17287486791610718,0.07208210229873657
1733230365767055000,5.98705517578125,-0.11362093687057495,-0.21868975460529327,0.03481931984424591
1733230365777086700,5.997086669921875,-0.12767083942890167,-0.23090706765651703,-0.0024434609804302454
1733230365787074600,6.007074462890625,-0.13011430203914642,-0.21380282938480377,-0.02687807008624077
1733230365797075700,6.01707568359375,-0.10323622822761536,-0.16065755486488342,-0.01710422709584236
1733230365807063600,6.0270634765625,-0.07696902006864548,-0.12339477986097336,0.015882495790719986
1733230365817095200,6.03709521484375,-0.05742133408784866,-0.1007927656173706,0.051312681287527084
1733230365827052500,6.047052490234375,-0.04886921867728233,-0.09896016865968704,0.07024950534105301
1733230365837084400,6.05708447265625,-0.04886921867728233,-0.12095131725072861,0.06230825558304787
1733230365847072300,6.067072265625,-0.05192354694008827,-0.16310101747512817,0.02076941914856434
1733230365857073200,6.0770732421875,-0.06291911751031876,-0.21013765037059784,-0.04948008432984352
1733230365867088100,6.087088134765625,-0.07269296050071716,-0.25045475363731384,-0.17776179313659668
1733230365877092600,6.097092529296875,-0.060475658625364304,-0.2480112910270691,-0.2474004179239273
1733230365887050200,6.10705029296875,-0.03298672288656235,-0.22663100063800812,-0.2871066629886627
1733230365897082000,6.11708203125,0.006719517521560192,-0.18081611394882202,-0.27061331272125244
1733230365907069700,6.127069580078125,0.06658431142568588,-0.11545353382825851,-0.18936823308467865
1733230365917070800,6.13707080078125,0.13561208546161652,-0.039706241339445114,-0.05497787147760391
1733230365927058700,6.14705859375,0.19608774781227112,0.03481931984424591,0.10323622822761536
1733230365937090600,6.157090576171875,0.24495697021484375,0.10201449692249298,0.30970868468284607
1733230365947047700,6.167047607421875,0.2583959996700287,0.09957103431224823,0.3982841372489929
1733230365957079300,6.177079345703125,0.2669481039047241,0.08857546001672745,0.44654250144958496
1733230365967067400,6.1870673828125,0.2736676335334778,0.09896016865968704,0.46181413531303406
1733230365977068500,6.197068603515625,0.2742784917354584,0.11545353382825851,0.45753806829452515
1733230365987056400,6.207056396484375,0.2675589919090271,0.1313360333442688,0.44654250144958496
1733230365997088000,6.217087890625,0.2541199326515198,0.14355333149433136,0.4337143301963806
1733230366007045400,6.22704541015625,0.2272418737411499,0.15271630883216858,0.4239404797554016
1733230366017075700,6.23707568359375,0.152105450630188,0.14416420459747314,0.394618958234787
1733230366027064800,6.24706494140625,0.0757472887635231,0.12339477986097336,0.34636059403419495
1733230366037095400,6.257095458984375,-0.016493361443281174,0.08735372871160507,0.25534167885780334
1733230366047053800,6.2670537109375,-0.11423180252313614,0.030543262138962746,0.11911872029304504
1733230366057084700,6.277084716796875,-0.20952677726745605,-0.03176499158143997,-0.048258353024721146
1733230366067073500,6.287073486328125,-0.2919935882091522,-0.09896016865968704,-0.23029619455337524
1733230366077073700,6.29707373046875,-0.36102136969566345,-0.16982053220272064,-0.4080579876899719
1733230366087062500,6.3070625,-0.44715335965156555,-0.27122417092323303,-0.6517932415008545
1733230366097092900,6.3170927734375,-0.4789183437824249,-0.34147366881370544,-0.7910705208778381
1733230366107051500,6.327051513671875,-0.48685958981513977,-0.3842342495918274,-0.9028588533401489
1733230366117082000,6.33708203125,-0.455705463886261,-0.3628539443016052,-0.960280179977417
1733230366127070500,6.347070556640625,-0.3836233615875244,-0.29077184200286865,-0.9480628371238708
1733230366137071600,6.357071533203125,-0.28466320037841797,-0.20525072515010834,-0.8692612648010254
1733230366147059500,6.3670595703125,-0.17531833052635193,-0.11301007121801376,-0.7281513810157776
1733230366157091000,6.377091064453125,-0.025656340643763542,0.01466076634824276,-0.43249258399009705
1733230366167048400,6.38704833984375,0.05253441259264946,0.09773843735456467,-0.20525072515010834
1733230366177080000,6.397080078125,0.1111774742603302,0.15882496535778046,0.001832595793530345
1733230366187068000,6.40706787109375,0.1612684279680252,0.18631389737129211,0.15760323405265808
1733230366197069000,6.417069091796875,0.20463985204696655,0.18875735998153687,0.26022860407829285
1733230366207057200,6.42705712890625,0.23335053026676178,0.18814650177955627,0.3139847218990326
1733230366217089300,6.43708935546875,0.2376265823841095,0.1966986060142517,0.3292563557624817
1733230366227046400,6.44704638671875,0.22052235901355743,0.1973094791173935,0.31093040108680725
1733230366237078300,6.457078369140625,0.16432274878025055,0.18509216606616974,0.23090706765651703
1733230366247066000,6.467066162109375,0.10567969083786011,0.16310101747512817,0.14844025671482086
1733230366257066500,6.47706640625,0.02932153269648552,0.1258382350206375,0.045204028487205505
1733230366267055000,6.48705517578125,-0.06108652427792549,0.07513642311096191,-0.07269296050071716
1733230366277086700,6.497086669921875,-0.15515977144241333,0.025656340643763542,-0.2021963894367218
1733230366287074800,6.50707470703125,-0.2321287989616394,-0.009162978269159794,-0.32681289315223694
1733230366297075700,6.51707568359375,-0.27611109614372253,-0.013439035043120384,-0.43127086758613586
1733230366307063600,6.5270634765625,-0.2816088795661926,0.01466076634824276,-0.5015203952789307
1733230366317095400,6.537095458984375,-0.25961771607398987,0.02871066704392433,-0.485027015209198
1733230366327052500,6.547052490234375,-0.2272418737411499,0.02932153269648552,-0.423329621553421
1733230366337084200,6.557084228515625,-0.18570303916931152,0.01710422709584236,-0.33475416898727417
1733230366347072300,6.567072265625,-0.13988813757896423,0.006108652334660292,-0.23457226157188416
1733230366357073200,6.5770732421875,-0.10018189996480942,0.0024434609804302454,-0.1466076523065567
1733230366367061200,6.587061279296875,-0.06780604273080826,0.0012217304902151227,-0.07819075137376785
1733230366377092900,6.5970927734375,-0.03848451003432274,0.012828170321881771,-0.027488935738801956
1733230366387050200,6.60705029296875,-0.02687807008624077,0.033597588539123535,-0.006108652334660292
1733230366397082000,6.61708203125,-0.012217304669320583,0.06352998316287994,0.015271631069481373
1733230366407069700,6.627069580078125,0.00366519158706069,0.09407325088977814,0.04153883829712868
1733230366417070800,6.63707080078125,0.021380282938480377,0.11239920556545258,0.0708603709936142
1733230366427058700,6.64705859375,0.036041051149368286,0.11484266817569733,0.09712757170200348
1733230366437090600,6.657090576171875,0.051312681287527084,0.11056660860776901,0.11423180252313614
1733230366447047700,6.667047607421875,0.06108652427792549,0.10018189996480942,0.12339477986097336
1733230366457079300,6.677079345703125,0.08002334833145142,0.08918632566928864,0.12278391420841217
1733230366467067400,6.6870673828125,0.08796459436416626,0.08552113175392151,0.11911872029304504
1733230366477068300,6.697068359375,0.09162978827953339,0.07880161702632904,0.11362093687057495
1733230366487056400,6.707056396484375,0.09040805697441101,0.06841690838336945,0.10812314599752426
1733230366497088000,6.717087890625,0.08735372871160507,0.054367005825042725,0.1007927656173706
1733230366507045400,6.72704541015625,0.07880161702632904,0.03726277872920036,0.09040805697441101
1733230366517077000,6.737076904296875,0.0708603709936142,0.014049900695681572,0.07147123664617538
1733230366527064800,6.74706494140625,0.06352998316287994,-0.007941247895359993,0.03237585723400116
1733230366537096400,6.757096435546875,0.06108652427792549,-0.015271631069481373,0.00733038317412138
1733230366547053800,6.7670537109375,0.06291911751031876,-0.016493361443281174,-0.010995574295520782
1733230366557085400,6.77708544921875,0.07024950534105301,-0.007941247895359993,-0.021380282938480377
1733230366567073500,6.787073486328125,0.09285151958465576,0.014049900695681572,-0.00427605677396059
1733230366577074700,6.79707470703125,0.12034045159816742,0.051312681287527084,0.04642575979232788
1733230366587062500,6.8070625,0.14477506279945374,0.09957103431224823,0.13011430203914642
1733230366597094000,6.817093994140625,0.1820378452539444,0.1875356286764145,0.2981022298336029
1733230366607051500,6.827051513671875,0.21991148591041565,0.24129177629947662,0.41722095012664795
1733230366617083100,6.837083251953125,0.2583959996700287,0.2883284091949463,0.5216789245605469
1733230366627071000,6.847071044921875,0.2919935882091522,0.34147366881370544,0.6041457056999207
1733230366637072100,6.857072021484375,0.32498031854629517,0.4043927788734436,0.6591235995292664
1733230366647060000,6.86706005859375,0.35552358627319336,0.4502076804637909,0.6786713004112244
1733230366657091600,6.877091552734375,0.37140607833862305,0.4648684561252594,0.6505714654922485
1733230366667049000,6.887049072265625,0.3646865487098694,0.4434881806373596,0.5760459303855896
1733230366677080600,6.89708056640625,0.2981022298336029,0.3995058834552765,0.41111230850219727
1733230366687068700,6.907068603515625,0.22052235901355743,0.3439171314239502,0.28649580478668213
1733230366697069600,6.917069580078125,0.12095131725072861,0.2541199326515198,0.16798794269561768
1733230366707057700,6.9270576171875,0.00733038317412138,0.14049901068210602,0.06291911751031876
1733230366717089300,6.93708935546875,-0.11423180252313614,0.015271631069481373,-0.02076941914856434
1733230366727046400,6.94704638671875,-0.23945917189121246,-0.08979719132184982,-0.08491026610136032
1733230366737078500,6.95707861328125,-0.3445279896259308,-0.15027284622192383,-0.12828169763088226
1733230366747066000,6.967066162109375,-0.41172316670417786,-0.13988813757896423,-0.08429940044879913
1733230366757067300,6.9770673828125,-0.37751471996307373,-0.09285151958465576,0.039095375686883926
1733230366767055000,6.98705517578125,-0.2773328125476837,-0.0507018156349659,0.22968533635139465
1733230366777086700,6.997086669921875,-0.1160643994808197,-0.02382374368607998,0.4447098970413208
1733230366787074800,7.00707470703125,0.07696902006864548,-0.0024434609804302454,0.6304129362106323
1733230366797075700,7.01707568359375,0.25534167885780334,0.005497787147760391,0.7544185519218445
1733230366807063600,7.0270634765625,0.3995058834552765,-0.0012217304902151227,0.8100073337554932
1733230366817095200,7.03709521484375,0.5259549617767334,0.012828170321881771,0.7825183868408203
1733230366827052500,7.047052490234375,0.5485569834709167,0.03787364438176155,0.7244861721992493
1733230366837084400,7.05708447265625,0.5302310585975647,0.0959058403968811,0.665232241153717
1733230366847072300,7.067072265625,0.4801400899887085,0.1459967941045761,0.5998696684837341
1733230366857073200,7.0770732421875,0.40683624148368835,0.16859880089759827,0.5412266254425049
1733230366867061200,7.087061279296875,0.31520646810531616,0.15577064454555511,0.48685958981513977
1733230366877092900,7.0970927734375,0.21013765037059784,0.12461651116609573,0.4300491213798523
1733230366887050200,7.10705029296875,0.09468411654233932,0.08491026610136032,0.35246923565864563
1733230366897081900,7.117081787109375,-0.08185594528913498,0.05925392732024193,0.192422553896904
1733230366907069700,7.127069580078125,-0.20463985204696655,0.01710422709584236,0.042760565876960754
1733230366917071000,7.137071044921875,-0.3188716471195221,-0.056810468435287476,-0.13866640627384186
1733230366927058700,7.14705859375,-0.4105014503002167,-0.14966198801994324,-0.3274237811565399
1733230366937090600,7.157090576171875,-0.47219884395599365,-0.23640485107898712,-0.5027421116828918
1733230366947047700,7.167047607421875,-0.5070181488990784,-0.3078760802745819,-0.6536257863044739
1733230366957079300,7.177079345703125,-0.5002986192703247,-0.3646865487098694,-0.7641924023628235
1733230366967067400,7.1870673828125,-0.39095374941825867,-0.3982841372489929,-0.8307767510414124
1733230366977068500,7.197068603515625,-0.26145032048225403,-0.3836233615875244,-0.8014551997184753
1733230366987056400,7.207056396484375,-0.10384709388017654,-0.34758231043815613,-0.7098253965377808
1733230366997088000,7.217087890625,0.054367005825042725,-0.2981022298336029,-0.5619960427284241
1733230367007045400,7.22704541015625,0.1918116807937622,-0.24862214922904968,-0.3793473243713379
1733230367017077000,7.237076904296875,0.30482175946235657,-0.18081611394882202,-0.18875735998153687
1733230367027064800,7.24706494140625,0.3933972120285034,-0.09712757170200348,-0.006108652334660292
1733230367037097000,7.257096923828125,0.4593706727027893,0.025045474991202354,0.18814650177955627
1733230367047054000,7.26705419921875,0.4715879559516907,0.05314527451992035,0.24495697021484375
1733230367057085700,7.277085693359375,0.45753806829452515,0.03787364438176155,0.2431243658065796
1733230367067073500,7.287073486328125,0.4141666293144226,0.009162978269159794,0.18814650177955627
1733230367077074000,7.297073974609375,0.35063666105270386,-0.018325956538319588,0.09346238523721695
1733230367087062500,7.3070625,0.28038713335990906,-0.04581489413976669,-0.03176499158143997
1733230367097093600,7.31709375,0.21074850857257843,-0.08918632566928864,-0.17409659922122955
1733230367107051500,7.327051513671875,0.15760323405265808,-0.13500121235847473,-0.3072652220726013
1733230367117081600,7.33708154296875,0.10384709388017654,-0.16065755486488342,-0.4453207552433014
1733230367127070500,7.347070556640625,0.08307767659425735,-0.1514945775270462,-0.49357911944389343
1733230367137071900,7.35707177734375,0.06352998316287994,-0.152105450630188,-0.5186246037483215
1733230367147059500,7.3670595703125,0.04764748737215996,-0.1459967941045761,-0.5100724697113037
1733230367157091000,7.377091064453125,0.0354301854968071,-0.1313360333442688,-0.47708576917648315
1733230367167048400,7.38704833984375,0.029932396486401558,-0.10934487730264664,-0.4202753007411957
1733230367177080300,7.397080322265625,0.02687807008624077,-0.08674286305904388,-0.34758231043815613
1733230367187068000,7.40706787109375,0.01710422709584236,-0.051312681287527084,-0.23640485107898712
1733230367197069000,7.417069091796875,-0.0006108652451075613,-0.0354301854968071,-0.16859880089759827
1733230367207057200,7.42705712890625,-0.02871066704392433,-0.02871066704392433,-0.1111774742603302
1733230367217089300,7.43708935546875,-0.06230825558304787,-0.021380282938480377,-0.06291911751031876
1733230367227046400,7.44704638671875,-0.09162978827953339,-0.019547687843441963,-0.02076941914856434
1733230367237078300,7.457078369140625,-0.11789698898792267,-0.02687807008624077,0.01771509274840355
1733230367247066000,7.467066162109375,-0.1362229436635971,-0.03237585723400116,0.0555887371301651
1733230367257067500,7.477067626953125,-0.14966198801994324,-0.03481931984424591,0.09040805697441101
1733230367267055000,7.48705517578125,-0.1563815027475357,-0.042760565876960754,0.13011430203914642
1733230367277086700,7.497086669921875,-0.15332718193531036,-0.04459316283464432,0.15027284622192383
1733230367287074800,7.50707470703125,-0.14416420459747314,-0.0403171069920063,0.16859880089759827
1733230367297075700,7.51707568359375,-0.13561208546161652,-0.0354301854968071,0.18387043476104736
1733230367307063600,7.5270634765625,-0.12889257073402405,-0.0354301854968071,0.18875735998153687
1733230367317095400,7.537095458984375,-0.12889257073402405,-0.0555887371301651,0.18081611394882202
1733230367327052500,7.547052490234375,-0.14294247329235077,-0.09346238523721695,0.1569923609495163
1733230367337084400,7.55708447265625,-0.18081611394882202,-0.16920967400074005,0.07147123664617538
1733230367347072300,7.567072265625,-0.21380282938480377,-0.2070833146572113,-0.00855211354792118
1733230367357073200,7.5770732421875,-0.24434609711170197,-0.23151792585849762,-0.08674286305904388
1733230367367061200,7.587061279296875,-0.27000242471694946,-0.23273965716362,-0.1411098688840866
1733230367377093000,7.597093017578125,-0.2932153046131134,-0.23029619455337524,-0.1661553531885147
1733230367387050200,7.60705029296875,-0.3139847218990326,-0.22602014243602753,-0.15760323405265808
1733230367397082000,7.61708203125,-0.32498031854629517,-0.21013765037059784,-0.12400564551353455
1733230367407069700,7.627069580078125,-0.3176499307155609,-0.18387043476104736,-0.0507018156349659
1733230367417071000,7.637071044921875,-0.30054569244384766,-0.16920967400074005,0.005497787147760391
1733230367427058700,7.64705859375,-0.28099802136421204,-0.16554448008537292,0.051312681287527084
1733230367437090600,7.657090576171875,-0.2571742534637451,-0.1820378452539444,0.07635815441608429
1733230367447047700,7.667047607421875,-0.22968533635139465,-0.20891591906547546,0.07696902006864548
1733230367457079600,7.67707958984375,-0.19975294172763824,-0.23335053026676178,0.0507018156349659
1733230367467067400,7.6870673828125,-0.1716531366109848,-0.24373523890972137,0.012217304669320583
1733230367477068500,7.697068603515625,-0.14355333149433136,-0.23396138846874237,-0.029932396486401558
1733230367487056400,7.707056396484375,-0.1160643994808197,-0.19364428520202637,-0.07819075137376785
1733230367497088000,7.717087890625,-0.10384709388017654,-0.1661553531885147,-0.09162978827953339
1733230367507045400,7.72704541015625,-0.0959058403968811,-0.14844025671482086,-0.09407325088977814
1733230367516960300,7.736960205078125,-0.0861319974064827,-0.13988813757896423,-0.09651670604944229
1733230367526948000,7.746947998046875,-0.07513642311096191,-0.1563815027475357,-0.10873401165008545
1733230367536979700,7.756979736328125,-0.07330382615327835,-0.19914206862449646,-0.12889257073402405
1733230367546937000,7.76693701171875,-0.06902777403593063,-0.2480112910270691,-0.15027284622192383
1733230367556968700,7.77696875,-0.05497787147760391,-0.2828305959701538,-0.15943582355976105
1733230367566956800,7.786956787109375,-0.03420845419168472,-0.24373523890972137,-0.11178833991289139
1733230367576958000,7.7969580078125,0,-0.16004669666290283,0.009162978269159794
1733230367586945800,7.80694580078125,0.04153883829712868,-0.04764748737215996,0.2070833146572113
1733230367596977400,7.816977294921875,0.07880161702632904,0.07330382615327835,0.4489859640598297
1733230367606934800,7.826934814453125,0.12461651116609573,0.15393804013729095,0.6768386960029602
1733230367616966400,7.83696630859375,0.16982053220272064,0.18570303916931152,0.8570439219474792
1733230367626954200,7.846954345703125,0.20830504596233368,0.23396138846874237,1.0042624473571777
1733230367636955600,7.85695556640625,0.21563543379306793,0.2577851414680481,1.0103710889816284
1733230367646943200,7.866943115234375,0.2070833146572113,0.26939156651496887,0.9419541954994202
1733230367656973600,7.8769736328125,0.1869247704744339,0.26511552929878235,0.8063421249389648
1733230367666932200,7.88693212890625,0.1508837193250656,0.23335053026676178,0.6212499737739563
1733230367676962600,7.896962646484375,0.09896016865968704,0.19058994948863983,0.4031710624694824
1733230367686952000,7.906951904296875,0.027488935738801956,0.14416420459747314,0.16859880089759827
1733230367696951600,7.91695166015625,-0.06291911751031876,0.08918632566928864,-0.06230825558304787
1733230367706941000,7.92694091796875,-0.20463985204696655,-0.004886921960860491,-0.3445279896259308
1733230367716971300,7.93697119140625,-0.28527405858039856,-0.06658431142568588,-0.46364670991897583
1733230367726929700,7.9469296875,-0.3488040566444397,-0.11362093687057495,-0.5290092825889587
1733230367736960000,7.9569599609375,-0.39217549562454224,-0.152105450630188,-0.5546656250953674
1733230367746949400,7.966949462890625,-0.4092797040939331,-0.16982053220272064,-0.5497786998748779
1733230367756950500,7.976950439453125,-0.3988949954509735,-0.1618792861700058,-0.5198463201522827
1733230367766938400,7.9869384765625,-0.35735616087913513,-0.12461651116609573,-0.4697553813457489
1733230367776970000,7.996969970703125,-0.252287358045578,-0.02382374368607998,-0.3628539443016052
1733230367786958000,8.0069580078125,-0.15577064454555511,0.05375614017248154,-0.2724458873271942
1733230367796959000,8.016958984375,-0.05864306539297104,0.11362093687057495,-0.1716531366109848
1733230367806946800,8.02694677734375,0.022602014243602753,0.1472185254096985,-0.07452555745840073
1733230367816978700,8.036978759765624,0.06963863968849182,0.15393804013729095,-0.0024434609804302454
1733230367826936000,8.04693603515625,0.09346238523721695,0.13255776464939117,0.02626720629632473
1733230367836967700,8.0569677734375,0.11301007121801376,0.10751228034496307,0.016493361443281174
1733230367846955500,8.06695556640625,0.13377949595451355,0.08307767659425735,-0.05375614017248154
1733230367856956700,8.076956787109374,0.13072516024112701,0.07208210229873657,-0.11850785464048386
1733230367866972700,8.08697265625,0.12339477986097336,0.05803219974040985,-0.1765400618314743
1733230367876976000,8.09697607421875,0.1111774742603302,0.0507018156349659,-0.21135938167572021
1733230367886933500,8.10693359375,0.09773843735456467,0.059864792972803116,-0.21930062770843506
1733230367896965000,8.116965087890625,0.08368854224681854,0.06902777403593063,-0.2015855312347412
1733230367906953200,8.126953125,0.0659734457731247,0.0708603709936142,-0.17043140530586243
1733230367916954000,8.1369541015625,0.04642575979232788,0.06780604273080826,-0.13561208546161652
1733230367926942000,8.14694189453125,0.012828170321881771,0.054367005825042725,-0.1062905490398407
1733230367936973800,8.156973876953124,-0.021380282938480377,0.04459316283464432,-0.11056660860776901
1733230367946931000,8.166930908203126,-0.05864306539297104,0.04214970022439957,-0.13988813757896423
1733230367956962800,8.176962890625,-0.09651670604944229,0.048258353024721146,-0.17837265133857727
1733230367966950700,8.18695068359375,-0.12339477986097336,0.06352998316287994,-0.2125810980796814
1733230367976951600,8.19695166015625,-0.13927727937698364,0.08307767659425735,-0.22968533635139465
1733230367986939600,8.206939697265625,-0.14416420459747314,0.10751228034496307,-0.22418753802776337
1733230367996971300,8.21697119140625,-0.12767083942890167,0.13927727937698364,-0.17531833052635193
1733230368006928600,8.2269287109375,-0.10445795953273773,0.14844025671482086,-0.12461651116609573
1733230368016960500,8.23696044921875,-0.08185594528913498,0.14966198801994324,-0.07696902006864548
1733230368026948000,8.246947998046876,-0.05925392732024193,0.14294247329235077,-0.03848451003432274
1733230368036980000,8.25697998046875,-0.04459316283464432,0.12217304855585098,-0.018936822190880775
1733230368046937000,8.26693701171875,-0.03481931984424591,0.10384709388017654,-0.019547687843441963
1733230368056969200,8.27696923828125,-0.03176499158143997,0.0861319974064827,-0.0354301854968071
1733230368066956800,8.286956787109375,-0.021991148591041565,0.0757472887635231,-0.06108652427792549
1733230368076958000,8.2969580078125,-0.009162978269159794,0.08552113175392151,-0.05925392732024193
1733230368086945800,8.30694580078125,0.007941247895359993,0.10323622822761536,-0.036651913076639175
1733230368096977400,8.316977294921875,0.021380282938480377,0.12339477986097336,-0.00366519158706069
1733230368106935000,8.32693505859375,0.03481931984424591,0.13805554807186127,0.033597588539123535
1733230368116965400,8.33696533203125,0.04398229718208313,0.14538592100143433,0.07024950534105301
1733230368126953700,8.34695361328125,0.04764748737215996,0.13500121235847473,0.09468411654233932
1733230368136955000,8.356954833984375,0.04642575979232788,0.12217304855585098,0.09407325088977814
1733230368146942700,8.366942626953126,0.03848451003432274,0.0910189226269722,0.03726277872920036
1733230368156974300,8.376974365234375,0.033597588539123535,0.07147123664617538,-0.025045474991202354
1733230368166932000,8.386931884765625,0.02871066704392433,0.054367005825042725,-0.08491026610136032
1733230368176963300,8.39696337890625,0.02687807008624077,0.030543262138962746,-0.12522737681865692
1733230368186951400,8.406951416015625,0.033597588539123535,0.010995574295520782,-0.14844025671482086
1733230368196952600,8.41695263671875,0.04764748737215996,0.001832595793530345,-0.15271630883216858
1733230368206940400,8.4269404296875,0.06536258012056351,-0.001832595793530345,-0.1417207419872284
1733230368216972500,8.43697265625,0.08368854224681854,-0.009162978269159794,-0.10873401165008545
1733230368226929700,8.4469296875,0.09407325088977814,-0.00855211354792118,-0.07513642311096191
1733230368236961500,8.45696142578125,0.10262536257505417,0.014049900695681572,-0.03176499158143997
1733230368246949400,8.466949462890625,0.11362093687057495,0.04948008432984352,0.02382374368607998
1733230368256950500,8.476950439453125,0.1215621829032898,0.09162978827953339,0.09224065393209457
1733230368266938400,8.4869384765625,0.1264491081237793,0.13255776464939117,0.16065755486488342
1733230368276969700,8.4969697265625,0.12095131725072861,0.16554448008537292,0.22418753802776337
1733230368286958000,8.5069580078125,0.08246681094169617,0.182648703455925,0.28038713335990906
1733230368296959000,8.516958984375,0.039706241339445114,0.16798794269561768,0.2828305959701538
1733230368306946800,8.52694677734375,-0.01710422709584236,0.14049901068210602,0.25534167885780334
1733230368316978400,8.536978515625,-0.07147123664617538,0.1062905490398407,0.2021963894367218
1733230368326936000,8.54693603515625,-0.11056660860776901,0.08491026610136032,0.1411098688840866
1733230368336967700,8.5569677734375,-0.12767083942890167,0.07330382615327835,0.09040805697441101
1733230368346955500,8.56695556640625,-0.11911872029304504,0.06414084881544113,0.05742133408784866
1733230368356957000,8.57695703125,-0.08185594528913498,0.05925392732024193,0.04398229718208313
1733230368366944500,8.586944580078125,0.0012217304902151227,0.0708603709936142,0.031154127791523933
1733230368376976100,8.59697607421875,0.06230825558304787,0.09468411654233932,0.021991148591041565
1733230368386933500,8.60693359375,0.10567969083786011,0.12828169763088226,0.01466076634824276
1733230368396965000,8.616965087890625,0.1215621829032898,0.16737708449363708,0.018325956538319588
1733230368406953200,8.626953125,0.11301007121801376,0.19058994948863983,0.029932396486401558
1733230368416954000,8.6369541015625,0.08185594528913498,0.18081611394882202,0.03787364438176155
1733230368426942000,8.64694189453125,0.03237585723400116,0.14294247329235077,0.021991148591041565
1733230368436973800,8.656973876953124,-0.07941248267889023,0.05619960278272629,-0.06780604273080826
1733230368446931000,8.666930908203126,-0.15943582355976105,-0.004886921960860491,-0.17104226350784302
1733230368456963000,8.676963134765625,-0.22357667982578278,-0.03787364438176155,-0.29504790902137756
1733230368466951000,8.686950927734374,-0.251676470041275,-0.004886921960860491,-0.4105014503002167
1733230368476951800,8.696951904296874,-0.22540926933288574,0.05619960278272629,-0.48685958981513977
1733230368486939600,8.706939697265625,-0.1612684279680252,0.11301007121801376,-0.4917465150356293
1733230368496971300,8.71697119140625,-0.07880161702632904,0.1722639948129654,-0.4147774875164032
1733230368506929000,8.726928955078124,0.07819075137376785,0.2571742534637451,-0.1765400618314743
1733230368516960300,8.736960205078125,0.18631389737129211,0.29993483424186707,0.003054326167330146
1733230368526948400,8.7469482421875,0.27061331272125244,0.3139847218990326,0.1563815027475357
1733230368536980000,8.75697998046875,0.33719760179519653,0.29504790902137756,0.2528982162475586
1733230368546937000,8.76693701171875,0.3952298164367676,0.23335053026676178,0.2828305959701538
1733230368556969000,8.776968994140624,0.44287729263305664,0.1563815027475357,0.26450464129447937
1733230368566956800,8.786956787109375,0.46731191873550415,0.08002334833145142,0.2119702398777008
1733230368576958000,8.7969580078125,0.46181413531303406,0.003054326167330146,0.1411098688840866
1733230368586945800,8.80694580078125,0.38606682419776917,-0.1264491081237793,0.02076941914856434
1733230368596977400,8.816977294921875,0.29138273000717163,-0.2015855312347412,-0.04581489413976669
1733230368606934800,8.826934814453125,0.19058994948863983,-0.23640485107898712,-0.08674286305904388
1733230368616966400,8.83696630859375,0.11239920556545258,-0.21930062770843506,-0.08918632566928864
1733230368626954200,8.846954345703125,0.07880161702632904,-0.16004669666290283,-0.05619960278272629
1733230368636955600,8.85695556640625,0.08124507963657379,-0.08002334833145142,0.006108652334660292
1733230368646943200,8.866943115234376,0.11239920556545258,-0.022602014243602753,0.08552113175392151
1733230368656974800,8.876974853515625,0.13377949595451355,0.12400564551353455,0.23151792585849762
1733230368666932200,8.88693212890625,0.12034045159816742,0.15027284622192383,0.2877175211906433
1733230368676963800,8.8969638671875,0.11362093687057495,0.16859880089759827,0.313373863697052
1733230368686951700,8.90695166015625,0.10812314599752426,0.16310101747512817,0.28588494658470154
1733230368696952800,8.916952880859375,0.1007927656173706,0.14049901068210602,0.2119702398777008
1733230368706941000,8.92694091796875,0.08185594528913498,0.11362093687057495,0.08979719132184982
1733230368716972500,8.93697265625,0.04703662544488907,0.07635815441608429,-0.07147123664617538
1733230368726929700,8.9469296875,0,0.015271631069481373,-0.3445279896259308
1733230368736961300,8.956961181640626,-0.00855211354792118,-0.01466076634824276,-0.5064072608947754
1733230368746949400,8.966949462890625,0.014049900695681572,-0.02076941914856434,-0.6255260109901428
1733230368756950500,8.976950439453125,0.06352998316287994,-0.012217304669320583,-0.6701191663742065
1733230368766938400,8.9869384765625,0.12889257073402405,-0.006108652334660292,-0.6383541822433472
1733230368776969700,8.9969697265625,0.1973094791173935,-0.02626720629632473,-0.5442809462547302
1733230368786958000,9.0069580078125,0.26450464129447937,-0.06291911751031876,-0.40622538328170776
1733230368796959200,9.016959228515624,0.32559117674827576,-0.09834930300712585,-0.24984388053417206
1733230368806946800,9.02694677734375,0.3842342495918274,-0.12400564551353455,-0.056810468435287476
1733230368816978700,9.036978759765624,0.3952298164367676,-0.13866640627384186,0.006719517521560192
1733230368826936000,9.04693603515625,0.3927863538265228,-0.14905111491680145,0.012217304669320583
1733230368836968000,9.056968017578125,0.3805690407752991,-0.15454891324043274,-0.02382374368607998
1733230368846955500,9.06695556640625,0.3604104816913605,-0.16737708449363708,-0.08429940044879913
1733230368856956700,9.076956787109374,0.3292563557624817,-0.17348572611808777,-0.14905111491680145
1733230368866944500,9.086944580078125,0.2919935882091522,-0.16982053220272064,-0.2028072625398636
1733230368876976400,9.096976318359374,0.23029619455337524,-0.16737708449363708,-0.25534167885780334
1733230368886933500,9.10693359375,0.182648703455925,-0.1722639948129654,-0.2773328125476837
1733230368896965000,9.116965087890625,0.13561208546161652,-0.17959438264369965,-0.29626965522766113
1733230368906953200,9.126953125,0.08979719132184982,-0.18448130786418915,-0.3090978264808655
1733230368916954000,9.1369541015625,0.04948008432984352,-0.18631389737129211,-0.3188716471195221
1733230368926942000,9.14694189453125,0.02076941914856434,-0.18387043476104736,-0.3139847218990326
1733230368936973000,9.15697314453125,0,-0.17409659922122955,-0.2926044464111328
1733230368946931000,9.166930908203126,-0.025045474991202354,-0.152105450630188,-0.23335053026676178
1733230368956962800,9.176962890625,-0.031154127791523933,-0.12339477986097336,-0.1820378452539444
1733230368966950700,9.18695068359375,-0.027488935738801956,-0.08796459436416626,-0.13255776464939117
1733230368976951600,9.19695166015625,-0.018936822190880775,-0.051312681287527084,-0.09285151958465576
1733230368986939600,9.206939697265625,-0.009773843921720982,-0.021991148591041565,-0.06536258012056351
1733230368996971300,9.21697119140625,-0.004886921960860491,0.001832595793530345,-0.05192354694008827
1733230369006929000,9.226928955078124,-0.0012217304902151227,0.01466076634824276,-0.05253441259264946
1733230369016960500,9.23696044921875,-0.0024434609804302454,0.018325956538319588,-0.06658431142568588
1733230369026948000,9.246947998046876,-0.012828170321881771,0.01038470957428217,-0.08246681094169617
1733230369036980200,9.256980224609375,-0.02687807008624077,0.00427605677396059,-0.08735372871160507
1733230369046937300,9.266937255859375,-0.05009094998240471,-0.01160643994808197,-0.0861319974064827
1733230369056969200,9.27696923828125,-0.07635815441608429,-0.036041051149368286,-0.08246681094169617
1733230369066956800,9.286956787109375,-0.10018189996480942,-0.06291911751031876,-0.07513642311096191
1733230369076958200,9.296958251953125,-0.10995574295520782,-0.07819075137376785,-0.06475171446800232
1733230369086945800,9.30694580078125,-0.11056660860776901,-0.0861319974064827,-0.05314527451992035
1733230369096977700,9.316977783203125,-0.0861319974064827,-0.08429940044879913,-0.03481931984424591
1733230369106934800,9.326934814453125,-0.060475658625364304,-0.07269296050071716,-0.02015855349600315
1733230369116965400,9.33696533203125,-0.036041051149368286,-0.0659734457731247,-0.004886921960860491
1733230369126953700,9.34695361328125,-0.016493361443281174,-0.07024950534105301,0.005497787147760391
1733230369136955000,9.356954833984375,-0.013439035043120384,-0.08185594528913498,0.004886921960860491
1733230369146942700,9.366942626953126,-0.025045474991202354,-0.09468411654233932,-0.00366519158706069
1733230369156974300,9.376974365234375,-0.048258353024721146,-0.1007927656173706,-0.018936822190880775
1733230369166932000,9.386931884765625,-0.08918632566928864,-0.1111774742603302,-0.033597588539123535
1733230369176963300,9.39696337890625,-0.11178833991289139,-0.1258382350206375,-0.02687807008624077
1733230369186951200,9.406951171875,-0.12767083942890167,-0.1417207419872284,-0.012217304669320583
1733230369196952600,9.41695263671875,-0.1362229436635971,-0.16554448008537292,0.00427605677396059
1733230369206940400,9.4269404296875,-0.13561208546161652,-0.18936823308467865,0.009773843921720982
1733230369216972500,9.43697265625,-0.12889257073402405,-0.2015855312347412,0.013439035043120384
1733230369226929700,9.4469296875,-0.11789698898792267,-0.20097467303276062,0.01466076634824276
1733230369236961500,9.45696142578125,-0.1111774742603302,-0.19120082259178162,0.021380282938480377
1733230369246949400,9.466949462890625,-0.1062905490398407,-0.18325957655906677,0.04948008432984352
1733230369256950500,9.476950439453125,-0.10812314599752426,-0.19303341209888458,0.06902777403593063
1733230369266938400,9.4869384765625,-0.11728613078594208,-0.21013765037059784,0.07635815441608429
1733230369276970000,9.496969970703125,-0.12950342893600464,-0.21991148591041565,0.06658431142568588
1733230369286958000,9.5069580078125,-0.1466076523065567,-0.23273965716362,0.04092797264456749
1733230369296959000,9.516958984375,-0.16065755486488342,-0.23945917189121246,0.01038470957428217
1733230369306946800,9.52694677734375,-0.1765400618314743,-0.24373523890972137,-0.01710422709584236
1733230369316978700,9.536978759765624,-0.18875735998153687,-0.25106561183929443,-0.05375614017248154
1733230369326936000,9.54693603515625,-0.1820378452539444,-0.24862214922904968,-0.06291911751031876
1733230369336967700,9.5569677734375,-0.1667662113904953,-0.23396138846874237,-0.0555887371301651
1733230369346955500,9.56695556640625,-0.13927727937698364,-0.21807889640331268,-0.02687807008624077
1733230369356956700,9.576956787109374,-0.09773843735456467,-0.19486601650714874,0.018325956538319588
1733230369366944500,9.586944580078125,-0.06169738993048668,-0.16371189057826996,0.059864792972803116
1733230369376976100,9.59697607421875,-0.04398229718208313,-0.14233160018920898,0.08368854224681854
1733230369386933500,9.60693359375,-0.03787364438176155,-0.1319468915462494,0.07208210229873657
1733230369396965000,9.616965087890625,-0.04092797264456749,-0.1258382350206375,0.05742133408784866
1733230369406953200,9.626953125,-0.03787364438176155,-0.09285151958465576,0.06780604273080826
1733230369416954000,9.6369541015625,-0.018325956538319588,-0.036041051149368286,0.12522737681865692
1733230369426942000,9.64694189453125,0.01771509274840355,0.021380282938480377,0.23151792585849762
1733230369436973800,9.656973876953124,0.0507018156349659,0.07330382615327835,0.35735616087913513
1733230369446931000,9.666930908203126,0.08491026610136032,0.08857546001672745,0.4715879559516907
1733230369456962600,9.676962646484375,0.11850785464048386,0.12034045159816742,0.5693264007568359
1733230369466950700,9.68695068359375,0.15027284622192383,0.1417207419872284,0.6359107494354248
1733230369476951800,9.696951904296874,0.15821409225463867,0.1362229436635971,0.6298020482063293
1733230369486939600,9.706939697265625,0.15882496535778046,0.13011430203914642,0.5833762884140015
1733230369496971300,9.71697119140625,0.1514945775270462,0.12217304855585098,0.5070181488990784
1733230369506929000,9.726928955078124,0.13744467496871948,0.10506882518529892,0.40683624148368835
1733230369516960300,9.736960205078125,0.12095131725072861,0.08307767659425735,0.2919935882091522
1733230369526948000,9.746947998046876,0.09712757170200348,0.05619960278272629,0.17409659922122955
1733230369536980000,9.75697998046875,0.04948008432984352,0.012828170321881771,0.01160643994808197
1733230369546937000,9.76693701171875,0.01160643994808197,-0.006719517521560192,-0.07819075137376785
1733230369556968400,9.776968505859376,-0.031154127791523933,-0.021991148591041565,-0.14966198801994324
1733230369566956800,9.786956787109375,-0.07513642311096191,-0.029932396486401558,-0.20402899384498596
1733230369576957400,9.79695751953125,-0.11056660860776901,-0.039706241339445114,-0.24556782841682434
1733230369586945800,9.80694580078125,-0.13377949595451355,-0.0507018156349659,-0.2730567753314972
1733230369596975900,9.816975830078125,-0.1514945775270462,-0.0659734457731247,-0.2938261926174164
1733230369606935000,9.82693505859375,-0.16920967400074005,-0.09834930300712585,-0.3335324227809906
1733230369616966400,9.83696630859375,-0.1716531366109848,-0.11545353382825851,-0.36224308609962463
1733230369626954200,9.846954345703125,-0.1765400618314743,-0.1215621829032898,-0.3891211748123169
1733230369636955600,9.85695556640625,-0.17898350954055786,-0.1215621829032898,-0.40744712948799133
1733230369646943200,9.866943115234376,-0.18020524084568024,-0.11911872029304504,-0.4153883755207062
1733230369656974800,9.876974853515625,-0.18081611394882202,-0.1215621829032898,-0.40683624148368835
1733230369666932200,9.88693212890625,-0.17592918872833252,-0.12461651116609573,-0.3793473243713379
1733230369676963800,9.8969638671875,-0.15943582355976105,-0.12034045159816742,-0.33292156457901
1733230369686952000,9.906951904296875,-0.0910189226269722,-0.07269296050071716,-0.21563543379306793
1733230369696952800,9.916952880859375,-0.027488935738801956,-0.0354301854968071,-0.12522737681865692
1733230369706941000,9.92694091796875,0.030543262138962746,-0.006719517521560192,-0.036041051149368286
1733230369716972500,9.93697265625,0.06902777403593063,0.007941247895359993,0.04398229718208313
1733230369726929700,9.9469296875,0.08674286305904388,0.01160643994808197,0.1007927656173706
1733230369736961300,9.956961181640626,0.08918632566928864,0.001832595793530345,0.12889257073402405
1733230369746949400,9.966949462890625,0.07696902006864548,-0.012217304669320583,0.12828169763088226
1733230369756950500,9.976950439453125,0.03848451003432274,-0.03176499158143997,0.09346238523721695
1733230369766938400,9.9869384765625,0.00855211354792118,-0.025045474991202354,0.06780604273080826
1733230369776970000,9.996969970703125,-0.016493361443281174,-0.009162978269159794,0.0555887371301651
1733230369786958000,10.0069580078125,-0.03726277872920036,0.0024434609804302454,0.05619960278272629
1733230369796959200,10.016959228515624,-0.05497787147760391,0.007941247895359993,0.06963863968849182
1733230369806946800,10.02694677734375,-0.06352998316287994,0.014049900695681572,0.08796459436416626
1733230369816978700,10.036978759765624,-0.06536258012056351,0.018936822190880775,0.10995574295520782
1733230369826935800,10.046935791015626,-0.06536258012056351,0.02321287989616394,0.1258382350206375
1733230369836967700,10.0569677734375,-0.06230825558304787,0.027488935738801956,0.1258382350206375
1733230369846955500,10.06695556640625,-0.06291911751031876,0.02871066704392433,0.11239920556545258
1733230369856956400,10.076956298828126,-0.06475171446800232,0.027488935738801956,0.09040805697441101
1733230369866973000,10.086972900390625,-0.06291911751031876,0.028099801391363144,0.06658431142568588
1733230369876976400,10.096976318359374,-0.0507018156349659,0.03237585723400116,0.05192354694008827
1733230369886933500,10.10693359375,-0.036651913076639175,0.03420845419168472,0.05497787147760391
1733230369896965000,10.116965087890625,-0.01771509274840355,0.039706241339445114,0.07330382615327835
1733230369906953200,10.126953125,0.01038470957428217,0.05375614017248154,0.1313360333442688
1733230369916954000,10.1369541015625,0.02871066704392433,0.06841690838336945,0.17104226350784302
1733230369926942000,10.14694189453125,0.04459316283464432,0.08307767659425735,0.19608774781227112
1733230369936973800,10.156973876953124,0.06352998316287994,0.09346238523721695,0.20952677726745605
1733230369946931000,10.166930908203126,0.08124507963657379,0.13377949595451355,0.2174680233001709
1733230369956962800,10.176962890625,0.1014036312699318,0.1618792861700058,0.2174680233001709
1733230369966950700,10.18695068359375,0.11728613078594208,0.1918116807937622,0.21135938167572021
1733230369976951800,10.196951904296874,0.12095131725072861,0.22052235901355743,0.18997909128665924
1733230369986939600,10.206939697265625,0.11178833991289139,0.2272418737411499,0.16737708449363708
1733230369996971300,10.21697119140625,0.09651670604944229,0.22418753802776337,0.1508837193250656
1733230370006929000,10.226928955078124,0.07757988572120667,0.21624629199504852,0.13561208546161652
1733230370016960500,10.23696044921875,0.06230825558304787,0.20891591906547546,0.1258382350206375
1733230370026948000,10.246947998046876,0.060475658625364304,0.20525072515010834,0.12034045159816742
1733230370036979700,10.256979736328125,0.06719517707824707,0.18936823308467865,0.12095131725072861
1733230370046937300,10.266937255859375,0.07513642311096191,0.17043140530586243,0.1258382350206375
1733230370056969000,10.276968994140624,0.0910189226269722,0.16065755486488342,0.13316862285137177
1733230370066956800,10.286956787109375,0.10384709388017654,0.15271630883216858,0.13439035415649414
1733230370076958000,10.2969580078125,0.11178833991289139,0.14844025671482086,0.13561208546161652
1733230370086945800,10.30694580078125,0.11301007121801376,0.14905111491680145,0.1313360333442688
1733230370096977400,10.316977294921875,0.11178833991289139,0.15577064454555511,0.11789698898792267
1733230370106934800,10.326934814453125,0.11056660860776901,0.1514945775270462,0.09468411654233932
1733230370116965400,10.33696533203125,0.10934487730264664,0.13988813757896423,0.06536258012056351
1733230370126953700,10.34695361328125,0.10506882518529892,0.1270599663257599,0.021991148591041565
1733230370136955100,10.356955078125,0.10751228034496307,0.1258382350206375,-0.00366519158706069
1733230370146942700,10.366942626953126,0.11850785464048386,0.13927727937698364,-0.01771509274840355
1733230370156974300,10.376974365234375,0.1319468915462494,0.1508837193250656,-0.0024434609804302454
1733230370166932000,10.386931884765625,0.11484266817569733,0.2217440903186798,0.1270599663257599
1733230370176963600,10.396963623046876,0.07941248267889023,0.1368338167667389,0.24678955972194672
1733230370186951200,10.406951171875,0.07941248267889023,0.08735372871160507,0.2981022298336029
1733230370196952300,10.416952392578125,0.14233160018920898,0.10567969083786011,0.22846360504627228
1733230370206940400,10.4269404296875,0.15760323405265808,0.10567969083786011,0.15882496535778046
1733230370216972500,10.43697265625,0.152105450630188,0.11484266817569733,0.10262536257505417
1733230370226930000,10.446929931640625,0.14538592100143433,0.1215621829032898,0.05009094998240471
1733230370236961800,10.4569619140625,0.1313360333442688,0.11301007121801376,0.009162978269159794
1733230370246949400,10.466949462890625,0.10201449692249298,0.08185594528913498,-0.029932396486401558
1733230370256950800,10.47695068359375,0.06291911751031876,0.04642575979232788,-0.06719517707824707
1733230370266938400,10.4869384765625,0.024434609338641167,0.018325956538319588,-0.10323622822761536
1733230370276970000,10.496969970703125,-0.00366519158706069,-0.012217304669320583,-0.13866640627384186
1733230370286957800,10.506957763671876,-0.003054326167330146,-0.02076941914856434,-0.13255776464939117
1733230370296959000,10.516958984375,0.007941247895359993,-0.018936822190880775,-0.10018189996480942
1733230370306947000,10.526947021484375,0.022602014243602753,-0.00427605677396059,-0.0555887371301651
1733230370316978700,10.536978759765624,0.03420845419168472,0.021991148591041565,0
1733230370326935800,10.546935791015626,0.0403171069920063,0.04581489413976669,0.04337143152952194
1733230370336967400,10.556967529296875,0.04886921867728233,0.06658431142568588,0.054367005825042725
1733230370346955500,10.56695556640625,0.059864792972803116,0.12339477986097336,0.00427605677396059
1733230370356956700,10.576956787109374,0.05803219974040985,0.13988813757896423,-0.05925392732024193
