time,seconds_elapsed,z,y,x
1733230359977008600,0.197008544921875,9.3828763961792,0.871489405632019,-0.2346317619085312
1733230359986988000,0.206988037109375,9.339780807495117,0.7565677165985107,-0.5482721924781799
1733230359996998000,0.216997802734375,9.490615844726562,0.7206547260284424,-0.37828385829925537
1733230360006977000,0.22697705078125,9.603142738342285,0.5937620401382446,-0.2298433631658554
1733230360016987000,0.23698681640625,9.93354320526123,0.5339069962501526,0.004788403399288654
1733230360026996700,0.246996826171875,10.271124839782715,0.47405192255973816,0.09576806426048279
1733230360037006300,0.25700634765625,10.651803016662598,0.33997663855552673,0.13168109953403473
1733230360046985500,0.2669853515625,10.879252433776855,0.2777273952960968,0.15322890877723694
1733230360056995000,0.2769951171875,11.003750801086426,0.3208230137825012,0.14365209639072418
1733230360067005000,0.2870048828125,10.919954299926758,0.40940847992897034,0.07661445438861847
1733230360076984300,0.296984375,10.625467300415039,0.507570743560791,-0.016759412363171577
1733230360086994000,0.306993896484375,10.153809547424316,0.6272808313369751,-0.004788403399288654
1733230360097003800,0.317003662109375,9.765948295593262,0.7757213711738586,-0.05746084079146385
1733230360106983200,0.326983154296875,9.433155059814453,0.9026140570640564,-0.07900865375995636
1733230360116993000,0.336992919921875,9.210494041442871,0.950498104095459,-0.035913024097681046
1733230360127002600,0.347002685546875,9.05247688293457,0.9983820915222168,-0.019153613597154617
1733230360136981800,0.356981689453125,9.016563415527344,1.0103530883789062,-0.05027823522686958
1733230360146991600,0.36699169921875,9.133879661560059,0.9744400978088379,-0.10295066982507706
1733230360157001200,0.377001220703125,9.265560150146484,0.9169792532920837,-0.15322890877723694
1733230360166980600,0.386980712890625,9.47146224975586,0.8092401623725891,-0.12689268589019775
1733230360176990500,0.396990478515625,9.732429504394531,0.7661445140838623,-0.14844051003456116
1733230360187000000,0.407,9.909601211547852,0.706289529800415,-0.19632454216480255
1733230360196979500,0.4169794921875,10.137049674987793,0.5889736413955688,-0.1628057211637497
1733230360206989300,0.4269892578125,10.326191902160645,0.5674257874488831,-0.20350714027881622
1733230360216999000,0.4369990234375,10.340557098388672,0.5817909836769104,-0.31364041566848755
1733230360226978300,0.446978271484375,10.225635528564453,0.5961562395095825,-0.3471592366695404
1733230360236988000,0.45698779296875,10.029311180114746,0.5722141861915588,-0.19393034279346466
1733230360246997800,0.466997802734375,9.832986831665039,0.6703764796257019,-0.2561795711517334
1733230360256977000,0.476976806640625,9.622296333312988,0.7326257228851318,-0.26815059781074524
1733230360266986800,0.48698681640625,9.519346237182617,0.727837324142456,-0.2944868206977844
1733230360276996400,0.496996337890625,9.440337181091309,0.768538773059845,-0.28969839215278625
1733230360287006200,0.507006103515625,9.390059471130371,0.7158663272857666,-0.28730419278144836
1733230360296985600,0.516985595703125,9.509769439697266,0.7206547260284424,-0.2585737705230713
1733230360306995500,0.526995361328125,9.694122314453125,0.7422025203704834,-0.19871874153614044
1733230360317005000,0.537005126953125,9.792284965515137,0.7374141216278076,-0.24181437492370605
1733230360326984400,0.546984375,9.732429504394531,0.7374141216278076,-0.2849099934101105
1733230360336994000,0.556994140625,9.720458984375,0.689530074596405,-0.31124621629714966
1733230360347004000,0.56700390625,9.708487510681152,0.6727706789970398,-0.27054479718208313
1733230360356983000,0.576983154296875,9.720458984375,0.6751648783683777,-0.22266076505184174
1733230360366993000,0.586992919921875,9.660603523254395,0.7182605266571045,-0.1364694982767105
1733230360377002500,0.59700244140625,9.600749015808105,0.7445967197418213,-0.15562310814857483
1733230360386982000,0.60698193359375,9.617507934570312,0.727837324142456,-0.17477671802043915
1733230360396991700,0.61699169921875,9.68933391571045,0.7158663272857666,-0.22266076505184174
1733230360407001300,0.62700146484375,9.720458984375,0.730231523513794,-0.29209262132644653
1733230360416980700,0.636980712890625,9.732429504394531,0.7110779285430908,-0.30885201692581177
1733230360426990600,0.646990478515625,9.78989028930664,0.7158663272857666,-0.2944868206977844
1733230360437000200,0.657000244140625,9.84256362915039,0.7038952708244324,-0.2825157940387726
1733230360446979300,0.666979248046875,9.943120002746582,0.6775590777397156,-0.2992752194404602
1733230360456989200,0.6769892578125,10.014945983886719,0.629675030708313,-0.3232172429561615
1733230360466998800,0.686998779296875,10.08437728881836,0.6033388376235962,-0.35434186458587646
1733230360476978200,0.696978271484375,10.24000072479248,0.5506663918495178,-0.3663128614425659
1733230360486988000,0.706988037109375,10.390835762023926,0.5985504388809204,-0.40222588181495667
1733230360496997600,0.71699755859375,10.409989356994629,0.6655880808830261,-0.4572925269603729
1733230360506977000,0.72697705078125,10.316615104675293,0.7134721279144287,-0.4908113479614258
1733230360516987000,0.73698681640625,10.1753568649292,0.727837324142456,-0.4908113479614258
1733230360526996500,0.74699658203125,10.08437728881836,0.7781155705451965,-0.4836287498474121
1733230360537006300,0.75700634765625,10.012551307678223,0.7757213711738586,-0.47884035110473633
1733230360546985500,0.7669853515625,10.065223693847656,0.7182605266571045,-0.47405192255973816
1733230360556995300,0.776995361328125,10.103530883789062,0.6512228846549988,-0.48602294921875
1733230360567005000,0.7870048828125,10.168174743652344,0.6392518281936646,-0.5410895943641663
1733230360576984300,0.796984375,10.24239444732666,0.6177040338516235,-0.5195417404174805
1733230360586994200,0.806994140625,10.27591323852539,0.5793967843055725,-0.5147533416748047
1733230360597003800,0.817003662109375,10.168174743652344,0.5530605912208557,-0.4908113479614258
1733230360606983200,0.826983154296875,10.072406768798828,0.5195417404174805,-0.4429273009300232
1733230360616993000,0.836992919921875,9.919178009033203,0.49559974670410156,-0.363918662071228
1733230360627002600,0.847002685546875,9.758766174316406,0.4596867263317108,-0.2561795711517334
1733230360636981800,0.856981689453125,9.591172218322754,0.4644751250743866,-0.18914192914962769
1733230360646991600,0.86699169921875,9.433155059814453,0.5195417404174805,-0.22505496442317963
1733230360657001200,0.877001220703125,9.282320022583008,0.5434837937355042,-0.11971008777618408
1733230360666980600,0.886980712890625,9.14585018157959,0.5482721924781799,0.028730420395731926
1733230360676990500,0.896990478515625,9.11233139038086,0.5626373887062073,0.22744916379451752
1733230360687000000,0.907,9.11233139038086,0.5195417404174805,0.40222588181495667
1733230360696979500,0.9169794921875,9.255983352661133,0.44771572947502136,0.5602431893348694
1733230360706989300,0.9269892578125,9.481039047241211,0.36152446269989014,0.6440402865409851
1733230360716999000,0.9369990234375,9.734824180603027,0.272938996553421,0.6224924325942993
1733230360726978300,0.946978271484375,9.940725326538086,0.13168109953403473,0.5937620401382446
1733230360736988000,0.95698779296875,10.007762908935547,0.016759412363171577,0.5937620401382446
1733230360746997800,0.966997802734375,9.971850395202637,-0.023942016065120697,0.629675030708313
1733230360756977200,0.97697705078125,9.835380554199219,0.028730420395731926,0.6200982332229614
1733230360766986800,0.98698681640625,9.543288230895996,0.12928688526153564,0.6320692300796509
1733230360776996400,0.996996337890625,9.301473617553711,0.2106897532939911,0.6057330369949341
1733230360787006200,1.007006103515625,9.071630477905273,0.2968810200691223,0.5123591423034668
1733230360796985600,1.016985595703125,8.951920509338379,0.31842881441116333,0.3423708379268646
1733230360806995200,1.0269951171875,9.042900085449219,0.31364041566848755,0.13407529890537262
1733230360817005000,1.037005126953125,9.337387084960938,0.3256114423274994,0.002394201699644327
1733230360826984400,1.046984375,9.660603523254395,0.363918662071228,-0.1173158809542656
1733230360836994000,1.056994140625,9.981427192687988,0.4596867263317108,-0.21547815203666687
1733230360847004000,1.06700390625,10.122684478759766,0.5482721924781799,-0.23702596127986908
1733230360856983000,1.076983154296875,10.053253173828125,0.646434485912323,-0.18914192914962769
1733230360866993000,1.086992919921875,9.950302124023438,0.7422025203704834,-0.17956513166427612
1733230360877002500,1.09700244140625,9.835380554199219,0.9792284965515137,-0.1364694982767105
1733230360886982000,1.10698193359375,9.761159896850586,1.070208191871643,-0.014365210197865963
1733230360896991700,1.11699169921875,9.773131370544434,1.0630255937576294,0.1149216815829277
1733230360907001300,1.12700146484375,10.093954086303711,1.213860273361206,0.5099649429321289
1733230360916980700,1.136980712890625,10.484209060668945,1.170764684677124,0.7876923680305481
1733230360926990600,1.146990478515625,10.903194427490234,1.0821791887283325,0.871489405632019
1733230360937000200,1.157000244140625,11.188104629516602,1.015141487121582,0.9289502501487732
1733230360946979300,1.166979248046875,11.389217376708984,0.9624691009521484,1.0654197931289673
1733230360956989200,1.1769892578125,11.439496040344238,0.9074024558067322,1.158793568611145
1733230360966998800,1.186998779296875,11.461043357849121,0.9241618514060974,1.2306196689605713
1733230360976978200,1.196978271484375,11.331756591796875,0.9816226959228516,1.1899182796478271
1733230360986988000,1.206988037109375,11.097125053405762,1.0438719987869263,1.161187767982483
1733230360996997600,1.21699755859375,10.78348445892334,1.1013327836990356,1.1827356815338135
1733230361006977000,1.22697705078125,10.359710693359375,1.1468225717544556,1.290474772453308
1733230361016987000,1.23698681640625,9.96945571899414,1.1803414821624756,1.3527239561080933
1733230361026996700,1.246996826171875,9.552865028381348,1.235408067703247,1.3623007535934448
1733230361037006300,1.25700634765625,9.174580574035645,1.2545616626739502,1.359906554222107
1733230361046985500,1.2669853515625,8.935160636901855,1.2449848651885986,1.335964560508728
1733230361056995000,1.2769951171875,8.78193187713623,1.2258312702178955,1.2258312702178955
1733230361067005000,1.2870048828125,8.741230010986328,1.2330138683319092,1.0965443849563599
1733230361076984300,1.296984375,8.746018409729004,1.2306196689605713,1.015141487121582
1733230361086994000,1.306993896484375,8.774748802185059,1.2330138683319092,0.9433154463768005
1733230361097003800,1.317003662109375,8.829815864562988,1.235408067703247,0.8595184087753296
1733230361106983200,1.326983154296875,8.93037223815918,1.2306196689605713,0.7422025203704834
1733230361116993000,1.336992919921875,9.11233139038086,1.2449848651885986,0.7350199222564697
1733230361127002600,1.347002685546875,9.26795482635498,1.1971008777618408,0.6536170840263367
1733230361136981800,1.356981689453125,9.454702377319336,1.1276689767837524,0.5219359993934631
1733230361146991600,1.36699169921875,9.732429504394531,1.0606313943862915,0.4357447028160095
1733230361157001200,1.377001220703125,9.945513725280762,1.0055646896362305,0.36152446269989014
1733230361166980600,1.386980712890625,10.096348762512207,0.950498104095459,0.24660277366638184
1733230361176990500,1.396990478515625,10.204087257385254,0.950498104095459,0.19393034279346466
1733230361187000000,1.407,10.230423927307129,0.9576807022094727,0.10295066982507706
1733230361196979500,1.4169794921875,10.194510459899902,0.9457096457481384,0.05267243832349777
1733230361206989000,1.426989013671875,10.18493366241455,1.0271124839782715,-0.11013327538967133
1733230361216999000,1.4369990234375,10.158597946166992,1.0749965906143188,-0.181959331035614
1733230361226978300,1.446978271484375,10.043676376342773,1.0606313943862915,-0.09576806426048279
1733230361236988000,1.45698779296875,9.926360130310059,1.036689281463623,-0.026336219161748886
1733230361246997800,1.466997802734375,9.876082420349121,1.0773907899856567,-0.09576806426048279
1733230361256977000,1.476976806640625,9.923966407775879,1.094150185585022,-0.002394201699644327
1733230361266986800,1.48698681640625,9.96945571899414,1.1444283723831177,-0.011971008032560349
1733230361276996400,1.496996337890625,10.029311180114746,1.2306196689605713,-0.038307227194309235
1733230361287006200,1.507006103515625,10.091560363769531,1.2689268589019775,0.09576806426048279
1733230361296985600,1.516985595703125,10.165780067443848,1.3192051649093628,0.33518823981285095
1733230361306991600,1.52699169921875,10.223240852355957,1.381454348564148,0.5434837937355042
1733230361317001200,1.537001220703125,10.402806282043457,1.4652514457702637,0.646434485912323
1733230361326980600,1.546980712890625,10.721235275268555,1.5538369417190552,0.629675030708313
1733230361336990200,1.556990234375,10.943896293640137,1.5849615335464478,0.5626373887062073
1733230361347000000,1.567,11.173739433288574,1.4915876388549805,0.569819986820221
1733230361356979200,1.576979248046875,11.425130844116211,1.3431471586227417,0.5722141861915588
1733230361366989000,1.586989013671875,11.690886497497559,1.194706678390503,0.4884171485900879
1733230361376999000,1.5969990234375,11.915942192077637,1.0103530883789062,0.5147533416748047
1733230361386978000,1.60697802734375,12.050017356872559,0.8547300100326538,0.6847416758537292
1733230361396988000,1.61698779296875,12.018892288208008,0.7398083209991455,0.871489405632019
1733230361406997500,1.62699755859375,11.841721534729004,0.5291185975074768,1.1180921792984009
1733230361416977000,1.636976806640625,11.669339179992676,0.2849099934101105,1.2234370708465576
1733230361426986800,1.64698681640625,11.554417610168457,-0.05267243832349777,1.170764684677124
1733230361436996400,1.656996337890625,11.69806957244873,-0.38546648621559143,0.9241618514060974
1733230361446975700,1.666975830078125,11.975796699523926,-0.7565677165985107,0.6871358752250671
1733230361456985600,1.676985595703125,12.224793434143066,-1.0534487962722778,0.4620809257030487
1733230361466995200,1.6869951171875,12.368446350097656,-1.2665326595306396,0.08140286058187485
1733230361476974300,1.696974365234375,12.15057373046875,-1.314416766166687,-0.19871874153614044
1733230361486984200,1.706984130859375,11.561599731445312,-1.1803414821624756,-0.3663128614425659
1733230361496993800,1.716993896484375,10.402806282043457,-0.8571242094039917,-0.6703764796257019
1733230361506973200,1.72697314453125,9.229647636413574,-0.4357447028160095,-0.8834604024887085
1733230361516983000,1.736983154296875,7.960720539093018,0.12449848651885986,-1.0989385843276978
1733230361526992600,1.74699267578125,7.007828235626221,0.4836287498474121,-1.2090718746185303
1733230361537002500,1.75700244140625,6.078877925872803,0.7445967197418213,-1.2210428714752197
1733230361546982000,1.76698193359375,5.726930618286133,1.1085153818130493,-0.7733271718025208
1733230361556991700,1.77699169921875,5.750872611999512,1.1683704853057861,-0.5051765441894531
1733230361567001300,1.78700146484375,6.191405773162842,1.1324573755264282,-0.5961562395095825
1733230361576980500,1.79698046875,6.98628044128418,0.9959878921508789,-0.8236053586006165
1733230361586990300,1.806990234375,7.716512203216553,0.7709329724311829,-1.0223240852355957
1733230361597000000,1.817,8.243236541748047,0.4405331015586853,-1.113303780555725
1733230361606979300,1.826979248046875,8.923190116882324,0.13407529890537262,-1.357512354850769
1733230361616989200,1.8369892578125,9.425971984863281,-0.12210428714752197,-1.4891934394836426
1733230361626998800,1.846998779296875,9.923966407775879,-0.47644615173339844,-1.4460978507995605
1733230361636978200,1.856978271484375,10.316615104675293,-0.730231523513794,-1.359906554222107
1733230361646987800,1.86698779296875,10.642226219177246,-0.9696516990661621,-1.280897855758667
1733230361656997600,1.87699755859375,10.72602367401123,-1.1635819673538208,-1.1851298809051514
1733230361666976800,1.886976806640625,10.742782592773438,-1.2880805730819702,-1.091755986213684
1733230361676986600,1.896986572265625,10.78587818145752,-1.2665326595306396,-1.1013327836990356
1733230361686996200,1.906996337890625,10.805032730102539,-1.1540051698684692,-1.0127472877502441
1733230361696975600,1.9169755859375,10.72602367401123,-0.9409212470054626,-0.9433154463768005
1733230361706985500,1.9269853515625,10.376470565795898,-0.7086837291717529,-0.7709329724311829
1733230361716995000,1.9369951171875,9.8784761428833,-0.4620809257030487,-0.37828385829925537
1733230361726974500,1.946974365234375,9.404424667358398,-0.1628057211637497,-0.12928688526153564
1733230361736984300,1.956984375,8.954314231872559,0.1364694982767105,-0.038307227194309235
1733230361746994000,1.966993896484375,8.688557624816895,0.3902548849582672,-0.043095629662275314
1733230361756973300,1.976973388671875,8.508993148803711,0.6631938815116882,-0.10055647045373917
1733230361766983000,1.98698291015625,8.389283180236816,0.8619126081466675,-0.1173158809542656
1733230361776992500,1.996992431640625,8.367734909057617,0.993593692779541,-0.14844051003456116
1733230361787002400,2.00700244140625,8.389283180236816,1.0678139925003052,-0.15083470940589905
1733230361796981800,2.016981689453125,8.468291282653809,1.072602391242981,-0.1867477297782898
1733230361806991400,2.026991455078125,8.633491516113281,0.993593692779541,-0.18914192914962769
1733230361817001200,2.037001220703125,8.927978515625,0.8834604024887085,-0.08619125932455063
1733230361826980600,2.046980712890625,9.299078941345215,0.751779317855835,-0.08619125932455063
1733230361836990200,2.056990234375,9.57441234588623,0.6488286852836609,-0.07661445438861847
1733230361847000000,2.067,9.830592155456543,0.49799394607543945,-0.06224924325942993
1733230361856979200,2.076979248046875,10.050858497619629,0.43335050344467163,-0.15083470940589905
1733230361866989000,2.086989013671875,10.213664054870605,0.4189853072166443,-0.2322375625371933
1733230361876999000,2.0969990234375,10.402806282043457,0.38546648621559143,-0.2561795711517334
1733230361886978000,2.10697802734375,10.532093048095703,0.3423708379268646,-0.22026655077934265
1733230361896988000,2.11698779296875,10.484209060668945,0.3471592366695404,-0.1364694982767105
1733230361906997500,2.12699755859375,10.311826705932617,0.3878606855869293,-0.05267243832349777
1733230361916977000,2.136976806640625,10.04846477508545,0.47884035110473633,-0.002394201699644327
1733230361926986500,2.146986572265625,9.672574996948242,0.5746083855628967,-0.021547814831137657
1733230361936996400,2.156996337890625,9.370905876159668,0.790086567401886,0.090979665517807
1733230361946975700,2.166975830078125,9.193734169006348,0.9193734526634216,0.002394201699644327
1733230361956985600,2.176985595703125,9.0859956741333,1.039083480834961,-0.05985504388809204
1733230361966995200,2.1869951171875,9.074024200439453,1.0654197931289673,-0.0933738648891449
1733230361976974300,2.196974365234375,9.191340446472168,1.0103530883789062,-0.13407529890537262
1733230361986984200,2.206984130859375,9.366117477416992,0.9050082564353943,-0.21547815203666687
1733230361996993800,2.216993896484375,9.569623947143555,0.7541735172271729,-0.35913026332855225
1733230362006973200,2.22697314453125,9.832986831665039,0.6344634294509888,-0.47644615173339844
1733230362016983000,2.236983154296875,10.165780067443848,0.5770025849342346,-0.17238251864910126
1733230362026993000,2.246992919921875,10.259154319763184,0.3998316824436188,-0.023942016065120697
1733230362037002500,2.25700244140625,10.374075889587402,0.5746083855628967,-0.019153613597154617
1733230362046982000,2.26698193359375,10.342951774597168,0.8403648138046265,-0.10055647045373917
1733230362056991500,2.276991455078125,10.089165687561035,1.0223240852355957,-0.17477671802043915
1733230362067001300,2.28700146484375,9.821015357971191,1.1516109704971313,-0.14365209639072418
1733230362076980500,2.29698046875,9.545681953430176,1.1228805780410767,0.019153613597154617
1733230362086990000,2.306989990234375,9.339780807495117,1.1276689767837524,0.14365209639072418
1733230362097000000,2.317,9.299078941345215,1.094150185585022,0.1149216815829277
1733230362106979300,2.326979248046875,9.411606788635254,1.0821791887283325,0.019153613597154617
1733230362116989200,2.3369892578125,9.600749015808105,1.01753568649292,-0.10295066982507706
1733230362126998800,2.346998779296875,9.876082420349121,0.9648633003234863,-0.2585737705230713
1733230362136978200,2.356978271484375,10.08437728881836,0.9145850539207458,-0.30885201692581177
1733230362146988000,2.366988037109375,10.266336441040039,0.8667010068893433,-0.22505496442317963
1733230362156997600,2.37699755859375,10.374075889587402,0.8379706144332886,-0.1388636976480484
1733230362166977000,2.38697705078125,10.445901870727539,0.8595184087753296,-0.07900865375995636
1733230362176986600,2.396986572265625,10.47702693939209,0.8164227604866028,-0.05746084079146385
1733230362186996200,2.406996337890625,10.548852920532227,0.727837324142456,-0.07900865375995636
1733230362196975600,2.4169755859375,10.572794914245605,0.5267243981361389,-0.10773907601833344
1733230362206985500,2.4269853515625,10.66137981414795,0.3064578175544739,-0.17956513166427612
1733230362216995000,2.4369951171875,10.884040832519531,0.10534487664699554,-0.33758243918418884
1733230362226974500,2.446974365234375,11.195286750793457,-0.07900865375995636,-0.4644751250743866
1733230362236984300,2.456984375,11.619060516357422,-0.1388636976480484,-0.6344634294509888
1733230362246994200,2.466994140625,12.030863761901855,-0.014365210197865963,-0.8451532125473022
1733230362256973000,2.47697314453125,12.310985565185547,0.18914192914962769,-1.0534487962722778
1733230362266983000,2.48698291015625,12.287043571472168,0.3687070608139038,-1.0534487962722778
1733230362276992800,2.49699267578125,12.023680686950684,0.4620809257030487,-0.8738836050033569
1733230362287002400,2.50700244140625,11.544840812683105,0.5770025849342346,-0.7086837291717529
1733230362296981800,2.516981689453125,11.125855445861816,0.6823474764823914,-0.5985504388809204
1733230362306991600,2.52699169921875,10.697293281555176,0.730231523513794,-0.5530605912208557
1733230362317001200,2.537001220703125,10.433931350708008,0.6631938815116882,-0.45250412821769714
1733230362326980600,2.546980712890625,10.220847129821777,0.43095630407333374,-0.2561795711517334
1733230362336990500,2.556990478515625,10.177751541137695,0.05985504388809204,-0.1364694982767105
1733230362347000000,2.567,10.359710693359375,-0.31364041566848755,-0.07900865375995636
1733230362356979200,2.576979248046875,10.663774490356445,-0.6919242739677429,-0.1364694982767105
1733230362366989000,2.586989013671875,11.073183059692383,-1.0678139925003052,-0.21308395266532898
1733230362376999000,2.5969990234375,11.592724800109863,-1.316810965538025,-0.33518823981285095
1733230362386978000,2.60697802734375,11.990161895751953,-1.4293384552001953,-0.40462008118629456
1733230362396988000,2.61698779296875,12.143390655517578,-1.4676456451416016,-0.37828385829925537
1733230362406997500,2.62699755859375,11.808202743530273,-1.4867992401123047,-0.2801215946674347
1733230362416977000,2.636976806640625,11.094730377197266,-1.3646949529647827,-0.10773907601833344
1733230362426986800,2.64698681640625,10.27591323852539,-1.0893617868423462,-0.038307227194309235
1733230362436996400,2.656996337890625,9.102754592895508,-0.7422025203704834,0.07422025501728058
1733230362446975700,2.666975830078125,8.135497093200684,-0.42856210470199585,0.13407529890537262
1733230362456985600,2.676985595703125,7.220912456512451,-0.014365210197865963,0.31842881441116333
1733230362466995200,2.6869951171875,6.531382083892822,0.3064578175544739,0.6200982332229614
1733230362476974600,2.696974609375,5.894524574279785,0.6177040338516235,0.950498104095459
1733230362486984200,2.706984130859375,5.398924827575684,0.8475474119186401,1.3503297567367554
1733230362496993800,2.716993896484375,5.128379821777344,0.9385270476341248,1.6328455209732056
1733230362506973200,2.72697314453125,5.123591423034668,0.811634361743927,1.944091796875
1733230362516983000,2.736983154296875,5.475539207458496,0.40940847992897034,2.209848165512085
1733230362526992600,2.74699267578125,6.368576526641846,-0.1843535304069519,2.4013843536376953
1733230362537002500,2.75700244140625,7.544129371643066,-0.7733271718025208,2.3032219409942627
1733230362546982000,2.76698193359375,9.062053680419922,-1.3766659498214722,1.987187385559082
1733230362556991700,2.77699169921875,10.556035041809082,-1.7190368175506592,1.50355863571167
1733230362567001300,2.78700146484375,12.227188110351562,-1.9321208000183105,0.9457096457481384
1733230362576980500,2.79698046875,13.33809757232666,-1.9057846069335938,0.6033388376235962
1733230362586990000,2.806989990234375,14.051569938659668,-1.7118542194366455,0.42616790533065796
1733230362597000000,2.817,14.161703109741211,-1.357512354850769,0.31124621629714966
1733230362606979300,2.826979248046875,13.682862281799316,-0.9313444495201111,0.36152446269989014
1733230362616989400,2.836989501953125,12.452242851257324,-0.5602431893348694,0.5650315880775452
1733230362626998800,2.846998779296875,11.15697956085205,-0.31124621629714966,0.6607996821403503
1733230362636978200,2.856978271484375,9.804255485534668,0.07661445438861847,0.6272808313369751
1733230362646988000,2.866988037109375,8.815450668334961,0.38067805767059326,0.7182605266571045
1733230362656997600,2.87699755859375,8.056488990783691,0.6967126727104187,0.9193734526634216
1733230362666976800,2.886976806640625,7.630321025848389,0.9026140570640564,1.0342950820922852
1733230362676986600,2.896986572265625,7.376535415649414,1.0079588890075684,1.1420341730117798
1733230362686996200,2.906996337890625,7.376535415649414,1.1300631761550903,1.2018892765045166
1733230362696975600,2.9169755859375,7.508216381072998,1.1851298809051514,1.2617442607879639
1733230362706985500,2.9269853515625,7.793126583099365,1.1324573755264282,1.2306196689605713
1733230362716995000,2.9369951171875,8.147468566894531,1.039083480834961,1.1348515748977661
1733230362726974500,2.946974365234375,8.62630844116211,0.8882488012313843,1.0342950820922852
1733230362736984300,2.956984375,9.081207275390625,0.6847416758537292,0.8738836050033569
1733230362746994000,2.966993896484375,9.624691009521484,0.44532153010368347,0.6991068720817566
1733230362756973300,2.976973388671875,10.15141487121582,0.3016694188117981,0.5171475410461426
1733230362766983000,2.98698291015625,10.596736907958984,0.11971008777618408,0.395043283700943
1733230362776992500,2.996992431640625,10.955866813659668,0.009576806798577309,0.3280056416988373
1733230362787002400,3.00700244140625,11.281478881835938,-0.10055647045373917,0.2322375625371933
1733230362796981800,3.016981689453125,11.473014831542969,-0.17717093229293823,0.15322890877723694
1733230362806991400,3.026991455078125,11.480196952819824,-0.19393034279346466,0.10295066982507706
1733230362817001200,3.037001220703125,11.365275382995605,-0.21547815203666687,0.06703764945268631
1733230362826980600,3.046980712890625,11.192893028259277,-0.16759411990642548,0.019153613597154617
1733230362836990500,3.056990478515625,10.855310440063477,-0.038307227194309235,-0.11971008777618408
1733230362847000000,3.067,10.436325073242188,0.11013327538967133,-0.1628057211637497
1733230362856979200,3.076979248046875,9.952696800231934,0.28730419278144836,-0.12928688526153564
1733230362866989000,3.086989013671875,9.557653427124023,0.47644615173339844,-0.10534487664699554
1733230362876999000,3.0969990234375,9.167398452758789,0.6344634294509888,-0.10534487664699554
1733230362886978000,3.10697802734375,8.920795440673828,0.7589619159698486,-0.08140286058187485
1733230362896987600,3.116987548828125,8.652645111083984,0.871489405632019,0.06703764945268631
1733230362906997500,3.12699755859375,8.437167167663574,0.9265560507774353,0.1628057211637497
1733230362916977000,3.136976806640625,8.324639320373535,0.9433154463768005,0.26096799969673157
1733230362926986800,3.14698681640625,8.336610794067383,0.9457096457481384,0.3423708379268646
1733230362936996400,3.156996337890625,8.458714485168457,0.9050082564353943,0.3423708379268646
1733230362946975700,3.166975830078125,8.7268648147583,0.8307880163192749,0.2322375625371933
1733230362956985600,3.176985595703125,9.097966194152832,0.7709329724311829,0.181959331035614
1733230362966995200,3.1869951171875,9.557653427124023,0.7805097699165344,0.14604631066322327
1733230362976974300,3.196974365234375,9.93354320526123,0.7469909191131592,0.05985504388809204
1733230362986984200,3.206984130859375,10.153809547424316,0.7709329724311829,0.009576806798577309
1733230362996993800,3.216993896484375,10.201693534851074,0.8571242094039917,0
1733230363006973200,3.22697314453125,10.17296314239502,0.9313444495201111,-0.014365210197865963
1733230363016983000,3.236983154296875,10.072406768798828,0.9864110946655273,-0.031124621629714966
1733230363026992600,3.24699267578125,9.914389610290527,1.0319008827209473,-0.11971008777618408
1733230363037002500,3.25700244140625,9.849745750427246,1.0342950820922852,-0.1604115068912506
1733230363046982000,3.26698193359375,9.852140426635742,1.0271124839782715,-0.11252748221158981
1733230363056991500,3.276991455078125,9.940725326538086,0.9361328482627869,-0.08379705995321274
1733230363067001300,3.28700146484375,10.093954086303711,0.8595184087753296,-0.05746084079146385
1733230363076980500,3.29698046875,10.321403503417969,0.790086567401886,-0.047884032130241394
1733230363086990300,3.306990234375,10.505757331848145,0.7158663272857666,-0.05506663769483566
1733230363097000000,3.317,10.702081680297852,0.6943184733390808,-0.06464344263076782
1733230363106979300,3.326979248046875,10.766724586486816,0.7637503147125244,-0.07422025501728058
1733230363116989200,3.3369892578125,10.721235275268555,0.9289502501487732,-0.07661445438861847
1733230363126998800,3.346998779296875,10.536881446838379,1.0534487962722778,-0.011971008032560349
1733230363136978200,3.356978271484375,10.235212326049805,1.0295066833496094,0.1412578970193863
1733230363146988000,3.366988037109375,10.031704902648926,0.9385270476341248,0.15562310814857483
1733230363156997600,3.37699755859375,10.0580415725708,0.7996633648872375,0.05267243832349777
1733230363166976800,3.386976806640625,10.321403503417969,0.6512228846549988,-0.05027823522686958
1733230363176986400,3.396986328125,10.723628997802734,0.5889736413955688,-0.011971008032560349
1733230363186996200,3.406996337890625,11.252747535705566,0.5195417404174805,0.05985504388809204
1733230363196975600,3.4169755859375,11.535264015197754,0.4812345504760742,0.2753331959247589
1733230363206985500,3.4269853515625,11.659762382507324,0.26336219906806946,0.569819986820221
1733230363216995000,3.4369951171875,11.616666793823242,-0.07422025501728058,0.8786720037460327
1733230363226974500,3.446974365234375,11.561599731445312,-0.5674257874488831,1.1061211824417114
1733230363236984300,3.456984375,11.616666793823242,-1.091755986213684,0.9528923034667969
1733230363246994000,3.466993896484375,11.925518989562988,-1.6663644313812256,0.45010992884635925
1733230363256973300,3.476973388671875,12.373234748840332,-2.094926595687866,-0.20111294090747833
1733230363266983000,3.48698291015625,12.9741792678833,-2.389413356781006,-0.7374141216278076
1733230363276992500,3.496992431640625,13.4290771484375,-2.410961151123047,-1.0127472877502441
1733230363287002400,3.50700244140625,13.515268325805664,-2.252943754196167,-0.9361328482627869
1733230363296981800,3.516981689453125,13.096282958984375,-1.9800047874450684,-0.6536170840263367
1733230363306991400,3.526991455078125,12.349292755126953,-1.6639702320098877,-0.4812345504760742
1733230363317001200,3.537001220703125,11.082759857177734,-1.2737152576446533,-0.33518823981285095
1733230363326980600,3.546980712890625,9.854534149169922,-0.8906430602073669,-0.16998831927776337
1733230363336990500,3.556990478515625,8.432378768920898,-0.40222588181495667,-0.13407529890537262
1733230363347000000,3.567,7.254431247711182,0.0454898327589035,0.014365210197865963
1733230363356979200,3.576979248046875,6.0621185302734375,0.4429273009300232,0.14365209639072418
1733230363366989000,3.586989013671875,5.1331682205200195,0.6368576288223267,0.19632454216480255
1733230363376999000,3.5969990234375,4.577713489532471,0.727837324142456,0.09816227108240128
1733230363386978000,3.60697802734375,4.163516521453857,0.6607996821403503,-0.09576806426048279
1733230363396988000,3.61698779296875,4.278438568115234,0.6560112833976746,-0.181959331035614
1733230363406997500,3.62699755859375,4.8602294921875,0.545877993106842,-0.4213795065879822
1733230363416977000,3.636976806640625,5.7556610107421875,0.4189853072166443,-0.7709329724311829
1733230363426986500,3.646986572265625,7.022193431854248,0.1149216815829277,-1.4437036514282227
1733230363436996400,3.656996337890625,8.212111473083496,-0.2753331959247589,-2.1380221843719482
1733230363446975700,3.666975830078125,9.346963882446289,-0.6871358752250671,-2.82515811920166
1733230363456985600,3.676985595703125,10.280701637268066,-1.039083480834961,-3.1196448802948
1733230363466995200,3.6869951171875,11.264719009399414,-1.259350061416626,-2.9927520751953125
1733230363476974300,3.696974365234375,12.033257484436035,-1.2617442607879639,-2.7246015071868896
1733230363486984200,3.706984130859375,12.629413604736328,-1.2473790645599365,-2.3487119674682617
1733230363496993800,3.716993896484375,12.78264331817627,-1.3646949529647827,-1.8339585065841675
1733230363506973200,3.72697314453125,12.665327072143555,-1.45806884765625,-1.2641384601593018
1733230363516983000,3.736983154296875,12.356474876403809,-1.3407529592514038,-0.5961562395095825
1733230363526992600,3.74699267578125,12.02846908569336,-1.1228805780410767,-0.20111294090747833
1733230363537002500,3.75700244140625,11.602301597595215,-0.7996633648872375,0.17956513166427612
1733230363546982000,3.76698193359375,11.070788383483887,-0.5554547905921936,0.4165911078453064
1733230363556991500,3.776991455078125,10.395624160766602,-0.2322375625371933,0.5626373887062073
1733230363567001300,3.78700146484375,9.804255485534668,0.10055647045373917,0.6177040338516235
1733230363576980500,3.79698046875,9.160215377807617,0.42377370595932007,0.5722141861915588
1733230363586990300,3.806990234375,8.667010307312012,0.7110779285430908,0.47165772318840027
1733230363597000000,3.817,8.195352554321289,1.0079588890075684,0.3663128614425659
1733230363606979300,3.826979248046875,7.8745293617248535,1.2306196689605713,0.33039984107017517
1733230363616989200,3.8369892578125,7.704541206359863,1.2713210582733154,0.23702596127986908
1733230363626998800,3.846998779296875,7.750030994415283,1.1779472827911377,0.031124621629714966
1733230363636978200,3.856978271484375,8.090007781982422,1.0558429956436157,-0.2537853717803955
1733230363646988000,3.866988037109375,8.695740699768066,0.8164227604866028,-0.5219359993934631
1733230363656997600,3.87699755859375,9.277531623840332,0.5482721924781799,-0.5937620401382446
1733230363666976800,3.886976806640625,9.885659217834473,0.26096799969673157,-0.5770025849342346
1733230363676986600,3.896986572265625,10.402806282043457,0.06224924325942993,-0.5793967843055725
1733230363686996200,3.906996337890625,10.824186325073242,-0.0933738648891449,-0.586579442024231
1733230363696975600,3.9169755859375,11.022904396057129,-0.12689268589019775,-0.524330198764801
1733230363706985500,3.9269853515625,10.994174003601074,-0.1364694982767105,-0.47884035110473633
1733230363716995000,3.9369951171875,10.764330863952637,-0.0933738648891449,-0.3998316824436188
1733230363726974500,3.946974365234375,10.417171478271484,-0.0071826050989329815,-0.4644751250743866
1733230363736984300,3.956984375,10.029311180114746,0.12928688526153564,-0.4692635238170624
1733230363746994000,3.966993896484375,9.68933391571045,0.2825157940387726,-0.45250412821769714
1733230363756973000,3.97697314453125,9.385271072387695,0.45010992884635925,-0.45489832758903503
1733230363766983000,3.98698291015625,9.2033109664917,0.5722141861915588,-0.44771572947502136
1733230363776992500,3.996992431640625,9.102754592895508,0.6655880808830261,-0.304063618183136
1733230363787002400,4.00700244140625,9.114726066589355,0.7326257228851318,-0.1628057211637497
1733230363796981800,4.016981689453125,9.167398452758789,0.8164227604866028,0.019153613597154617
1733230363806991400,4.026991455078125,9.248801231384277,0.8834604024887085,0.15801730751991272
1733230363817001200,4.037001220703125,9.30386734008789,0.9696516990661621,0.2968810200691223
1733230363826980600,4.046980712890625,9.258378028869629,1.0199298858642578,0.35913026332855225
1733230363836990200,4.056990234375,9.275136947631836,1.0630255937576294,0.304063618183136
1733230363847000000,4.067,9.334992408752441,1.1324573755264282,0.2082955539226532
1733230363856979500,4.0769794921875,9.378087997436523,1.1013327836990356,0.10773907601833344
1733230363866989000,4.086989013671875,9.512163162231445,1.1252747774124146,0.0071826050989329815
1733230363876999000,4.0969990234375,9.674968719482422,1.1204863786697388,-0.06703764945268631
1733230363886978000,4.10697802734375,9.880870819091797,1.1324573755264282,-0.05746084079146385
1733230363896988000,4.11698779296875,10.180145263671875,1.1683704853057861,-0.07422025501728058
1733230363906997500,4.12699755859375,10.362105369567871,1.1971008777618408,-0.1173158809542656
1733230363916977000,4.136976806640625,10.491392135620117,1.170764684677124,-0.12689268589019775
1733230363926986800,4.14698681640625,10.579977035522461,1.1085153818130493,-0.08619125932455063
1733230363936996400,4.156996337890625,10.625467300415039,1.0893617868423462,-0.10055647045373917
1733230363946975700,4.166975830078125,10.599130630493164,1.0606313943862915,-0.11971008777618408
1733230363956985600,4.176985595703125,10.536881446838379,1.039083480834961,-0.1867477297782898
1733230363966995200,4.1869951171875,10.536881446838379,1.036689281463623,-0.2944868206977844
1733230363976974300,4.196974365234375,10.584765434265137,1.1180921792984009,-0.44532153010368347
1733230363986984200,4.206984130859375,10.627861022949219,1.1851298809051514,-0.5578489899635315
1733230363996993800,4.216993896484375,10.685321807861328,1.2761094570159912,-0.6248866319656372
1733230364006973200,4.22697314453125,10.69489860534668,1.3263877630233765,-0.6488286852836609
1733230364016983000,4.236983154296875,10.666168212890625,1.2856862545013428,-0.6200982332229614
1733230364026992600,4.24699267578125,10.687716484069824,1.2545616626739502,-0.7015010714530945
1733230364037002500,4.25700244140625,10.716446876525879,1.2449848651885986,-0.8523358106613159
1733230364046982000,4.26698193359375,10.78587818145752,1.1563993692398071,-0.9193734526634216
1733230364056991500,4.276991455078125,10.793061256408691,1.113303780555725,-0.9026140570640564
1733230364067001300,4.28700146484375,10.716446876525879,1.1276689767837524,-0.8786720037460327
1733230364076980500,4.29698046875,10.54406452178955,1.115697979927063,-0.8044517636299133
1733230364086990000,4.306989990234375,10.307038307189941,1.173158884048462,-0.8212111592292786
1733230364097000000,4.317,10.010157585144043,1.2473790645599365,-0.9696516990661621
1733230364106979300,4.326979248046875,9.66299819946289,1.2545616626739502,-0.9840168952941895
1733230364116989000,4.336989013671875,9.368511199951172,1.1516109704971313,-0.9241618514060974
1733230364126998800,4.346998779296875,9.282320022583008,1.1635819673538208,-0.828393816947937
1733230364136978200,4.356978271484375,9.366117477416992,1.070208191871643,-0.8164227604866028
1733230364146988000,4.366988037109375,9.536105155944824,0.8044517636299133,-0.8164227604866028
1733230364156997600,4.37699755859375,9.710882186889648,0.37828385829925537,-0.6919242739677429
1733230364166976800,4.386976806640625,10.02452278137207,-0.043095629662275314,-0.5267243981361389
1733230364176986600,4.396986572265625,10.450690269470215,-0.3998316824436188,-0.3663128614425659
1733230364186996200,4.406996337890625,10.90558910369873,-0.5889736413955688,-0.29209262132644653
1733230364196975600,4.4169755859375,11.310209274291992,-0.7134721279144287,-0.3016694188117981
1733230364206985500,4.4269853515625,11.429919242858887,-0.7757213711738586,-0.20350714027881622
1733230364216995000,4.4369951171875,11.286267280578613,-0.7469909191131592,-0.11013327538967133
1733230364226974500,4.446974365234375,10.94150161743164,-0.6344634294509888,0.021547814831137657
1733230364236984300,4.456984375,10.381258964538574,-0.5171475410461426,0.11971008777618408
1733230364246994000,4.466993896484375,9.86889934539795,-0.43095630407333374,0.304063618183136
1733230364256973300,4.476973388671875,9.342175483703613,-0.3423708379268646,0.49320554733276367
1733230364266983000,4.48698291015625,8.927978515625,-0.2513911724090576,0.6416460275650024
1733230364276992500,4.496992431640625,8.695740699768066,-0.21547815203666687,0.7038952708244324
1733230364287002400,4.50700244140625,8.561665534973145,-0.17238251864910126,0.7565677165985107
1733230364296981800,4.516981689453125,8.549694061279297,-0.181959331035614,0.8858546018600464
1733230364306991400,4.526991455078125,8.540117263793945,-0.16759411990642548,0.9959878921508789
1733230364317001200,4.537001220703125,8.489839553833008,-0.16759411990642548,1.1037269830703735
1733230364326980600,4.546980712890625,8.365341186523438,-0.15562310814857483,1.2737152576446533
1733230364336990500,4.556990478515625,8.259995460510254,-0.13407529890537262,1.3886369466781616
1733230364347000000,4.567,8.157045364379883,-0.1867477297782898,1.4987702369689941
1733230364356979500,4.5769794921875,8.147468566894531,-0.24181437492370605,1.5203180313110352
1733230364366989000,4.586989013671875,8.312667846679688,-0.3423708379268646,1.501164436340332
1733230364376999000,4.5969990234375,8.676587104797363,-0.42377370595932007,1.4891934394836426
1733230364386978000,4.60697802734375,9.033323287963867,-0.507570743560791,1.479616641998291
1733230364396988000,4.61698779296875,9.442731857299805,-0.507570743560791,1.4101848602294922
1733230364406997500,4.62699755859375,9.780313491821289,-0.42856210470199585,1.213860273361206
1733230364416977000,4.636976806640625,10.074800491333008,-0.3447650372982025,1.0007762908935547
1733230364426986500,4.646986572265625,10.390835762023926,-0.22026655077934265,0.7948749661445618
1733230364436996400,4.656996337890625,10.706870079040527,-0.05027823522686958,0.5027823448181152
1733230364446975700,4.666975830078125,10.919954299926758,-0.004788403399288654,0.35913026332855225
1733230364456985600,4.676985595703125,10.96544361114502,-0.014365210197865963,0.31364041566848755
1733230364466995200,4.6869951171875,10.915165901184082,-0.002394201699644327,0.3280056416988373
1733230364476974300,4.696974365234375,10.788272857666016,0.05267243832349777,0.3495534360408783
1733230364486984200,4.706984130859375,10.625467300415039,0.18914192914962769,0.35913026332855225
1733230364496993800,4.716993896484375,10.398017883300781,0.33039984107017517,0.3926490843296051
1733230364506973200,4.72697314453125,10.0580415725708,0.5267243981361389,0.4908113479614258
1733230364516983000,4.736983154296875,9.691728591918945,0.6847416758537292,0.5746083855628967
1733230364526992600,4.74699267578125,9.299078941345215,0.8595184087753296,0.6177040338516235
1733230364537002500,4.75700244140625,8.980650901794434,1.0271124839782715,0.6751648783683777
1733230364546982000,4.76698193359375,8.619126319885254,1.115697979927063,0.8188169598579407
1733230364556991500,4.776991455078125,8.403648376464844,1.1635819673538208,0.9050082564353943
1733230364567001300,4.78700146484375,8.300697326660156,1.1563993692398071,0.9864110946655273
1733230364576980500,4.79698046875,8.355764389038086,1.0845733880996704,1.0319008827209473
1733230364586990300,4.806990234375,8.56645393371582,0.9911994934082031,1.0582371950149536
1733230364597000000,4.817,8.865729331970215,0.8523358106613159,1.01753568649292
1733230364606979300,4.826979248046875,9.241618156433105,0.6871358752250671,1.0103530883789062
1733230364616989200,4.8369892578125,9.701305389404297,0.5219359993934631,0.950498104095459
1733230364626998800,4.846998779296875,10.08437728881836,0.40462008118629456,0.8571242094039917
1733230364636978200,4.856978271484375,10.431536674499512,0.2992752194404602,0.7541735172271729
1733230364646988000,4.866988037109375,10.60152530670166,0.2298433631658554,0.6416460275650024
1733230364656997600,4.87699755859375,10.682928085327148,0.2298433631658554,0.3998316824436188
1733230364666976800,4.886976806640625,10.63504409790039,0.28969839215278625,0.22026655077934265
1733230364676986600,4.896986572265625,10.5344877243042,0.35673606395721436,0.11971008777618408
1733230364686996200,4.906996337890625,10.338163375854492,0.44532153010368347,0.08858546614646912
1733230364696975600,4.9169755859375,9.998186111450195,0.5051765441894531,0.11252748221158981
1733230364706985500,4.9269853515625,9.648633003234863,0.5386953949928284,0.1173158809542656
1733230364716995000,4.9369951171875,9.437943458557129,0.5985504388809204,0.090979665517807
1733230364726974500,4.946974365234375,9.320627212524414,0.6751648783683777,0.17956513166427612
1733230364736984300,4.956984375,9.404424667358398,0.7326257228851318,0.16519992053508759
1733230364746994000,4.966993896484375,9.457097053527832,0.8475474119186401,0.12928688526153564
1733230364756973000,4.97697314453125,9.442731857299805,0.9672574996948242,0.12210428714752197
1733230364766983000,4.98698291015625,9.318233489990234,1.192312479019165,0.06224924325942993
1733230364776992500,4.996992431640625,9.184157371520996,1.3263877630233765,0.06224924325942993
1733230364787002400,5.00700244140625,9.141061782836914,1.4676456451416016,0.07422025501728058
1733230364796981800,5.016981689453125,9.23682975769043,1.4772224426269531,0.21547815203666687
1733230364806991400,5.026991455078125,9.30386734008789,1.3120225667953491,0.608127236366272
1733230364817001200,5.037001220703125,9.38048267364502,1.115697979927063,0.9169792532920837
1733230364826980600,5.046980712890625,9.543288230895996,0.9097966551780701,1.161187767982483
1733230364836990500,5.056990478515625,9.883264541625977,0.6991068720817566,1.278503656387329
1733230364847000000,5.067,10.256759643554688,0.4884171485900879,1.4532804489135742
1733230364856979500,5.0769794921875,10.72841739654541,0.4644751250743866,1.4437036514282227
1733230364866989000,5.086989013671875,11.08754825592041,0.49559974670410156,1.5418659448623657
1733230364876999000,5.0969990234375,11.322179794311523,0.6344634294509888,1.45806884765625
1733230364886978000,5.10697802734375,11.513715744018555,0.8930372595787048,1.2306196689605713
1733230364896988000,5.11698779296875,11.645397186279297,1.2521674633026123,0.9217676520347595
1733230364906997500,5.12699755859375,11.528080940246582,1.414973258972168,0.586579442024231
1733230364916977000,5.136976806640625,11.274295806884766,1.5322890281677246,0.3064578175544739
1733230364926986800,5.14698681640625,10.96544361114502,1.5275006294250488,0.10773907601833344
1733230364936996400,5.156996337890625,10.704475402832031,1.3862427473068237,-0.026336219161748886
1733230364946975700,5.166975830078125,10.60152530670166,1.3623007535934448,-0.1149216815829277
1733230364956985600,5.176985595703125,10.718840599060059,1.3407529592514038,-0.2968810200691223
1733230364966995200,5.1869951171875,10.898406028747559,1.2521674633026123,-0.4357447028160095
1733230364976974300,5.196974365234375,11.197681427001953,1.0582371950149536,-0.49559974670410156
1733230364986984200,5.206984130859375,11.63103199005127,0.49799394607543945,-0.3878606855869293
1733230364996993800,5.216993896484375,12.121843338012695,-0.4189853072166443,-0.20111294090747833
1733230365006973200,5.22697314453125,12.880805015563965,-1.4245500564575195,-0.05506663769483566
1733230365016983000,5.236983154296875,13.814543724060059,-2.051830768585205,-0.24899697303771973
1733230365026992600,5.24699267578125,14.906299591064453,-2.2912509441375732,-0.7996633648872375
1733230365037002500,5.25700244140625,15.33965015411377,-2.2888567447662354,-1.113303780555725
1733230365046982000,5.26698193359375,14.81771469116211,-2.1092917919158936,-1.0654197931289673
1733230365056991500,5.276991455078125,13.532028198242188,-1.7932571172714233,-0.7805097699165344
1733230365067001300,5.28700146484375,11.982979774475098,-1.403002142906189,-0.40462008118629456
1733230365076980500,5.29698046875,10.225635528564453,-0.8882488012313843,-0.07661445438861847
1733230365086990300,5.306990234375,8.60236644744873,-0.5171475410461426,-0.12689268589019775
1733230365097000000,5.317,6.976703643798828,-0.05985504388809204,-0.3687070608139038
1733230365106979300,5.326979248046875,5.9088897705078125,0.2944868206977844,-0.43095630407333374
1733230365116989200,5.3369892578125,4.991910457611084,0.5602431893348694,-0.49320554733276367
1733230365126998800,5.346998779296875,4.697423934936523,0.7613561153411865,-0.5171475410461426
1733230365136978200,5.356978271484375,4.642356872558594,0.9002198576927185,-0.395043283700943
1733230365146988000,5.366988037109375,4.795586109161377,0.9576807022094727,-0.38546648621559143
1733230365156997600,5.37699755859375,5.104437828063965,0.9145850539207458,-0.5171475410461426
1733230365166976800,5.386976806640625,5.494692802429199,0.8020575642585754,-0.6105214357376099
1733230365176986600,5.396986572265625,5.849034786224365,0.5746083855628967,-0.7493851184844971
1733230365186996200,5.406996337890625,6.428431510925293,0.28730419278144836,-0.9002198576927185
1733230365196975600,5.4169755859375,6.900089263916016,0.033518824726343155,-1.0869675874710083
1733230365206985500,5.4269853515625,7.603984832763672,-0.4429273009300232,-1.192312479019165
1733230365216995000,5.4369951171875,8.528146743774414,-0.9768342971801758,-1.37906014919281
1733230365226974500,5.446974365234375,9.911994934082031,-1.2186486721038818,-1.2737152576446533
1733230365236984300,5.456984375,10.754754066467285,-1.314416766166687,-1.2761094570159912
1733230365246994000,5.466993896484375,11.616666793823242,-1.3623007535934448,-1.4269442558288574
1733230365256973300,5.476973388671875,12.29662036895752,-1.1468225717544556,-1.50355863571167
1733230365266983000,5.48698291015625,12.567164421081543,-0.9002198576927185,-1.359906554222107
1733230365276992500,5.496992431640625,12.392388343811035,-0.7493851184844971,-0.9576807022094727
1733230365287002400,5.50700244140625,12.006921768188477,-0.569819986820221,-0.5339069962501526
1733230365296981800,5.516981689453125,11.374852180480957,-0.33997663855552673,-0.24420857429504395
1733230365306991400,5.526991455078125,10.819397926330566,-0.06224924325942993,-0.14365209639072418
1733230365317001200,5.537001220703125,10.194510459899902,0.2801215946674347,-0.043095629662275314
1733230365326980600,5.546980712890625,9.730035781860352,0.5722141861915588,0.05746084079146385
1733230365336990500,5.556990478515625,9.27034854888916,0.8140285611152649,0.15801730751991272
1733230365347000000,5.567,9.081207275390625,0.9744400978088379,0.22026655077934265
1733230365356979500,5.5769794921875,8.968679428100586,1.1228805780410767,0.1843535304069519
1733230365366989000,5.586989013671875,8.93037223815918,1.1875240802764893,0.1388636976480484
1733230365376999000,5.5969990234375,8.999804496765137,1.2425906658172607,0.002394201699644327
1733230365386978000,5.60697802734375,9.119514465332031,1.2521674633026123,-0.08858546614646912
1733230365396988000,5.61698779296875,9.191340446472168,1.1875240802764893,-0.2322375625371933
1733230365406997500,5.62699755859375,9.29189682006836,1.1228805780410767,-0.3064578175544739
1733230365416977000,5.636976806640625,9.399636268615723,1.048660397529602,-0.33997663855552673
1733230365426986800,5.64698681640625,9.521739959716797,0.9409212470054626,-0.3878606855869293
1733230365436996400,5.656996337890625,9.694122314453125,0.8930372595787048,-0.38307225704193115
1733230365446975700,5.666975830078125,9.780313491821289,0.8068459630012512,-0.4141969084739685
1733230365456985600,5.676985595703125,9.86889934539795,0.7422025203704834,-0.35913026332855225
1733230365466995200,5.6869951171875,9.945513725280762,0.7015010714530945,-0.3423708379268646
1733230365476974300,5.696974365234375,9.99339771270752,0.7182605266571045,-0.3926490843296051
1733230365486984200,5.706984130859375,10.034099578857422,0.7326257228851318,-0.4692635238170624
1733230365496993800,5.716993896484375,10.017339706420898,0.7661445140838623,-0.5051765441894531
1733230365506973200,5.72697314453125,9.976638793945312,0.8044517636299133,-0.4884171485900879
1733230365516983000,5.736983154296875,9.854534149169922,0.8547300100326538,-0.3734954595565796
1733230365526992600,5.74699267578125,9.646238327026367,0.8954314589500427,-0.2537853717803955
1733230365537002500,5.75700244140625,9.44991397857666,0.993593692779541,-0.17238251864910126
1733230365546982000,5.76698193359375,9.318233489990234,1.0271124839782715,-0.10055647045373917
1733230365556991500,5.776991455078125,9.32302188873291,1.0606313943862915,-0.11252748221158981
1733230365567001300,5.78700146484375,9.452308654785156,1.039083480834961,-0.1388636976480484
1733230365576980500,5.79698046875,9.684545516967773,0.9983820915222168,-0.12928688526153564
1733230365586990300,5.806990234375,9.911994934082031,0.9744400978088379,-0.12689268589019775
1733230365597000000,5.817,10.077195167541504,0.9792284965515137,-0.1843535304069519
1733230365606979300,5.826979248046875,10.129867553710938,1.0079588890075684,-0.26336219906806946
1733230365616989200,5.8369892578125,10.08198356628418,1.070208191871643,-0.29209262132644653
1733230365626998800,5.846998779296875,9.928754806518555,1.115697979927063,-0.3208230137825012
1733230365636978200,5.856978271484375,9.785101890563965,1.1971008777618408,-0.3687070608139038
1733230365646988000,5.866988037109375,9.66299819946289,1.2832920551300049,-0.4165911078453064
1733230365656997600,5.87699755859375,9.615114212036133,1.3263877630233765,-0.40462008118629456
1733230365666976800,5.886976806640625,9.526528358459473,1.357512354850769,-0.37828385829925537
1733230365676986600,5.896986572265625,9.550470352172852,1.3335703611373901,-0.3902548849582672
1733230365686996200,5.906996337890625,9.667786598205566,1.3263877630233765,-0.4357447028160095
1733230365696975600,5.9169755859375,9.976638793945312,1.4293384552001953,-0.4668693244457245
1733230365706985500,5.9269853515625,10.309432983398438,1.41257905960083,-0.6033388376235962
1733230365716995000,5.9369951171875,10.66137981414795,1.460463047027588,-0.5267243981361389
1733230365726974500,5.946974365234375,10.78587818145752,1.479616641998291,-0.5147533416748047
1733230365736984300,5.956984375,10.6709566116333,1.3646949529647827,-0.5363011956214905
1733230365746994000,5.966993896484375,10.484209060668945,1.2713210582733154,-0.5195417404174805
1733230365756973300,5.976973388671875,10.400412559509277,1.161187767982483,-0.33997663855552673
1733230365766983000,5.98698291015625,10.45547866821289,1.0630255937576294,-0.2298433631658554
1733230365776992800,5.99699267578125,10.608707427978516,1.0319008827209473,-0.2849099934101105
1733230365787002400,6.00700244140625,10.766724586486816,1.0319008827209473,-0.43335050344467163
1733230365796981800,6.016981689453125,10.903194427490234,1.0749965906143188,-0.5961562395095825
1733230365806991400,6.026991455078125,10.955866813659668,1.048660397529602,-0.646434485912323
1733230365817001200,6.037001220703125,10.876858711242676,0.950498104095459,-0.6799532771110535
1733230365826980600,6.046980712890625,10.699687004089355,0.871489405632019,-0.6871358752250671
1733230365836990500,6.056990478515625,10.599130630493164,0.7613561153411865,-0.6919242739677429
1733230365847000000,6.067,10.503362655639648,0.5099649429321289,-0.5889736413955688
1733230365856979500,6.0769794921875,10.527304649353027,0.20350714027881622,-0.5626373887062073
1733230365866989000,6.086989013671875,10.721235275268555,-0.17717093229293823,-0.5626373887062073
1733230365876999000,6.0969990234375,11.075576782226562,-0.47644615173339844,-0.5506663918495178
1733230365886978000,6.10697802734375,11.532869338989258,-0.7326257228851318,-0.5770025849342346
1733230365896988000,6.11698779296875,11.908759117126465,-0.8044517636299133,-0.6224924325942993
1733230365906997500,6.12699755859375,12.042834281921387,-0.8738836050033569,-0.6584054827690125
1733230365916977000,6.136976806640625,11.875240325927734,-0.8643068075180054,-0.5339069962501526
1733230365926986800,6.14698681640625,11.343728065490723,-0.8259995579719543,-0.33039984107017517
1733230365936996400,6.156996337890625,10.589553833007812,-0.7158663272857666,-0.22026655077934265
1733230365946975700,6.166975830078125,9.93593692779541,-0.5961562395095825,-0.2322375625371933
1733230365956985600,6.176985595703125,9.21288776397705,-0.5027823448181152,-0.1412578970193863
1733230365966995200,6.1869951171875,8.731653213500977,-0.40222588181495667,-0.021547814831137657
1733230365976974300,6.196974365234375,8.35336971282959,-0.2298433631658554,0.11971008777618408
1733230365986984200,6.206984130859375,8.042123794555664,-0.06464344263076782,0.2777273952960968
1733230365996993800,6.216993896484375,7.785943984985352,0.12689268589019775,0.5793967843055725
1733230366006973200,6.22697314453125,7.527369976043701,0.31842881441116333,0.9888052940368652
1733230366016983000,6.236983154296875,7.146692276000977,0.47405192255973816,1.4317326545715332
1733230366026992600,6.24699267578125,6.797138690948486,0.5482721924781799,1.8052281141281128
1733230366037002500,6.25700244140625,6.476315498352051,0.5363011956214905,2.161964178085327
1733230366046982000,6.26698193359375,6.358999729156494,0.5195417404174805,2.3965959548950195
1733230366056991500,6.276991455078125,6.581660270690918,0.3711012601852417,2.5330653190612793
1733230366067001300,6.28700146484375,7.086836814880371,0.06224924325942993,2.676717519760132
1733230366076980500,6.29698046875,7.706935405731201,-0.2346317619085312,2.779668092727661
1733230366086990300,6.306990234375,8.449137687683105,-0.5099649429321289,2.6862943172454834
1733230366097000000,6.317,9.14345645904541,-0.7038952708244324,2.5019407272338867
1733230366106979300,6.326979248046875,9.995792388916016,-0.9026140570640564,2.161964178085327
1733230366116989200,6.3369892578125,10.800244331359863,-0.9911994934082031,1.6831238269805908
1733230366126998800,6.346998779296875,11.669339179992676,-1.0534487962722778,1.2042834758758545
1733230366136978200,6.356978271484375,12.389993667602539,-1.01753568649292,0.8786720037460327
1733230366146988000,6.366988037109375,12.97657299041748,-0.9552865028381348,0.5674257874488831
1733230366156997600,6.37699755859375,13.160926818847656,-0.7350199222564697,0.49559974670410156
1733230366166976800,6.386976806640625,12.847286224365234,-0.6272808313369751,0.35434186458587646
1733230366176986600,6.396986572265625,12.035652160644531,-0.47165772318840027,0.16998831927776337
1733230366186996200,6.406996337890625,11.202469825744629,-0.15562310814857483,0.004788403399288654
1733230366196975600,6.4169755859375,10.280701637268066,0.2298433631658554,-0.004788403399288654
1733230366206985500,6.4269853515625,9.485827445983887,0.5171475410461426,0.07661445438861847
1733230366216995000,6.4369951171875,8.746018409729004,0.8020575642585754,0.12449848651885986
1733230366226974500,6.446974365234375,8.257601737976074,1.0414776802062988,0.1628057211637497
1733230366236984300,6.456984375,7.805097579956055,1.2976573705673218,0.2801215946674347
1733230366246994000,6.466993896484375,7.508216381072998,1.3958195447921753,0.42856210470199585
1733230366256973300,6.476973388671875,7.443572998046875,1.403002142906189,0.6224924325942993
1733230366266983000,6.48698291015625,7.491456985473633,1.316810965538025,0.6991068720817566
1733230366276992800,6.49699267578125,7.778761386871338,1.0989385843276978,0.6751648783683777
1733230366287002400,6.50700244140625,8.379706382751465,0.9074024558067322,0.47884035110473633
1733230366296981800,6.516981689453125,9.040505409240723,0.7613561153411865,0.35434186458587646
1733230366306991400,6.526991455078125,9.885659217834473,0.5937620401382446,0.30885201692581177
1733230366317001200,6.537001220703125,10.500968933105469,0.5123591423034668,0.2753331959247589
1733230366326980600,6.546980712890625,10.967838287353516,0.40940847992897034,0.2849099934101105
1733230366336990500,6.556990478515625,11.149797439575195,0.35913026332855225,0.2992752194404602
1733230366347000000,6.567,11.106701850891113,0.31842881441116333,0.40940847992897034
1733230366356979500,6.5769794921875,10.90558910369873,0.3016694188117981,0.5099649429321289
1733230366366989000,6.586989013671875,10.651803016662598,0.2968810200691223,0.5626373887062073
1733230366376999000,6.5969990234375,10.474632263183594,0.3519476354122162,0.5841852426528931
1733230366386978000,6.60697802734375,10.357316970825195,0.3974374830722809,0.5410895943641663
1733230366396988000,6.61698779296875,10.256759643554688,0.47165772318840027,0.47405192255973816
1733230366406997500,6.62699755859375,10.144232749938965,0.5770025849342346,0.43335050344467163
1733230366416977000,6.636976806640625,9.974244117736816,0.6847416758537292,0.3734954595565796
1733230366426986800,6.64698681640625,9.80904483795166,0.7565677165985107,0.3208230137825012
1733230366436996400,6.656996337890625,9.612719535827637,0.8547300100326538,0.3064578175544739
1733230366446975700,6.666975830078125,9.50737476348877,0.9385270476341248,0.19632454216480255
1733230366456985600,6.676985595703125,9.425971984863281,1.0103530883789062,0.18914192914962769
1733230366466995200,6.6869951171875,9.425971984863281,1.094150185585022,0.22026655077934265
1733230366476974300,6.696974365234375,9.437943458557129,1.1635819673538208,0.2801215946674347
1733230366486984200,6.706984130859375,9.44752025604248,1.216254472732544,0.363918662071228
1733230366496993800,6.716993896484375,9.461885452270508,1.2641384601593018,0.4165911078453064
1733230366506973200,6.72697314453125,9.473855972290039,1.235408067703247,0.5363011956214905
1733230366516983000,6.736983154296875,9.495404243469238,1.2401964664459229,0.5961562395095825
1733230366526992600,6.74699267578125,9.610325813293457,1.173158884048462,0.6943184733390808
1733230366537002500,6.75700244140625,9.765948295593262,1.0845733880996704,0.7206547260284424
1733230366546982000,6.76698193359375,9.99339771270752,0.9672574996948242,0.7565677165985107
1733230366556991500,6.776991455078125,10.271124839782715,0.9217676520347595,0.6943184733390808
1733230366567001300,6.78700146484375,10.577583312988281,0.8619126081466675,0.6105214357376099
1733230366576980500,6.79698046875,10.821791648864746,0.8092401623725891,0.6703764796257019
1733230366586990300,6.806990234375,10.943896293640137,0.8236053586006165,0.6799532771110535
1733230366597000000,6.817,11.008539199829102,0.9481038451194763,0.5554547905921936
1733230366606979300,6.826979248046875,10.910377502441406,1.0869675874710083,0.45489832758903503
1733230366616989200,6.8369892578125,10.737994194030762,1.2737152576446533,0.3208230137825012
1733230366626998800,6.846998779296875,10.541669845581055,1.479616641998291,0.11252748221158981
1733230366636978200,6.856978271484375,10.38844108581543,1.6855180263519287,-0.1173158809542656
1733230366646988000,6.866988037109375,10.20648193359375,1.764526605606079,-0.23702596127986908
1733230366656997600,6.87699755859375,10.110713958740234,1.659181833267212,-0.2561795711517334
1733230366666976800,6.886976806640625,10.182539939880371,1.5514427423477173,-0.19153612852096558
1733230366676986600,6.896986572265625,10.486603736877441,1.479616641998291,-0.12689268589019775
1733230366686996200,6.906996337890625,10.919954299926758,1.2425906658172607,-0.033518824726343155
1733230366696975600,6.9169755859375,11.417947769165039,0.8307880163192749,0.1173158809542656
1733230366706985500,6.9269853515625,11.923124313354492,0.31124621629714966,0.2992752194404602
1733230366716995000,6.9369951171875,12.449849128723145,-0.3471592366695404,0.4620809257030487
1733230366726974500,6.946974365234375,12.76109504699707,-0.9648633003234863,0.47165772318840027
1733230366736984300,6.956984375,13.029245376586914,-1.259350061416626,0.2753331959247589
1733230366746994000,6.966993896484375,13.256694793701172,-1.173158884048462,-0.06224924325942993
1733230366756973300,6.976973388671875,13.15853214263916,-0.9864110946655273,-0.33039984107017517
1733230366766983000,6.98698291015625,12.63899040222168,-0.5841852426528931,-0.6967126727104187
1733230366776992800,6.99699267578125,11.748347282409668,-0.15562310814857483,-0.8882488012313843
1733230366787002400,7.00700244140625,10.599130630493164,0.17717093229293823,-0.9457096457481384
1733230366796981800,7.016981689453125,9.627084732055664,0.33758243918418884,-0.912190854549408
1733230366806991400,7.026991455078125,8.722076416015625,0.5410895943641663,-0.9289502501487732
1733230366817001200,7.037001220703125,8.276755332946777,0.6871358752250671,-0.7661445140838623
1733230366826980600,7.046980712890625,7.747636795043945,0.751779317855835,-0.9097966551780701
1733230366836990500,7.056990478515625,7.469909191131592,0.7493851184844971,-0.9241618514060974
1733230366847000000,7.067,7.307103633880615,0.811634361743927,-0.9265560507774353
1733230366856979500,7.0769794921875,7.24485445022583,0.9911994934082031,-0.9145850539207458
1733230366866989000,7.086989013671875,7.12035608291626,1.1109095811843872,-0.9097966551780701
1733230366876999000,7.0969990234375,7.041347026824951,1.115697979927063,-0.8355764150619507
1733230366886978000,7.10697802734375,6.864176273345947,1.0893617868423462,-0.8068459630012512
1733230366896988000,7.11698779296875,6.768408298492432,0.9672574996948242,-0.8068459630012512
1733230366906997500,7.12699755859375,6.845022678375244,0.790086567401886,-0.8427590131759644
1733230366916977000,7.136976806640625,7.161057472229004,0.5626373887062073,-1.0319008827209473
1733230366926986800,7.14698681640625,7.668628215789795,0.2992752194404602,-1.1180921792984009
1733230366936996400,7.156996337890625,8.286332130432129,-0.05267243832349777,-1.1061211824417114
1733230366946975700,7.166975830078125,9.10993766784668,-0.3926490843296051,-1.2665326595306396
1733230366956985600,7.176985595703125,9.93354320526123,-0.586579442024231,-1.482010841369629
1733230366966995200,7.1869951171875,10.81460952758789,-0.6799532771110535,-1.6663644313812256
1733230366976974300,7.196974365234375,11.48259162902832,-0.751779317855835,-1.6352397203445435
1733230366986984200,7.206984130859375,12.009315490722656,-0.8068459630012512,-1.3862427473068237
1733230366996993800,7.216993896484375,12.112266540527344,-0.7182605266571045,-1.0654197931289673
1733230367006973200,7.22697314453125,11.856086730957031,-0.5051765441894531,-0.7398083209991455
1733230367016983000,7.236983154296875,11.252747535705566,-0.27054479718208313,-0.4620809257030487
1733230367026992600,7.24699267578125,10.314221382141113,-0.047884032130241394,-0.1628057211637497
1733230367037002500,7.25700244140625,9.473855972290039,0.24420857429504395,-0.05027823522686958
1733230367046982000,7.26698193359375,8.640673637390137,0.6512228846549988,-0.014365210197865963
1733230367056991500,7.276991455078125,7.922413349151611,0.9696516990661621,0.1149216815829277
1733230367067001300,7.28700146484375,7.4555439949035645,1.1899182796478271,0.22505496442317963
1733230367076980500,7.29698046875,7.144298076629639,1.3982137441635132,0.27054479718208313
1733230367086990300,7.306990234375,7.158663272857666,1.5322890281677246,0.23942017555236816
1733230367097000000,7.317,7.501033782958984,1.6376339197158813,0.15562310814857483
1733230367106979300,7.326979248046875,7.994239330291748,1.647210717201233,0.09576806426048279
1733230367116989200,7.3369892578125,8.578424453735352,1.5610195398330688,0.011971008032560349
1733230367126998800,7.346998779296875,9.023746490478516,1.4317326545715332,0.033518824726343155
1733230367136978200,7.356978271484375,9.636661529541016,1.4389152526855469,0.05506663769483566
1733230367146988000,7.366988037109375,10.072406768798828,1.3766659498214722,0
1733230367156997600,7.37699755859375,10.47702693939209,1.2880805730819702,-0.05746084079146385
1733230367166976800,7.386976806640625,10.776301383972168,1.1659762859344482,-0.08858546614646912
1733230367176986600,7.396986572265625,10.946290016174316,1.1468225717544556,-0.07661445438861847
1733230367186996200,7.406996337890625,11.042057991027832,1.039083480834961,-0.047884032130241394
1733230367196975600,7.4169755859375,11.037269592285156,0.9409212470054626,0.06224924325942993
1733230367206985500,7.4269853515625,10.991780281066895,0.8643068075180054,0.13407529890537262
1733230367216995000,7.4369951171875,10.92953109741211,0.751779317855835,0.19632454216480255
1733230367226974500,7.446974365234375,10.8505220413208,0.7350199222564697,0.2585737705230713
1733230367236984300,7.456984375,10.673351287841797,0.7589619159698486,0.33279404044151306
1733230367246994000,7.466993896484375,10.393229484558105,0.8140285611152649,0.38067805767059326
1733230367256973300,7.476973388671875,10.113107681274414,0.8810662031173706,0.3758896589279175
1733230367266983000,7.48698291015625,9.828198432922363,0.9792284965515137,0.3519476354122162
1733230367276992800,7.49699267578125,9.576807022094727,1.1300631761550903,0.31842881441116333
1733230367287002400,7.50700244140625,9.41400146484375,1.2713210582733154,0.2825157940387726
1733230367296981800,7.516981689453125,9.191340446472168,1.4101848602294922,0.23702596127986908
1733230367306991400,7.526991455078125,9.050082206726074,1.4724340438842773,0.20111294090747833
1733230367317001200,7.537001220703125,8.899248123168945,1.5155296325683594,0.17477671802043915
1733230367326980600,7.546980712890625,8.801085472106934,1.4844050407409668,0.1388636976480484
1733230367336990500,7.556990478515625,8.793902397155762,1.3934253454208374,0.004788403399288654
1733230367347000000,7.567,8.959102630615234,1.280897855758667,-0.11971008777618408
1733230367356979500,7.5769794921875,9.318233489990234,1.161187767982483,-0.23942017555236816
1733230367366989000,7.586989013671875,9.720458984375,1.0031704902648926,-0.2825157940387726
1733230367376999000,7.5969990234375,10.137049674987793,0.8307880163192749,-0.3519476354122162
1733230367386978000,7.60697802734375,10.486603736877441,0.7038952708244324,-0.3926490843296051
1733230367396988000,7.61698779296875,10.65898609161377,0.6512228846549988,-0.45010992884635925
1733230367406997500,7.62699755859375,10.781089782714844,0.7565677165985107,-0.5267243981361389
1733230367416977000,7.636976806640625,10.793061256408691,0.8786720037460327,-0.5674257874488831
1733230367426986800,7.64698681640625,10.714052200317383,0.9888052940368652,-0.5722141861915588
1733230367436996400,7.656996337890625,10.642226219177246,1.1228805780410767,-0.5578489899635315
1733230367446975700,7.666975830078125,10.522516250610352,1.213860273361206,-0.4596867263317108
1733230367456985600,7.676985595703125,10.577583312988281,1.2401964664459229,-0.42377370595932007
1733230367466995200,7.6869951171875,10.69489860534668,1.2449848651885986,-0.42377370595932007
1733230367476974300,7.696974365234375,10.922348022460938,1.2306196689605713,-0.42377370595932007
1733230367486984200,7.706984130859375,11.267112731933594,1.235408067703247,-0.3926490843296051
1733230367496993800,7.716993896484375,11.57596492767334,1.173158884048462,-0.363918662071228
1733230367506973200,7.72697314453125,11.762712478637695,1.0438719987869263,-0.38546648621559143
1733230367516866300,7.7368662109375,11.892000198364258,0.7015010714530945,-0.40462008118629456
1733230367526876000,7.7468759765625,12.071564674377441,0.2513911724090576,-0.3256114423274994
1733230367536885800,7.7568857421875,12.27507209777832,-0.35434186458587646,-0.2753331959247589
1733230367546865200,7.766865234375,12.45703125,-0.9409212470054626,-0.22266076505184174
1733230367556874800,7.776874755859375,12.677297592163086,-1.4939818382263184,-0.15083470940589905
1733230367566884600,7.786884521484375,12.928689002990723,-1.7310078144073486,-0.16998831927776337
1733230367576863700,7.79686376953125,12.935872077941895,-1.6735470294952393,-0.10055647045373917
1733230367586873600,7.80687353515625,12.449849128723145,-1.5179238319396973,0.09576806426048279
1733230367596883200,7.81688330078125,11.425130844116211,-1.1971008777618408,0.16998831927776337
1733230367606862600,7.826862548828125,10.235212326049805,-0.7374141216278076,0.2849099934101105
1733230367616872400,7.83687255859375,9.059659004211426,-0.2298433631658554,0.4596867263317108
1733230367626882000,7.846882080078125,7.814674377441406,0.17238251864910126,0.6727706789970398
1733230367636861400,7.856861328125,6.864176273345947,0.49799394607543945,0.790086567401886
1733230367646871300,7.866871337890625,6.00226354598999,0.790086567401886,0.912190854549408
1733230367656881000,7.876880859375,5.5760955810546875,0.9457096457481384,1.05105459690094
1733230367666860300,7.8868603515625,5.348646640777588,1.0199298858642578,1.3072341680526733
1733230367676870000,7.896869873046875,5.389348030090332,0.9768342971801758,1.6041151285171509
1733230367686879700,7.906879638671875,5.772420406341553,0.8212111592292786,1.944091796875
1733230367696859000,7.91685888671875,6.399701118469238,0.6536170840263367,2.097320795059204
1733230367706868700,7.92686865234375,7.307103633880615,0.30885201692581177,2.1547815799713135
1733230367716878300,7.93687841796875,8.243236541748047,-0.12449848651885986,2.188300371170044
1733230367726857700,7.946857666015625,8.992621421813965,-0.5003881454467773,2.185906171798706
1733230367736867600,7.95686767578125,9.66299819946289,-0.811634361743927,2.0446481704711914
1733230367746877200,7.966877197265625,10.14902114868164,-0.9792284965515137,1.8626888990402222
1733230367756856600,7.976856689453125,10.532093048095703,-1.072602391242981,1.5514427423477173
1733230367766866400,7.986866455078125,10.819397926330566,-1.01753568649292,1.3048399686813354
1733230367776876000,7.9968759765625,11.044452667236328,-0.8236053586006165,0.9169792532920837
1733230367786886000,8.006885986328125,11.12106704711914,-0.6344634294509888,0.6799532771110535
1733230367796865000,8.016864990234374,11.013327598571777,-0.35913026332855225,0.6344634294509888
1733230367806874600,8.02687451171875,10.72841739654541,-0.17956513166427612,0.6655880808830261
1733230367816884500,8.036884521484374,10.314221382141113,0.05027823522686958,0.6607996821403503
1733230367826863900,8.04686376953125,9.823410034179688,0.3016694188117981,0.48602294921875
1733230367836873700,8.056873779296875,9.435548782348633,0.4381389021873474,0.3926490843296051
1733230367846883300,8.06688330078125,9.169792175292969,0.5315127968788147,0.4429273009300232
1733230367856862700,8.07686279296875,9.102754592895508,0.6105214357376099,0.47165772318840027
1733230367866872600,8.08687255859375,9.2033109664917,0.6991068720817566,0.47405192255973816
1733230367876882200,8.096882080078124,9.327810287475586,0.7493851184844971,0.4812345504760742
1733230367886861300,8.106861328125,9.466673851013184,0.7972691655158997,0.5219359993934631
1733230367896871200,8.11687109375,9.533711433410645,0.8595184087753296,0.5817909836769104
1733230367906880800,8.126880859375,9.555258750915527,0.9528923034667969,0.646434485912323
1733230367916860200,8.136860107421874,9.514557838439941,1.0055646896362305,0.7565677165985107
1733230367926870000,8.1468701171875,9.433155059814453,1.015141487121582,0.9265560507774353
1733230367936879600,8.156879638671874,9.301473617553711,0.9768342971801758,1.0845733880996704
1733230367946859000,8.16685888671875,9.315838813781738,0.9074024558067322,1.1204863786697388
1733230367956868900,8.176868896484375,9.44752025604248,0.8403648138046265,1.0558429956436157
1733230367966878500,8.18687841796875,9.658209800720215,0.7829039692878723,1.0079588890075684
1733230367976857900,8.19685791015625,9.93593692779541,0.7110779285430908,0.9169792532920837
1733230367986867500,8.206867431640624,10.211270332336426,0.6919242739677429,0.7613561153411865
1733230367996877000,8.216876953125,10.407594680786133,0.6560112833976746,0.6033388376235962
1733230368006856400,8.2268564453125,10.467450141906738,0.6584054827690125,0.5315127968788147
1733230368016866300,8.2368662109375,10.412383079528809,0.6847416758537292,0.47405192255973816
1733230368026876000,8.2468759765625,10.290278434753418,0.6847416758537292,0.4572925269603729
1733230368036885800,8.2568857421875,10.103530883789062,0.6823474764823914,0.47644615173339844
1733230368046865200,8.266865234375,10.02691650390625,0.6751648783683777,0.5027823448181152
1733230368056875000,8.276875,9.983820915222168,0.6799532771110535,0.4620809257030487
1733230368066884600,8.286884521484374,10.019734382629395,0.7015010714530945,0.38307225704193115
1733230368076863700,8.29686376953125,10.086771965026855,0.7110779285430908,0.3734954595565796
1733230368086873600,8.30687353515625,10.043676376342773,0.768538773059845,0.3758896589279175
1733230368096883200,8.31688330078125,9.938331604003906,0.828393816947937,0.3687070608139038
1733230368106862600,8.326862548828124,9.75397777557373,0.9576807022094727,0.3974374830722809
1733230368116872400,8.33687255859375,9.53849983215332,1.072602391242981,0.40462008118629456
1733230368126882000,8.346882080078124,9.191340446472168,1.1444283723831177,0.48602294921875
1733230368136861400,8.356861328125,8.880094528198242,1.237802267074585,0.5027823448181152
1733230368146871300,8.366871337890625,8.635885238647461,1.3527239561080933,0.45010992884635925
1733230368156881000,8.376880859375,8.686163902282715,1.4197616577148438,0.5195417404174805
1733230368166860300,8.3868603515625,8.884882926940918,1.4484920501708984,0.524330198764801
1733230368176870100,8.3968701171875,9.232041358947754,1.479616641998291,0.5027823448181152
1733230368186879700,8.406879638671874,9.579200744628906,1.4915876388549805,0.47644615173339844
1733230368196859000,8.41685888671875,9.959878921508789,1.3886369466781616,0.5003881454467773
1733230368206868700,8.42686865234375,10.177751541137695,1.3072341680526733,0.5889736413955688
1733230368216878300,8.43687841796875,10.42195987701416,1.2641384601593018,0.6416460275650024
1733230368226857700,8.446857666015624,10.563218116760254,1.2473790645599365,0.6320692300796509
1733230368236867600,8.45686767578125,10.6709566116333,1.2473790645599365,0.6009446382522583
1733230368246877200,8.466877197265624,10.697293281555176,1.2617442607879639,0.5482721924781799
1733230368256856600,8.476856689453125,10.627861022949219,1.3287819623947144,0.5123591423034668
1733230368266866400,8.486866455078125,10.486603736877441,1.37906014919281,0.5267243981361389
1733230368276876300,8.496876220703125,10.204087257385254,1.4173674583435059,0.5554547905921936
1733230368286886000,8.506885986328125,9.873687744140625,1.4317326545715332,0.6607996821403503
1733230368296865000,8.516864990234374,9.5624418258667,1.414973258972168,0.7829039692878723
1733230368306875000,8.526875,9.330204010009766,1.3623007535934448,0.9145850539207458
1733230368316884500,8.536884521484374,9.263166427612305,1.3048399686813354,0.9074024558067322
1733230368326864000,8.54686376953125,9.349357604980469,1.2545616626739502,0.8331822156906128
1733230368336873700,8.556873779296875,9.548076629638672,1.2306196689605713,0.706289529800415
1733230368346883300,8.56688330078125,9.694122314453125,1.2545616626739502,0.5674257874488831
1733230368356862700,8.57686279296875,9.744400978088379,1.2018892765045166,0.43095630407333374
1733230368366872600,8.58687255859375,9.813833236694336,1.1492167711257935,0.24660277366638184
1733230368376882200,8.596882080078124,9.911994934082031,1.072602391242981,0.15562310814857483
1733230368386861300,8.606861328125,10.122684478759766,1.0223240852355957,0.15801730751991272
1733230368396871200,8.61687109375,10.366893768310547,1.0821791887283325,0.2537853717803955
1733230368406880800,8.626880859375,10.472238540649414,1.161187767982483,0.31603461503982544
1733230368416860200,8.636860107421874,10.426748275756836,1.235408067703247,0.42377370595932007
1733230368426870000,8.6468701171875,10.374075889587402,1.161187767982483,0.6344634294509888
1733230368436879600,8.656879638671874,10.316615104675293,0.8954314589500427,0.6871358752250671
1733230368446859000,8.66685888671875,10.35252857208252,0.4884171485900879,0.6799532771110535
1733230368456868900,8.676868896484375,10.532093048095703,0.0071826050989329815,0.5937620401382446
1733230368466879000,8.68687890625,10.893617630004883,-0.38307225704193115,0.20111294090747833
1733230368476857600,8.696857666015624,11.590330123901367,-0.608127236366272,-0.13407529890537262
1733230368486867500,8.706867431640624,12.140996932983398,-0.608127236366272,-0.1843535304069519
1733230368496877300,8.716877197265624,12.349292755126953,-0.37828385829925537,-0.28969839215278625
1733230368506856400,8.7268564453125,11.961431503295898,-0.15322890877723694,-0.4405331015586853
1733230368516866300,8.7368662109375,11.307814598083496,-0.026336219161748886,-0.5051765441894531
1733230368526876200,8.746876220703125,10.438719749450684,0.20350714027881622,-0.6248866319656372
1733230368536885800,8.7568857421875,9.718064308166504,0.4118026793003082,-0.9074024558067322
1733230368546865200,8.766865234375,9.162610054016113,0.507570743560791,-1.0582371950149536
1733230368556874800,8.776874755859374,8.918401718139648,0.5554547905921936,-1.1228805780410767
1733230368566884600,8.786884521484374,8.78193187713623,0.4572925269603729,-0.9768342971801758
1733230368576863700,8.79686376953125,8.827422142028809,0.2849099934101105,-0.7805097699165344
1733230368586873600,8.80687353515625,8.999804496765137,0.033518824726343155,-0.42856210470199585
1733230368596883200,8.81688330078125,9.23443603515625,-0.24660277366638184,-0.21787235140800476
1733230368606862600,8.826862548828124,9.457097053527832,-0.5195417404174805,-0.3663128614425659
1733230368616872400,8.83687255859375,9.66299819946289,-0.7015010714530945,-0.7110779285430908
1733230368626882000,8.846882080078124,9.708487510681152,-0.7134721279144287,-0.9002198576927185
1733230368636861400,8.856861328125,9.651026725769043,-0.47405192255973816,-1.1516109704971313
1733230368646871300,8.866871337890625,9.50498104095459,-0.5051765441894531,-1.1994950771331787
1733230368656881000,8.876880859375,9.11233139038086,-0.49320554733276367,-0.8882488012313843
1733230368666860300,8.8868603515625,8.762778282165527,-0.16998831927776337,-0.9720458984375
1733230368676870100,8.8968701171875,8.216899871826172,-0.06703764945268631,-1.0989385843276978
1733230368686879700,8.906879638671874,7.807491779327393,-0.031124621629714966,-1.1971008777618408
1733230368696859000,8.91685888671875,7.565677165985107,-0.07661445438861847,-1.161187767982483
1733230368706868700,8.92686865234375,7.484274387359619,-0.2106897532939911,-1.01753568649292
1733230368716878300,8.93687841796875,7.6997528076171875,-0.4213795065879822,-1.0414776802062988
1733230368726857700,8.946857666015624,8.276755332946777,-0.6991068720817566,-1.1420341730117798
1733230368736867600,8.95686767578125,8.954314231872559,-0.9696516990661621,-1.2497732639312744
1733230368746877400,8.96687744140625,9.888052940368652,-1.1779472827911377,-1.4269442558288574
1733230368756856600,8.976856689453125,10.74996566772461,-1.256955862045288,-1.4867992401123047
1733230368766866400,8.986866455078125,11.592724800109863,-1.2330138683319092,-1.45806884765625
1733230368776876000,8.9968759765625,11.96861457824707,-1.1276689767837524,-1.3838485479354858
1733230368786886000,9.006885986328125,11.920730590820312,-0.9433154463768005,-1.2210428714752197
1733230368796865000,9.016864990234374,11.41555404663086,-0.7565677165985107,-0.9744400978088379
1733230368806874600,9.02687451171875,10.615890502929688,-0.4572925269603729,-0.6105214357376099
1733230368816884500,9.036884521484374,9.801861763000488,-0.1867477297782898,-0.4118026793003082
1733230368826863900,9.04686376953125,9.093177795410156,0.0694318488240242,-0.22505496442317963
1733230368836873500,9.05687353515625,8.69095230102539,0.2753331959247589,-0.035913024097681046
1733230368846883300,9.06688330078125,8.549694061279297,0.43335050344467163,0.08379705995321274
1733230368856862700,9.07686279296875,8.561665534973145,0.5339069962501526,0.17238251864910126
1733230368866872600,9.08687255859375,8.683769226074219,0.5650315880775452,0.22266076505184174
1733230368876882200,9.096882080078124,8.846575736999512,0.5578489899635315,0.24660277366638184
1733230368886861300,9.106861328125,9.040505409240723,0.5195417404174805,0.23702596127986908
1733230368896871200,9.11687109375,9.258378028869629,0.40222588181495667,0.20111294090747833
1733230368906880800,9.126880859375,9.526528358459473,0.2801215946674347,0.13168109953403473
1733230368916860200,9.136860107421874,9.832986831665039,0.16998831927776337,0.033518824726343155
1733230368926870000,9.1468701171875,10.08437728881836,0.11252748221158981,-0.07900865375995636
1733230368936879600,9.156879638671874,10.350133895874023,0,-0.10055647045373917
1733230368946859000,9.16685888671875,10.488997459411621,0,-0.1412578970193863
1733230368956868900,9.176868896484375,10.474632263183594,0.021547814831137657,-0.24420857429504395
1733230368966878500,9.18687841796875,10.369287490844727,0.026336219161748886,-0.3256114423274994
1733230368976857900,9.19685791015625,10.20648193359375,0.038307227194309235,-0.40222588181495667
1733230368986867500,9.206867431640624,10.077195167541504,0.05027823522686958,-0.4644751250743866
1733230368996877000,9.216876953125,9.93354320526123,0.016759412363171577,-0.4884171485900879
1733230369006856400,9.2268564453125,9.830592155456543,0,-0.49559974670410156
1733230369016866300,9.2368662109375,9.835380554199219,-0.019153613597154617,-0.5051765441894531
1733230369026876000,9.2468759765625,9.90241813659668,-0.043095629662275314,-0.45489832758903503
1733230369036885800,9.2568857421875,9.928754806518555,-0.090979665517807,-0.3423708379268646
1733230369046865200,9.266865234375,9.931148529052734,-0.0933738648891449,-0.21787235140800476
1733230369056875000,9.276875,9.955090522766113,-0.05746084079146385,-0.15083470940589905
1733230369066884600,9.286884521484374,9.93354320526123,-0.021547814831137657,-0.10534487664699554
1733230369076863700,9.29686376953125,9.871294021606445,-0.019153613597154617,-0.10295066982507706
1733230369086873600,9.30687353515625,9.880870819091797,0.028730420395731926,-0.13407529890537262
1733230369096883200,9.31688330078125,9.856928825378418,0.14604631066322327,-0.19393034279346466
1733230369106862600,9.326862548828124,9.825803756713867,0.21308395266532898,-0.19153612852096558
1733230369116872400,9.33687255859375,9.720458984375,0.24420857429504395,-0.15562310814857483
1733230369126882000,9.346882080078124,9.634267807006836,0.272938996553421,-0.07661445438861847
1733230369136861400,9.356861328125,9.543288230895996,0.2944868206977844,-0.002394201699644327
1733230369146871300,9.366871337890625,9.528923034667969,0.28969839215278625,0.002394201699644327
1733230369156881000,9.376880859375,9.610325813293457,0.3280056416988373,-0.07900865375995636
1733230369166860300,9.3868603515625,9.806650161743164,0.3687070608139038,-0.15562310814857483
1733230369176870100,9.3968701171875,9.943120002746582,0.40701428055763245,-0.19632454216480255
1733230369186879700,9.406879638671874,10.029311180114746,0.40701428055763245,-0.2322375625371933
1733230369196859000,9.41685888671875,10.074800491333008,0.4357447028160095,-0.2585737705230713
1733230369206868700,9.42686865234375,10.110713958740234,0.47165772318840027,-0.3519476354122162
1733230369216878300,9.43687841796875,10.177751541137695,0.5003881454467773,-0.3734954595565796
1733230369226857700,9.446857666015624,10.26394271850586,0.5626373887062073,-0.35434186458587646
1733230369236867600,9.45686767578125,10.338163375854492,0.6272808313369751,-0.272938996553421
1733230369246877200,9.466877197265624,10.393229484558105,0.6703764796257019,-0.21787235140800476
1733230369256856600,9.476856689453125,10.398017883300781,0.6943184733390808,-0.12449848651885986
1733230369266866400,9.486866455078125,10.38604736328125,0.751779317855835,-0.05746084079146385
1733230369276876300,9.496876220703125,10.366893768310547,0.7206547260284424,-0.033518824726343155
1733230369286886000,9.506885986328125,10.398017883300781,0.6943184733390808,0
1733230369296865000,9.516864990234374,10.484209060668945,0.586579442024231,0.09816227108240128
1733230369306875000,9.526875,10.63743782043457,0.5339069962501526,0.12689268589019775
1733230369316884500,9.536884521484374,10.991780281066895,0.5434837937355042,0.047884032130241394
1733230369326864000,9.54686376953125,11.334151268005371,0.5817909836769104,-0.026336219161748886
1733230369336873700,9.556873779296875,11.652579307556152,0.6200982332229614,-0.17477671802043915
1733230369346883300,9.56688330078125,11.817779541015625,0.5937620401382446,-0.3016694188117981
1733230369356862700,9.57686279296875,11.841721534729004,0.49799394607543945,-0.2944868206977844
1733230369366872600,9.58687255859375,11.688492774963379,0.2753331959247589,-0.17238251864910126
1733230369376882200,9.596882080078124,11.530475616455078,-0.0694318488240242,-0.12928688526153564
1733230369386861300,9.606861328125,11.480196952819824,-0.4429273009300232,-0.15322890877723694
1733230369396871200,9.61687109375,11.57357120513916,-0.849941611289978,-0.2106897532939911
1733230369406880800,9.626880859375,11.741165161132812,-1.1803414821624756,-0.3711012601852417
1733230369416860200,9.636860107421874,11.75792407989502,-1.3311761617660522,-0.5171475410461426
1733230369426870000,9.6468701171875,11.4849853515625,-1.2976573705673218,-0.44532153010368347
1733230369436879600,9.656879638671874,10.96304988861084,-1.170764684677124,-0.4141969084739685
1733230369446859000,9.66685888671875,10.08437728881836,-1.039083480834961,-0.42377370595932007
1733230369456868900,9.676868896484375,9.342175483703613,-0.9696516990661621,-0.29209262132644653
1733230369466878500,9.68687841796875,8.573636054992676,-0.8092401623725891,-0.15083470940589905
1733230369476857600,9.696857666015624,7.9631147384643555,-0.6416460275650024,-0.016759412363171577
1733230369486867500,9.706867431640624,7.400477409362793,-0.4836287498474121,0.12449848651885986
1733230369496877300,9.716877197265624,7.110779285430908,-0.3519476354122162,0.2825157940387726
1733230369506856400,9.7268564453125,6.876147270202637,-0.22266076505184174,0.38067805767059326
1733230369516866300,9.7368662109375,6.89530086517334,-0.19153612852096558,0.586579442024231
1733230369526876200,9.746876220703125,7.067683219909668,-0.2513911724090576,0.7996633648872375
1733230369536885800,9.7568857421875,7.383718013763428,-0.3519476354122162,1.015141487121582
1733230369546865200,9.766865234375,7.7643961906433105,-0.43095630407333374,1.1683704853057861
1733230369556874800,9.776874755859374,8.20732307434082,-0.5602431893348694,1.37906014919281
1733230369566884600,9.786884521484374,8.540117263793945,-0.6488286852836609,1.4891934394836426
1733230369576863700,9.79686376953125,8.827422142028809,-0.7613561153411865,1.5131354331970215
1733230369586873600,9.80687353515625,9.057265281677246,-0.8307880163192749,1.6160861253738403
1733230369596883500,9.816883544921875,9.284713745117188,-0.9672574996948242,1.6639702320098877
1733230369606862600,9.826862548828124,9.490615844726562,-1.1180921792984009,1.647210717201233
1733230369616872400,9.83687255859375,9.75637149810791,-1.280897855758667,1.6639702320098877
1733230369626882000,9.846882080078124,10.089165687561035,-1.4317326545715332,1.678335428237915
1733230369636861400,9.856861328125,10.38604736328125,-1.580173134803772,1.656787633895874
1733230369646871300,9.866871337890625,10.776301383972168,-1.6639702320098877,1.6112977266311646
1733230369656881000,9.876880859375,11.133037567138672,-1.6855180263519287,1.5203180313110352
1733230369666860300,9.8868603515625,11.41555404663086,-1.6519991159439087,1.3335703611373901
1733230369676870100,9.8968701171875,11.54005241394043,-1.5418659448623657,1.1204863786697388
1733230369686879700,9.906879638671874,11.508927345275879,-1.3239935636520386,0.9433154463768005
1733230369696859000,9.91685888671875,11.362881660461426,-1.1899182796478271,0.8667010068893433
1733230369706868700,9.92686865234375,11.082759857177734,-0.993593692779541,0.9145850539207458
1733230369716878300,9.93687841796875,10.682928085327148,-0.8307880163192749,0.9959878921508789
1733230369726857700,9.946857666015624,10.20887565612793,-0.6392518281936646,1.0534487962722778
1733230369736867600,9.95686767578125,9.856928825378418,-0.4692635238170624,1.0749965906143188
1733230369746877400,9.96687744140625,9.63187313079834,-0.3495534360408783,1.0965443849563599
1733230369756856600,9.976856689453125,9.557653427124023,-0.2849099934101105,1.1276689767837524
1733230369766866400,9.986866455078125,9.581595420837402,-0.23702596127986908,1.0893617868423462
1733230369776876000,9.9968759765625,9.643844604492188,-0.21787235140800476,1.0462661981582642
1733230369786886000,10.006885986328125,9.734824180603027,-0.2082955539226532,1.0127472877502441
1733230369796865000,10.016864990234374,9.837775230407715,-0.13407529890537262,0.9959878921508789
1733230369806874600,10.02687451171875,9.825803756713867,-0.1364694982767105,0.9864110946655273
1733230369816884500,10.036884521484374,9.763554573059082,-0.14365209639072418,0.9720458984375
1733230369826863900,10.04686376953125,9.674968719482422,-0.15322890877723694,0.9696516990661621
1733230369836873500,10.05687353515625,9.607931137084961,-0.2585737705230713,0.9624691009521484
1733230369846883300,10.06688330078125,9.639056205749512,-0.3256114423274994,0.933738648891449
1733230369856862700,10.07686279296875,9.727641105651855,-0.37828385829925537,0.8738836050033569
1733230369866872600,10.08687255859375,9.890447616577148,-0.43335050344467163,0.7996633648872375
1733230369876882200,10.096882080078124,10.067618370056152,-0.4620809257030487,0.7876923680305481
1733230369886861300,10.106861328125,10.249577522277832,-0.4812345504760742,0.7350199222564697
1733230369896871200,10.11687109375,10.333374977111816,-0.4644751250743866,0.7182605266571045
1733230369906880800,10.126880859375,10.266336441040039,-0.40701428055763245,0.727837324142456
1733230369916860200,10.136860107421874,10.11550235748291,-0.3495534360408783,0.6727706789970398
1733230369926870000,10.1468701171875,9.96945571899414,-0.2513911724090576,0.5746083855628967
1733230369936879600,10.156879638671874,9.732429504394531,-0.16759411990642548,0.5267243981361389
1733230369946859000,10.16685888671875,9.674968719482422,-0.10295066982507706,0.45489832758903503
1733230369956868900,10.176868896484375,9.593565940856934,-0.0694318488240242,0.43335050344467163
1733230369966878500,10.18687841796875,9.57201862335205,-0.07422025501728058,0.45489832758903503
1733230369976857900,10.19685791015625,9.531316757202148,-0.1149216815829277,0.45010992884635925
1733230369986867500,10.206867431640624,9.567230224609375,-0.15562310814857483,0.4596867263317108
1733230369996877000,10.216876953125,9.586383819580078,-0.15562310814857483,0.49799394607543945
1733230370006856400,10.2268564453125,9.59596061706543,-0.1628057211637497,0.5099649429321289
1733230370016866300,10.2368662109375,9.615114212036133,-0.09576806426048279,0.5051765441894531
1733230370026876000,10.2468759765625,9.612719535827637,-0.07422025501728058,0.47884035110473633
1733230370036885800,10.2568857421875,9.591172218322754,-0.035913024097681046,0.5722141861915588
1733230370046865200,10.266865234375,9.50737476348877,-0.014365210197865963,0.6560112833976746
1733230370056875000,10.276875,9.478644371032715,0.021547814831137657,0.6967126727104187
1733230370066884600,10.286884521484374,9.48343276977539,0.07661445438861847,0.7110779285430908
1733230370076863700,10.29686376953125,9.497797966003418,0.09816227108240128,0.7661445140838623
1733230370086873600,10.30687353515625,9.481039047241211,0.090979665517807,0.7805097699165344
1733230370096883500,10.316883544921875,9.469067573547363,0.13407529890537262,0.7493851184844971
1733230370106862600,10.326862548828124,9.473855972290039,0.1364694982767105,0.6727706789970398
1733230370116872400,10.33687255859375,9.564835548400879,0.17477671802043915,0.6536170840263367
1733230370126882000,10.346882080078124,9.646238327026367,0.23702596127986908,0.5722141861915588
1733230370136861400,10.356861328125,9.758766174316406,0.2298433631658554,0.4596867263317108
1733230370146871300,10.366871337890625,9.964667320251465,0.24181437492370605,0.3711012601852417
1733230370156881000,10.376880859375,10.323798179626465,0.19153612852096558,0.4357447028160095
1733230370166860300,10.3868603515625,10.90558910369873,0.181959331035614,0.6584054827690125
1733230370176870100,10.3968701171875,10.38604736328125,0.43095630407333374,0.24181437492370605
1733230370186879700,10.406879638671874,9.653421401977539,0.48602294921875,0.08619125932455063
1733230370196859000,10.41685888671875,9.437943458557129,0.5363011956214905,0.17477671802043915
1733230370206868700,10.42686865234375,9.361329078674316,0.6344634294509888,0.3447650372982025
1733230370216878300,10.43687841796875,9.260771751403809,0.6727706789970398,0.29209262132644653
1733230370226857700,10.446857666015624,9.284713745117188,0.689530074596405,0.2825157940387726
1733230370236867600,10.45686767578125,9.3828763961792,0.6416460275650024,0.3471592366695404
1733230370246877200,10.466877197265624,9.543288230895996,0.5051765441894531,0.3663128614425659
1733230370256856600,10.476856689453125,9.725247383117676,0.30885201692581177,0.4118026793003082
1733230370266866400,10.486866455078125,9.93354320526123,0.19153612852096558,0.3734954595565796
1733230370276876300,10.496876220703125,10.163386344909668,0.11971008777618408,0.31603461503982544
1733230370286886000,10.506885986328125,10.347740173339844,0.05027823522686958,0.31842881441116333
1733230370296865000,10.516864990234374,10.378864288330078,0.014365210197865963,0.3471592366695404
1733230370306875000,10.526875,10.29746150970459,-0.014365210197865963,0.40462008118629456
1733230370316884500,10.536884521484374,10.079588890075684,0.019153613597154617,0.4620809257030487
1733230370326864000,10.54686376953125,9.720458984375,0.15083470940589905,0.4213795065879822
1733230370336873700,10.556873779296875,9.279925346374512,0.22026655077934265,0.395043283700943
1733230370346883300,10.56688330078125,8.980650901794434,0.22505496442317963,0.4165911078453064
1733230370356862700,10.57686279296875,8.992621421813965,0.3064578175544739,0.35434186458587646
