time,seconds_elapsed,z,y,x
1733237668468680200,0.19168017578125,-0.05864306539297104,0.04642575979232788,0.19058994948863983
1733237668479401000,0.20240087890625,-0.08368854224681854,0.03848451003432274,0.18570303916931152
1733237668488939500,0.211939453125,-0.10445795953273773,0.031154127791523933,0.1459967941045761
1733237668498928000,0.22192822265625,-0.12461651116609573,0.024434609338641167,0.07513642311096191
1733237668508929000,0.231928955078125,-0.1319468915462494,0.0507018156349659,-0.05314527451992035
1733237668518917000,0.241917236328125,-0.12217304855585098,0.06414084881544113,-0.12095131725072861
1733237668528948500,0.251948486328125,-0.1062905490398407,0.05314527451992035,-0.16432274878025055
1733237668538906000,0.261906005859375,-0.08857546001672745,0.016493361443281174,-0.1820378452539444
1733237668548937200,0.271937255859375,-0.0708603709936142,-0.021380282938480377,-0.1722639948129654
1733237668558925800,0.28192578125,-0.0555887371301651,-0.04948008432984352,-0.1459967941045761
1733237668568926200,0.29192626953125,-0.042760565876960754,-0.0708603709936142,-0.10690141469240189
1733237668578914800,0.301914794921875,-0.036651913076639175,-0.06902777403593063,-0.05314527451992035
1733237668588945700,0.311945556640625,-0.0403171069920063,-0.04948008432984352,0.03176499158143997
1733237668598903800,0.32190380859375,-0.025045474991202354,-0.039706241339445114,0.07696902006864548
1733237668608935000,0.331934814453125,0.003054326167330146,-0.042760565876960754,0.12217304855585098
1733237668618923300,0.34192333984375,0.031154127791523933,-0.056810468435287476,0.16982053220272064
1733237668628923600,0.351923583984375,0.054367005825042725,-0.06780604273080826,0.21807889640331268
1733237668638912300,0.361912353515625,0.07269296050071716,-0.06841690838336945,0.26511552929878235
1733237668648943000,0.371943115234375,0.0708603709936142,-0.07330382615327835,0.294437050819397
1733237668658929700,0.3819296875,0.048258353024721146,-0.06658431142568588,0.2993239760398865
1733237668668934100,0.39193408203125,0.03298672288656235,-0.03420845419168472,0.2877175211906433
1733237668678921000,0.4019208984375,0.014049900695681572,-0.036651913076639175,0.24495697021484375
1733237668688923400,0.41192333984375,0.003054326167330146,-0.07819075137376785,0.17776179313659668
1733237668698910000,0.421909912109375,0.01466076634824276,-0.11178833991289139,0.11301007121801376
1733237668708942800,0.43194287109375,0.04581489413976669,-0.1258382350206375,0.05742133408784866
1733237668718929400,0.441929443359375,0.08002334833145142,-0.1368338167667389,0.00855211354792118
1733237668728932000,0.45193212890625,0.11239920556545258,-0.15027284622192383,-0.03726277872920036
1733237668738918400,0.46191845703125,0.13439035415649414,-0.20341812074184418,-0.1014036312699318
1733237668748951600,0.47195166015625,0.13805554807186127,-0.21991148591041565,-0.11301007121801376
1733237668758907400,0.481907470703125,0.1563815027475357,-0.18875735998153687,-0.0959058403968811
1733237668768940300,0.491940185546875,0.19364428520202637,-0.13072516024112701,-0.05619960278272629
1733237668778927000,0.501927001953125,0.24495697021484375,-0.059864792972803116,-0.007941247895359993
1733237668788929800,0.5119296875,0.30604347586631775,0.005497787147760391,0.04459316283464432
1733237668798916000,0.521916015625,0.35613444447517395,0.05925392732024193,0.08552113175392151
1733237668808949200,0.53194921875,0.3842342495918274,0.10934487730264664,0.10384709388017654
1733237668818905000,0.541905029296875,0.3878994286060333,0.10506882518529892,0.08735372871160507
1733237668828938200,0.551938232421875,0.38117989897727966,0.06902777403593063,0.05253441259264946
1733237668838924300,0.56192431640625,0.37201693654060364,0.033597588539123535,0.02076941914856434
1733237668848927500,0.571927490234375,0.35063666105270386,0.015882495790719986,0.00427605677396059
1733237668858913500,0.58191357421875,0.3139847218990326,0.03481931984424591,0.012217304669320583
1733237668868946700,0.59194677734375,0.27550023794174194,0.09529497474431992,0.027488935738801956
1733237668878902500,0.601902587890625,0.2687807083129883,0.2535090744495392,0.04642575979232788
1733237668888936000,0.61193603515625,0.28955012559890747,0.3683517575263977,0.04642575979232788
1733237668898922200,0.621922119140625,0.31093040108680725,0.4434881806373596,0.022602014243602753
1733237668908924700,0.631924560546875,0.3182607889175415,0.4434881806373596,-0.025045474991202354
1733237668918911000,0.641910888671875,0.3084869384765625,0.3744603991508484,-0.09529497474431992
1733237668928944400,0.6519443359375,0.2779437005519867,0.29077184200286865,-0.16859880089759827
1733237668938900000,0.66189990234375,0.2431243658065796,0.21502456068992615,-0.23884831368923187
1733237668948933000,0.67193310546875,0.21930062770843506,0.17776179313659668,-0.2926044464111328
1733237668958919400,0.68191943359375,0.21624629199504852,0.18387043476104736,-0.30604347586631775
1733237668968952600,0.69195263671875,0.2382374405860901,0.1918116807937622,-0.24373523890972137
1733237668978908700,0.70190869140625,0.2681698501110077,0.22907446324825287,-0.1270599663257599
1733237668988941800,0.71194189453125,0.2877175211906433,0.2791654169559479,0.018936822190880775
1733237668998928400,0.721928466796875,0.2938261926174164,0.32131510972976685,0.1667662113904953
1733237669008930800,0.731930908203125,0.2834414839744568,0.3585779070854187,0.28955012559890747
1733237669018917000,0.741917236328125,0.26511552929878235,0.3878994286060333,0.3677408695220947
1733237669028950500,0.751950439453125,0.22113321721553802,0.3903428912162781,0.4086688458919525
1733237669038906000,0.761906005859375,0.18936823308467865,0.34147366881370544,0.3897320330142975
1733237669048939500,0.771939453125,0.16737708449363708,0.2577851414680481,0.35246923565864563
1733237669058925800,0.78192578125,0.15577064454555511,0.1814269721508026,0.31520646810531616
1733237669068928300,0.79192822265625,0.15332718193531036,0.12461651116609573,0.28527405858039856
1733237669078914800,0.801914794921875,0.1472185254096985,0.0659734457731247,0.26450464129447937
1733237669088948000,0.811947998046875,0.13744467496871948,0.012828170321881771,0.2571742534637451
1733237669098903800,0.82190380859375,0.09957103431224823,-0.04092797264456749,0.2730567753314972
1733237669108936000,0.83193603515625,0.0659734457731247,-0.06536258012056351,0.2932153046131134
1733237669118922800,0.8419228515625,0.03787364438176155,-0.06841690838336945,0.3225368559360504
1733237669128925400,0.851925537109375,0.013439035043120384,-0.06719517707824707,0.3549126982688904
1733237669138912000,0.861912109375,-0.00855211354792118,-0.0708603709936142,0.3885102868080139
1733237669148945000,0.87194482421875,-0.028099801391363144,-0.07330382615327835,0.413555771112442
1733237669158901000,0.88190087890625,-0.04398229718208313,-0.0910189226269722,0.4202753007411957
1733237669168934000,0.891933837890625,-0.04092797264456749,-0.13866640627384186,0.4043927788734436
1733237669178920400,0.90192041015625,0.0006108652451075613,-0.23884831368923187,0.3738495409488678
1733237669188923100,0.911923095703125,0.042760565876960754,-0.2938261926174164,0.3744603991508484
1733237669198909200,0.9219091796875,0.07513642311096191,-0.34086281061172485,0.3927863538265228
1733237669208942800,0.93194287109375,0.08552113175392151,-0.3781255781650543,0.4184426963329315
1733237669218929400,0.941929443359375,0.09285151958465576,-0.39156460762023926,0.4434881806373596
1733237669228931800,0.951931884765625,0.10995574295520782,-0.3836233615875244,0.4508185386657715
1733237669238918400,0.96191845703125,0.13866640627384186,-0.35246923565864563,0.4300491213798523
1733237669248951300,0.971951416015625,0.17287486791610718,-0.2742784917354584,0.35246923565864563
1733237669258907400,0.981907470703125,0.1820378452539444,-0.1875356286764145,0.2742784917354584
1733237669268940500,0.9919404296875,0.18997909128665924,-0.09712757170200348,0.17409659922122955
1733237669278926800,1.0019267578125,0.19792033731937408,-0.04337143152952194,0.04764748737215996
1733237669288929500,1.011929443359375,0.19547687470912933,-0.027488935738801956,-0.08979719132184982
1733237669298916000,1.021916015625,0.16554448008537292,-0.054367005825042725,-0.23273965716362
1733237669308949000,1.031948974609375,0.11362093687057495,-0.12522737681865692,-0.37140607833862305
1733237669318905000,1.041905029296875,0.022602014243602753,-0.26939156651496887,-0.5259549617767334
1733237669328936000,1.05193603515625,-0.03481931984424591,-0.36529740691185,-0.5815436840057373
1733237669338924300,1.06192431640625,-0.08246681094169617,-0.4392121136188507,-0.5925393104553223
1733237669348924400,1.07192431640625,-0.1270599663257599,-0.4691445231437683,-0.5626068711280823
1733237669358913500,1.08191357421875,-0.17104226350784302,-0.44715335965156555,-0.5015203952789307
1733237669368943900,1.09194384765625,-0.20952677726745605,-0.3701843321323395,-0.41722095012664795
1733237669378902500,1.101902587890625,-0.22663100063800812,-0.252287358045578,-0.303600013256073
1733237669388933600,1.11193359375,-0.2223549485206604,-0.1417207419872284,-0.16004669666290283
1733237669398922000,1.121921875,-0.21380282938480377,-0.04886921867728233,0.0757472887635231
1733237669408922600,1.131922607421875,-0.2174680233001709,-0.021991148591041565,0.22113321721553802
1733237669418911000,1.141910888671875,-0.2217440903186798,-0.018325956538319588,0.342695415019989
1733237669428944100,1.151944091796875,-0.22968533635139465,-0.021991148591041565,0.4355469346046448
1733237669438900000,1.16189990234375,-0.24923302233219147,-0.03848451003432274,0.48685958981513977
1733237669448932400,1.171932373046875,-0.2834414839744568,-0.05925392732024193,0.4911356568336487
1733237669458919400,1.18191943359375,-0.3280346393585205,-0.08796459436416626,0.4331034719944
1733237669468952000,1.1919521484375,-0.4190535545349121,-0.15515977144241333,0.21868975460529327
1733237669478908700,1.20190869140625,-0.47280970215797424,-0.21930062770843506,0.0012217304902151227
1733237669488941800,1.21194189453125,-0.5064072608947754,-0.2871066629886627,-0.24984388053417206
1733237669498928000,1.22192822265625,-0.5112941861152649,-0.33047810196876526,-0.5015203952789307
1733237669508931000,1.23193115234375,-0.4795292317867279,-0.33047810196876526,-0.7189884185791016
1733237669518917000,1.241917236328125,-0.4086688458919525,-0.2779437005519867,-0.8637634515762329
1733237669528948200,1.2519482421875,-0.3084869384765625,-0.2119702398777008,-0.9150761365890503
1733237669538906000,1.261906005859375,-0.14782938361167908,-0.17409659922122955,-0.8497135639190674
1733237669548937200,1.271937255859375,-0.051312681287527084,-0.17409659922122955,-0.7330383062362671
1733237669558925800,1.28192578125,0.02687807008624077,-0.18509216606616974,-0.5809328556060791
1733237669568926200,1.29192626953125,0.07330382615327835,-0.2076941877603531,-0.4239404797554016
1733237669578914800,1.301914794921875,0.07880161702632904,-0.2620611786842346,-0.2877175211906433
1733237669588947700,1.31194775390625,0.06902777403593063,-0.32559117674827576,-0.1765400618314743
1733237669598903800,1.32190380859375,0.06352998316287994,-0.37201693654060364,-0.09529497474431992
1733237669608937000,1.33193701171875,0.06658431142568588,-0.3933972120285034,-0.051312681287527084
1733237669618923300,1.34192333984375,0.06902777403593063,-0.3683517575263977,-0.02932153269648552
1733237669628926000,1.351926025390625,0.05497787147760391,-0.3084869384765625,-0.013439035043120384
1733237669638912300,1.361912353515625,0.027488935738801956,-0.23335053026676178,0.00366519158706069
1733237669648945400,1.3719453125,-0.005497787147760391,-0.15393804013729095,0.025045474991202354
1733237669658901200,1.3819013671875,-0.03481931984424591,-0.06352998316287994,0.05192354694008827
1733237669668934700,1.3919345703125,-0.059864792972803116,0.02015855349600315,0.07941248267889023
1733237669678921000,1.4019208984375,-0.08552113175392151,0.07513642311096191,0.09162978827953339
1733237669688923600,1.411923583984375,-0.11362093687057495,0.09040805697441101,0.0806342139840126
1733237669698910000,1.421909912109375,-0.13255776464939117,0.08002334833145142,0.04886921867728233
1733237669708943000,1.431943115234375,-0.15760323405265808,0.05192354694008827,-0.007941247895359993
1733237669718929400,1.441929443359375,-0.182648703455925,0.018325956538319588,-0.07941248267889023
1733237669728932400,1.451932373046875,-0.2064724564552307,-0.0024434609804302454,-0.1514945775270462
1733237669738918400,1.46191845703125,-0.22479841113090515,0.003054326167330146,-0.22052235901355743
1733237669748951800,1.471951904296875,-0.22846360504627228,0.029932396486401558,-0.27122417092323303
1733237669758907400,1.481907470703125,-0.2119702398777008,0.05619960278272629,-0.29504790902137756
1733237669768940300,1.491940185546875,-0.16432274878025055,0.11178833991289139,-0.2724458873271942
1733237669778927000,1.501927001953125,-0.11728613078594208,0.1612684279680252,-0.21135938167572021
1733237669788929500,1.511929443359375,-0.05864306539297104,0.20891591906547546,-0.12217304855585098
1733237669798916000,1.521916015625,0.0006108652451075613,0.24495697021484375,-0.0006108652451075613
1733237669808949000,1.531948974609375,0.04337143152952194,0.2577851414680481,0.1270599663257599
1733237669818905000,1.541905029296875,0.06169738993048668,0.2376265823841095,0.24129177629947662
1733237669828938200,1.551938232421875,0.06536258012056351,0.17531833052635193,0.3225368559360504
1733237669838924300,1.56192431640625,0.051312681287527084,0.018936822190880775,0.37751471996307373
1733237669848926700,1.5719267578125,0.04459316283464432,-0.1062905490398407,0.3805690407752991
1733237669858913500,1.58191357421875,0.0403171069920063,-0.22663100063800812,0.375071257352829
1733237669868946400,1.591946533203125,0.04459316283464432,-0.3292563557624817,0.3793473243713379
1733237669878902500,1.601902587890625,0.059864792972803116,-0.38240164518356323,0.40256020426750183
1733237669888935700,1.611935791015625,0.056810468435287476,-0.3995058834552765,0.4190535545349121
1733237669898922200,1.621922119140625,0.021991148591041565,-0.4190535545349121,0.38667771220207214
1733237669908924700,1.631924560546875,-0.06780604273080826,-0.4703662395477295,0.23090706765651703
1733237669918911000,1.641910888671875,-0.1508837193250656,-0.47708576917648315,0.07819075137376785
1733237669928941600,1.651941650390625,-0.251676470041275,-0.44837507605552673,-0.09040805697441101
1733237669938900000,1.66189990234375,-0.34147366881370544,-0.3481931984424591,-0.22968533635139465
1733237669948931000,1.67193115234375,-0.36713001132011414,-0.10873401165008545,-0.27000242471694946
1733237669958919700,1.681919677734375,-0.29565876722335815,0.26633724570274353,-0.1918116807937622
1733237669968950800,1.69195068359375,-0.14966198801994324,0.6805039048194885,-0.03298672288656235
1733237669978908700,1.70190869140625,0.04214970022439957,1.0427470207214355,0.16249015927314758
1733237669988939000,1.71193896484375,0.34758231043815613,1.3426817655563354,0.4447098970413208
1733237669998928400,1.721928466796875,0.5155702829360962,1.3726142644882202,0.5962044596672058
1733237670008928000,1.731927978515625,0.6279694437980652,1.2956452369689941,0.7037167549133301
1733237670018917400,1.74191748046875,0.6841690540313721,1.1276572942733765,0.7715228199958801
1733237670028950500,1.751950439453125,0.694553792476654,0.9089674949645996,0.8014551997184753
1733237670038906000,1.761906005859375,0.6676757335662842,0.6713408827781677,0.8045095205307007
1733237670048939300,1.771939208984375,0.6145304441452026,0.4392121136188507,0.7806857824325562
1733237670058925800,1.78192578125,0.5265658497810364,0.07880161702632904,0.6963863968849182
1733237670068928300,1.79192822265625,0.4691445231437683,-0.12461651116609573,0.6145304441452026
1733237670078914800,1.801914794921875,0.4092797040939331,-0.252287358045578,0.5167919993400574
1733237670088948000,1.811947998046875,0.3433062732219696,-0.32986724376678467,0.3952298164367676
1733237670098903800,1.82190380859375,0.27000242471694946,-0.36163222789764404,0.26083946228027344
1733237670108936000,1.83193603515625,0.20036379992961884,-0.33719760179519653,0.13011430203914642
1733237670118922800,1.8419228515625,0.13377949595451355,-0.26083946228027344,0.010995574295520782
1733237670128925400,1.851925537109375,0.0354301854968071,-0.1062905490398407,-0.15760323405265808
1733237670138911700,1.861911865234375,-0.021991148591041565,0.012217304669320583,-0.25595253705978394
1733237670148945000,1.87194482421875,-0.04948008432984352,0.13500121235847473,-0.32559117674827576
1733237670158901000,1.88190087890625,-0.048258353024721146,0.24190263450145721,-0.3591887652873993
1733237670168931800,1.891931884765625,-0.02015855349600315,0.3188716471195221,-0.3488040566444397
1733237670178920200,1.901920166015625,0.02626720629632473,0.36651915311813354,-0.2883284091949463
1733237670188921000,1.911921142578125,0.08185594528913498,0.37079519033432007,-0.18570303916931152
1733237670198909400,1.921909423828125,0.14049901068210602,0.3390302062034607,-0.05619960278272629
1733237670208940800,1.93194091796875,0.21563543379306793,0.2583959996700287,0.15821409225463867
1733237670218929400,1.941929443359375,0.2370157092809677,0.2064724564552307,0.2932153046131134
1733237670228932000,1.95193212890625,0.23335053026676178,0.15821409225463867,0.41172316670417786
1733237670238918400,1.96191845703125,0.21868975460529327,0.12217304855585098,0.5051855444908142
1733237670248951600,1.97195166015625,0.19608774781227112,0.08796459436416626,0.5754350423812866
1733237670258907400,1.981907470703125,0.17043140530586243,0.05864306539297104,0.616973876953125
1733237670268940500,1.9919404296875,0.13561208546161652,0.030543262138962746,0.6310238242149353
1733237670278927000,2.001927001953125,0.09834930300712585,-0.042760565876960754,0.588263213634491
1733237670288929500,2.011929443359375,0.10201449692249298,-0.10018189996480942,0.5351179838180542
1733237670298916000,2.021916015625,0.12828169763088226,-0.1508837193250656,0.4703662395477295
1733237670308949000,2.031948974609375,0.1618792861700058,-0.19486601650714874,0.39645153284072876
1733237670318905000,2.041905029296875,0.18875735998153687,-0.22663100063800812,0.32986724376678467
1733237670328938000,2.05193798828125,0.21441370248794556,-0.2278527319431305,0.2767219543457031
1733237670338924300,2.06192431640625,0.24923302233219147,-0.21563543379306793,0.24678955972194672
1733237670348927200,2.07192724609375,0.3066543638706207,-0.17592918872833252,0.252287358045578
1733237670358913500,2.08191357421875,0.3396410644054413,-0.16798794269561768,0.28099802136421204
1733237670368946400,2.091946533203125,0.35185837745666504,-0.18997909128665924,0.31459560990333557
1733237670378902500,2.101902587890625,0.33536502718925476,-0.22052235901355743,0.3433062732219696
1733237670388935700,2.111935791015625,0.3029891550540924,-0.2571742534637451,0.35246923565864563
1733237670398922000,2.121921875,0.26083946228027344,-0.3121521472930908,0.3292563557624817
1733237670408924700,2.131924560546875,0.22113321721553802,-0.3500257730484009,0.2840523421764374
1733237670418911000,2.141910888671875,0.19792033731937408,-0.3481931984424591,0.23273965716362
1733237670428944100,2.151944091796875,0.20097467303276062,-0.2571742534637451,0.17470745742321014
1733237670438900000,2.16189990234375,0.21930062770843506,-0.17776179313659668,0.13744467496871948
1733237670448933400,2.171933349609375,0.23640485107898712,-0.10873401165008545,0.08735372871160507
1733237670458919400,2.18191943359375,0.24678955972194672,-0.07452555745840073,0.019547687843441963
1733237670468952800,2.191952880859375,0.23335053026676178,-0.09834930300712585,-0.08552113175392151
1733237670478908700,2.20190869140625,0.17898350954055786,-0.18997909128665924,-0.22113321721553802
1733237670488940800,2.21194091796875,0.07513642311096191,-0.3243694305419922,-0.3799581825733185
1733237670498928000,2.22192822265625,-0.1661553531885147,-0.5106833577156067,-0.6310238242149353
1733237670508927700,2.231927734375,-0.3445279896259308,-0.5485569834709167,-0.769079327583313
1733237670518917000,2.241917236328125,-0.4911356568336487,-0.4715879559516907,-0.8515461683273315
1733237670528947500,2.251947509765625,-0.5656611919403076,-0.29993483424186707,-0.8546004891395569
1733237670538906000,2.261906005859375,-0.5448917746543884,-0.04459316283464432,-0.7635815739631653
1733237670548937200,2.271937255859375,-0.44287729263305664,0.2370157092809677,-0.5876523852348328
1733237670558925600,2.281925537109375,-0.29565876722335815,0.48808133602142334,-0.3597996234893799
1733237670568926200,2.29192626953125,-0.05253441259264946,0.7348709106445312,0.03237585723400116
1733237670578914800,2.301914794921875,0.07330382615327835,0.7861835956573486,0.2816088795661926
1733237670588947700,2.31194775390625,0.15271630883216858,0.7446447610855103,0.485027015209198
1733237670598903800,2.32190380859375,0.1618792861700058,0.6010913848876953,0.6059783101081848
1733237670608936200,2.331936279296875,0.09712757170200348,0.3543018400669098,0.6328563690185547
1733237670618923300,2.34192333984375,-0.036041051149368286,0.03298672288656235,0.5656611919403076
1733237670628925200,2.35192529296875,-0.21502456068992615,-0.30054569244384766,0.42210787534713745
1733237670638912300,2.361912353515625,-0.40072759985923767,-0.5546656250953674,0.22418753802776337
1733237670648944600,2.371944580078125,-0.5992587804794312,-0.6792821288108826,-0.1111774742603302
1733237670658931500,2.381931396484375,-0.6328563690185547,-0.6291912198066711,-0.31642818450927734
1733237670668934400,2.391934326171875,-0.5809328556060791,-0.48685958981513977,-0.4764748811721802
1733237670678921000,2.4019208984375,-0.4709770977497101,-0.2718350291252136,-0.578489363193512
1733237670688923400,2.41192333984375,-0.3274237811565399,-0.04948008432984352,-0.637132465839386
1733237670698910000,2.421909912109375,-0.18020524084568024,0.11362093687057495,-0.645684540271759
1733237670708943000,2.431943115234375,-0.06352998316287994,0.21563543379306793,-0.5821545720100403
1733237670718929400,2.441929443359375,0.027488935738801956,0.3084869384765625,-0.3927863538265228
1733237670728932000,2.45193212890625,0.03787364438176155,0.3494149148464203,-0.23640485107898712
1733237670738918400,2.46191845703125,0.025656340643763542,0.3732386529445648,-0.07269296050071716
1733237670748951600,2.47195166015625,0.009773843921720982,0.37262779474258423,0.08002334833145142
1733237670758907400,2.481907470703125,-0.00427605677396059,0.34147366881370544,0.21624629199504852
1733237670768940300,2.491940185546875,-0.016493361443281174,0.28099802136421204,0.3378084897994995
1733237670778926800,2.5019267578125,-0.01710422709584236,0.21074850857257843,0.44104471802711487
1733237670788929300,2.51192919921875,-0.018325956538319588,0.09712757170200348,0.5522221922874451
1733237670798916000,2.521916015625,-0.02626720629632473,0.033597588539123535,0.5931501388549805
1733237670808949000,2.531948974609375,-0.04948008432984352,-0.01038470957428217,0.6065891981124878
1733237670818904800,2.54190478515625,-0.08552113175392151,-0.028099801391363144,0.5864306092262268
1733237670828938000,2.55193798828125,-0.12950342893600464,-0.018936822190880775,0.53328537940979
1733237670838924300,2.56192431640625,-0.18387043476104736,-0.006108652334660292,0.44837507605552673
1733237670848926700,2.5719267578125,-0.242513507604599,0.005497787147760391,0.3292563557624817
1733237670858913500,2.58191357421875,-0.2993239760398865,0.015271631069481373,0.18814650177955627
1733237670868946700,2.59194677734375,-0.3543018400669098,0.01160643994808197,-0.0403171069920063
1733237670878902500,2.601902587890625,-0.35674530267715454,0.01710422709584236,-0.17776179313659668
1733237670888935700,2.611935791015625,-0.3280346393585205,0.059864792972803116,-0.28649580478668213
1733237670898922000,2.621921875,-0.2687807083129883,0.13377949595451355,-0.35613444447517395
1733237670908924700,2.631924560546875,-0.18448130786418915,0.20952677726745605,-0.39156460762023926
1733237670918911000,2.641910888671875,-0.08918632566928864,0.26511552929878235,-0.39217549562454224
1733237670928944400,2.6519443359375,0.006719517521560192,0.3127630054950714,-0.3543018400669098
1733237670938900000,2.66189990234375,0.12522737681865692,0.3445279896259308,-0.23579397797584534
1733237670948933000,2.67193310546875,0.16554448008537292,0.34208452701568604,-0.12339477986097336
1733237670958919700,2.681919677734375,0.1765400618314743,0.30115658044815063,-0.01038470957428217
1733237670968952600,2.69195263671875,0.17043140530586243,0.22052235901355743,0.08368854224681854
1733237670978908700,2.70190869140625,0.17287486791610718,0.12217304855585098,0.16004669666290283
1733237670988941800,2.71194189453125,0.19914206862449646,0.039706241339445114,0.21868975460529327
1733237670998928100,2.72192822265625,0.24617868661880493,-0.02687807008624077,0.252287358045578
1733237671008930600,2.7319306640625,0.2987131178379059,-0.07880161702632904,0.26083946228027344
1733237671018917000,2.741917236328125,0.3536909818649292,-0.12950342893600464,0.23273965716362
1733237671028950500,2.751950439453125,0.35185837745666504,-0.13255776464939117,0.20402899384498596
1733237671038906000,2.761906005859375,0.304210901260376,-0.14294247329235077,0.15515977144241333
1733237671048939500,2.771939453125,0.20891591906547546,-0.17776179313659668,0.07819075137376785
1733237671058925800,2.78192578125,0.07941248267889023,-0.1869247704744339,-0.01160643994808197
1733237671068928300,2.79192822265625,-0.05619960278272629,-0.13011430203914642,-0.0910189226269722
1733237671078914800,2.801914794921875,-0.14966198801994324,0.02932153269648552,-0.14233160018920898
1733237671088946000,2.81194580078125,-0.15882496535778046,0.4392121136188507,-0.1466076523065567
1733237671098903800,2.82190380859375,-0.06108652427792549,0.7519751191139221,-0.10873401165008545
1733237671108933000,2.83193310546875,0.09896016865968704,1.0183123350143433,-0.048258353024721146
1733237671118922800,2.8419228515625,0.2816088795661926,1.197295904159546,0.00733038317412138
1733237671128924700,2.851924560546875,0.4544837474822998,1.2596040964126587,0.039095375686883926
1733237671138911700,2.861911865234375,0.5949827432632446,1.2101240158081055,0.036041051149368286
1733237671148945000,2.87194482421875,0.6823364496231079,1.0555751323699951,-0.00427605677396059
1733237671158900700,2.881900634765625,0.6670648455619812,0.6695083379745483,-0.12889257073402405
1733237671168934000,2.891933837890625,0.5601634383201599,0.34636059403419495,-0.24007004499435425
1733237671178920400,2.90192041015625,0.41722095012664795,0.03726277872920036,-0.34574973583221436
1733237671188923100,2.911923095703125,0.27977627515792847,-0.18387043476104736,-0.4282165467739105
1733237671198909200,2.9219091796875,0.1918116807937622,-0.2883284091949463,-0.46731191873550415
1733237671208940800,2.93194091796875,0.14844025671482086,-0.2871066629886627,-0.45753806829452515
1733237671218929400,2.941929443359375,0.14538592100143433,-0.19425514340400696,-0.3995058834552765
1733237671228929800,2.9519296875,0.16737708449363708,-0.039706241339445114,-0.2987131178379059
1733237671238918100,2.961918212890625,0.21013765037059784,0.19547687470912933,-0.12095131725072861
1733237671248949500,2.971949462890625,0.23396138846874237,0.2968805134296417,-0.022602014243602753
1733237671258907400,2.981907470703125,0.25595253705978394,0.342695415019989,0.0555887371301651
1733237671268938200,2.991938232421875,0.2877175211906433,0.37262779474258423,0.1258382350206375
1733237671278926800,3.0019267578125,0.3335324227809906,0.4092797040939331,0.20586158335208893
1733237671288927500,3.011927490234375,0.39095374941825867,0.46242499351501465,0.30054569244384766
1733237671298916000,3.021916015625,0.45204028487205505,0.5064072608947754,0.4086688458919525
1733237671308949000,3.031948974609375,0.5320636034011841,0.503963828086853,0.5674937963485718
1733237671318905000,3.041905029296875,0.5644394755363464,0.4343251883983612,0.6536257863044739
1733237671328938200,3.051938232421875,0.5894849896430969,0.3182607889175415,0.7257078886032104
1733237671338924300,3.06192431640625,0.5864306092262268,0.1918116807937622,0.7819074988365173
1733237671348927200,3.07192724609375,0.5589417219161987,0.0757472887635231,0.8191702961921692
1733237671358913500,3.08191357421875,0.5070181488990784,-0.024434609338641167,0.836885392665863
1733237671368946400,3.091946533203125,0.44593164324760437,-0.10262536257505417,0.8319984674453735
1733237671378902500,3.101902587890625,0.3481931984424591,-0.17776179313659668,0.789237916469574
1733237671388935700,3.111935791015625,0.2779437005519867,-0.18570303916931152,0.7342600226402283
1733237671398922000,3.121921875,0.20463985204696655,-0.1765400618314743,0.656069278717041
1733237671408924700,3.131924560546875,0.13500121235847473,-0.1661553531885147,0.5577199459075928
1733237671418911000,3.141910888671875,0.07635815441608429,-0.16371189057826996,0.44226643443107605
1733237671428944100,3.151944091796875,0.015271631069481373,-0.1771509200334549,0.3182607889175415
1733237671438900000,3.16189990234375,-0.042760565876960754,-0.21074850857257843,0.18570303916931152
1733237671448933000,3.17193310546875,-0.08429940044879913,-0.24190263450145721,0.06352998316287994
1733237671458919400,3.18191943359375,-0.09407325088977814,-0.2064724564552307,-0.0757472887635231
1733237671468952600,3.19195263671875,-0.0708603709936142,-0.15760323405265808,-0.13377949595451355
1733237671478908700,3.20190869140625,-0.03298672288656235,-0.1258382350206375,-0.16432274878025055
1733237671488941600,3.211941650390625,0.006108652334660292,-0.13988813757896423,-0.17348572611808777
1733237671498928000,3.22192822265625,0.031154127791523933,-0.20341812074184418,-0.17043140530586243
1733237671508930600,3.2319306640625,0.04398229718208313,-0.29504790902137756,-0.16737708449363708
1733237671518917000,3.241917236328125,0.02871066704392433,-0.3927863538265228,-0.1661553531885147
1733237671528950500,3.251950439453125,-0.039706241339445114,-0.5027421116828918,-0.18325957655906677
1733237671538906000,3.261906005859375,-0.10873401165008545,-0.5448917746543884,-0.19914206862449646
1733237671548939300,3.271939208984375,-0.1765400618314743,-0.5424483418464661,-0.20586158335208893
1733237671558925600,3.281925537109375,-0.21441370248794556,-0.5143485069274902,-0.19853121042251587
1733237671568928300,3.29192822265625,-0.21441370248794556,-0.4508185386657715,-0.17776179313659668
1733237671578914800,3.301914794921875,-0.1820378452539444,-0.3842342495918274,-0.1612684279680252
1733237671588947700,3.31194775390625,-0.16371189057826996,-0.36651915311813354,-0.17959438264369965
1733237671598903800,3.32190380859375,-0.23029619455337524,-0.49846604466438293,-0.31031954288482666
1733237671608936200,3.331936279296875,-0.3500257730484009,-0.6157521605491638,-0.4508185386657715
1733237671618923300,3.34192333984375,-0.5015203952789307,-0.7067710757255554,-0.6004805564880371
1733237671628923000,3.3519228515625,-0.6511823534965515,-0.7269296646118164,-0.7281513810157776
1733237671638912300,3.361912353515625,-0.7544185519218445,-0.6511823534965515,-0.8020660877227783
1733237671648943400,3.371943359375,-0.770301103591919,-0.4960225820541382,-0.797789990901947
1733237671658901200,3.3819013671875,-0.6939429044723511,-0.2993239760398865,-0.7183775305747986
1733237671668932600,3.3919326171875,-0.5393940210342407,-0.08491026610136032,-0.5778785347938538
1733237671678921000,3.4019208984375,-0.26450464129447937,0.18875735998153687,-0.304210901260376
1733237671688921600,3.411921630859375,-0.11911872029304504,0.26145032048225403,-0.12767083942890167
1733237671698910000,3.421909912109375,-0.03237585723400116,0.24007004499435425,0.009162978269159794
1733237671708940800,3.43194091796875,-0.021380282938480377,0.1472185254096985,0.09712757170200348
1733237671718929400,3.441929443359375,-0.08735372871160507,0.01038470957428217,0.12522737681865692
1733237671728931000,3.45193115234375,-0.22296582162380219,-0.13866640627384186,0.09468411654233932
1733237671738918400,3.46191845703125,-0.39217549562454224,-0.2565633952617645,0.00366519158706069
1733237671748951800,3.471951904296875,-0.5644394755363464,-0.3084869384765625,-0.20341812074184418
1733237671758907400,3.481907470703125,-0.5662720799446106,-0.252287358045578,-0.33108896017074585
1733237671768940500,3.4919404296875,-0.494189977645874,-0.15271630883216858,-0.4251621961593628
1733237671778926800,3.5019267578125,-0.3683517575263977,-0.02687807008624077,-0.46853363513946533
1733237671788927500,3.511927490234375,-0.21624629199504852,0.11484266817569733,-0.44837507605552673
1733237671798916000,3.521916015625,-0.056810468435287476,0.24862214922904968,-0.36713001132011414
1733237671808947000,3.531947021484375,0.07024950534105301,0.3597996234893799,-0.2376265823841095
1733237671818905000,3.541905029296875,0.15454891324043274,0.43737950921058655,-0.08185594528913498
1733237671828936000,3.55193603515625,0.22296582162380219,0.5143485069274902,0.18020524084568024
1733237671838924500,3.561924560546875,0.24495697021484375,0.5467243790626526,0.3549126982688904
1733237671848927000,3.571927001953125,0.2565633952617645,0.5448917746543884,0.5076290369033813
1733237671858913500,3.58191357421875,0.2638937830924988,0.5027421116828918,0.6316346526145935
1733237671868946400,3.591946533203125,0.2785545587539673,0.4294382631778717,0.7305948138237
1733237671878902500,3.601902587890625,0.3066543638706207,0.33047810196876526,0.807563841342926
1733237671888935400,3.611935302734375,0.3390302062034607,0.23090706765651703,0.8637634515762329
1733237671898922000,3.621921875,0.36102136969566345,0.0910189226269722,0.9040805697441101
1733237671908924700,3.631924560546875,0.3543018400669098,0.012828170321881771,0.8943067193031311
1733237671918911000,3.641910888671875,0.3170390725135803,-0.05009094998240471,0.8527678847312927
1733237671928944400,3.6519443359375,0.26083946228027344,-0.08857546001672745,0.7745771408081055
1733237671938900000,3.66189990234375,0.1820378452539444,-0.1160643994808197,0.6603453159332275
1733237671948932600,3.6719326171875,0.08429940044879913,-0.13866640627384186,0.5106833577156067
1733237671958919700,3.681919677734375,-0.03848451003432274,-0.15393804013729095,0.3237585723400116
1733237671968952000,3.6919521484375,-0.2431243658065796,-0.1472185254096985,-0.00366519158706069
1733237671978908700,3.70190869140625,-0.3591887652873993,-0.09834930300712585,-0.22113321721553802
1733237671988941800,3.71194189453125,-0.44226643443107605,-0.015271631069481373,-0.4129449129104614
1733237671998928100,3.72192822265625,-0.484416127204895,0.0959058403968811,-0.5748242139816284
1733237672008930800,3.731930908203125,-0.4764748811721802,0.23029619455337524,-0.694553792476654
1733237672018917000,3.741917236328125,-0.4129449129104614,0.3695734739303589,-0.759305477142334
1733237672028950300,3.7519501953125,-0.31031954288482666,0.484416127204895,-0.7678576111793518
1733237672038906000,3.761906005859375,-0.1820378452539444,0.5595525503158569,-0.7147123217582703
1733237672048939300,3.771939208984375,0.00855211354792118,0.6035348773002625,-0.5461135506629944
1733237672058925800,3.78192578125,0.12339477986097336,0.5791002511978149,-0.39095374941825867
1733237672068928500,3.791928466796875,0.2168571650981903,0.49296826124191284,-0.22357667982578278
1733237672078914800,3.801914794921875,0.2785545587539673,0.3543018400669098,-0.04948008432984352
1733237672088947700,3.81194775390625,0.30482175946235657,0.18570303916931152,0.12339477986097336
1733237672098903800,3.82190380859375,0.2889392673969269,-0.006108652334660292,0.2681698501110077
1733237672108936000,3.83193603515625,0.24007004499435425,-0.18448130786418915,0.37140607833862305
1733237672118922800,3.8419228515625,0.15027284622192383,-0.29504790902137756,0.44776421785354614
1733237672128925400,3.851925537109375,0.10506882518529892,-0.2480112910270691,0.4508185386657715
1733237672138911700,3.861911865234375,0.07391469180583954,-0.13255776464939117,0.41111230850219727
1733237672148945000,3.87194482421875,0.0507018156349659,0.010995574295520782,0.32681289315223694
1733237672158900700,3.881900634765625,0.018936822190880775,0.11423180252313614,0.19547687470912933
1733237672168934000,3.891933837890625,-0.031154127791523933,0.1417207419872284,0.022602014243602753
1733237672178920400,3.90192041015625,-0.1014036312699318,0.13744467496871948,-0.16310101747512817
1733237672188923100,3.911923095703125,-0.18387043476104736,0.19425514340400696,-0.36590829491615295
1733237672198909200,3.9219091796875,-0.1771509200334549,0.29565876722335815,-0.41599923372268677
1733237672208940800,3.93194091796875,-0.1062905490398407,0.47280970215797424,-0.3836233615875244
1733237672218929400,3.941929443359375,0.02382374368607998,0.7141014933586121,-0.2724458873271942
1733237672228929000,3.951928955078125,0.17776179313659668,0.9474520087242126,-0.11545353382825851
1733237672238918100,3.961918212890625,0.3188716471195221,1.0965031385421753,0.039095375686883926
1733237672248950800,3.97195068359375,0.4343251883983612,1.1459832191467285,0.16004669666290283
1733237672258907400,3.981907470703125,0.5174028873443604,1.0824532508850098,0.23029619455337524
1733237672268939800,3.991939697265625,0.59803706407547,0.7947356700897217,0.23579397797584534
1733237672278926800,4.0019267578125,0.6090326309204102,0.47769662737846375,0.17470745742321014
1733237672288929500,4.011929443359375,0.578489363193512,0.11239920556545258,0.08246681094169617
1733237672298916000,4.021916015625,0.5100724697113037,-0.22113321721553802,-0.022602014243602753
1733237672308949000,4.031948974609375,0.4178318381309509,-0.45631635189056396,-0.12400564551353455
1733237672318904800,4.04190478515625,0.3194825351238251,-0.5571091175079346,-0.20463985204696655
1733237672328938200,4.051938232421875,0.2480112910270691,-0.5803219676017761,-0.25961771607398987
1733237672338924300,4.06192431640625,0.20402899384498596,-0.4440990388393402,-0.26633724570274353
1733237672348925000,4.071925048828125,0.20891591906547546,-0.25473082065582275,-0.22296582162380219
1733237672358913500,4.08191357421875,0.23090706765651703,-0.02932153269648552,-0.15454891324043274
1733237672368944600,4.091944580078125,0.26511552929878235,0.19486601650714874,-0.07757988572120667
1733237672378902500,4.101902587890625,0.31031954288482666,0.394618958234787,0.00366519158706069
1733237672388935700,4.111935791015625,0.36163222789764404,0.5326744914054871,0.0806342139840126
1733237672398922000,4.121921875,0.42638394236564636,0.5955936312675476,0.16065755486488342
1733237672408924700,4.131924560546875,0.5351179838180542,0.6029239892959595,0.2938261926174164
1733237672418911000,4.141910888671875,0.6065891981124878,0.5754350423812866,0.3982841372489929
1733237672428944400,4.1519443359375,0.6695083379745483,0.5265658497810364,0.5076290369033813
1733237672438900000,4.16189990234375,0.7177666425704956,0.4447098970413208,0.6053674817085266
1733237672448933600,4.17193359375,0.7446447610855103,0.3396410644054413,0.6957755088806152
1733237672458919400,4.18191943359375,0.7464773058891296,0.21624629199504852,0.770301103591919
1733237672468952600,4.19195263671875,0.7275404930114746,0.08185594528913498,0.8155050873756409
1733237672478908700,4.20190869140625,0.6817256212234497,-0.05619960278272629,0.8295549750328064
1733237672488941800,4.21194189453125,0.5522221922874451,-0.2528982162475586,0.788016140460968
1733237672498928000,4.22192822265625,0.44654250144958496,-0.36102136969566345,0.7061602473258972
1733237672508930800,4.231930908203125,0.33719760179519653,-0.4440990388393402,0.5913175344467163
1733237672518917000,4.241917236328125,0.23396138846874237,-0.4862487316131592,0.4489859640598297
1733237672528950500,4.251950439453125,0.14294247329235077,-0.5082398653030396,0.28955012559890747
1733237672538906000,4.261906005859375,0.06230825558304787,-0.5100724697113037,0.12034045159816742
1733237672548939300,4.271939208984375,-0.009162978269159794,-0.4911356568336487,-0.0403171069920063
1733237672558925600,4.281925537109375,-0.10018189996480942,-0.4184426963329315,-0.2370157092809677
1733237672568928300,4.29192822265625,-0.14538592100143433,-0.33536502718925476,-0.3225368559360504
1733237672578914800,4.301914794921875,-0.17348572611808777,-0.24373523890972137,-0.37629300355911255
1733237672588947700,4.31194775390625,-0.1765400618314743,-0.17531833052635193,-0.40622538328170776
1733237672598903800,4.32190380859375,-0.1508837193250656,-0.14049901068210602,-0.40622538328170776
1733237672608936700,4.331936767578125,-0.11789698898792267,-0.1618792861700058,-0.3744603991508484
1733237672618923300,4.34192333984375,-0.09285151958465576,-0.22663100063800812,-0.31642818450927734
1733237672628925700,4.35192578125,-0.09224065393209457,-0.3597996234893799,-0.21074850857257843
1733237672638912300,4.361912353515625,-0.12095131725072861,-0.43249258399009705,-0.1459967941045761
1733237672648945400,4.3719453125,-0.17287486791610718,-0.47280970215797424,-0.09162978827953339
1733237672658931500,4.381931396484375,-0.23945917189121246,-0.49357911944389343,-0.06780604273080826
1733237672668934100,4.39193408203125,-0.3023782968521118,-0.4996877610683441,-0.0757472887635231
1733237672678921000,4.4019208984375,-0.3384193480014801,-0.504574716091156,-0.11728613078594208
1733237672688923400,4.41192333984375,-0.342695415019989,-0.5302310585975647,-0.1918116807937622
1733237672698910000,4.421909912109375,-0.3292563557624817,-0.598647952079773,-0.3066543638706207
1733237672708943000,4.431943115234375,-0.3127630054950714,-0.7782423496246338,-0.5369505286216736
1733237672718929400,4.441929443359375,-0.33475416898727417,-0.9364564418792725,-0.6994407176971436
1733237672728931300,4.451931396484375,-0.413555771112442,-1.10139000415802,-0.8582656979560852
1733237672738918400,4.46191845703125,-0.578489363193512,-1.217454433441162,-1.0012081861495972
1733237672748948700,4.47194873046875,-0.7971791625022888,-1.238223910331726,-1.112385630607605
1733237672758907400,4.481907470703125,-1.0122036933898926,-1.19607412815094,-1.1850786209106445
1733237672768937700,4.491937744140625,-1.2015719413757324,-1.0427470207214355,-1.235169529914856
1733237672778926800,4.5019267578125,-1.33168625831604,-0.6450737118721008,-1.2302825450897217
1733237672788927700,4.511927734375,-1.2748757600784302,-0.28038713335990906,-1.094059705734253
1733237672798916000,4.521916015625,-1.140485405921936,0.1007927656173706,-0.8497135639190674
1733237672808947200,4.531947265625,-0.9950994849205017,0.41722095012664795,-0.5448917746543884
1733237672818905000,4.541905029296875,-0.9101892113685608,0.6646214127540588,-0.22296582162380219
1733237672828936200,4.551936279296875,-0.9242390990257263,0.8655960559844971,0.0861319974064827
1733237672838924300,4.56192431640625,-1.0421360731124878,1.009149432182312,0.3066543638706207
1733237672848926500,4.571926513671875,-1.4495831727981567,0.8802568316459656,0.3280346393585205
1733237672858913500,4.58191357421875,-1.8429805040359497,0.5815436840057373,0.11972958594560623
1733237672868946200,4.5919462890625,-2.2064452171325684,0.18875735998153687,-0.2217440903186798
1733237672878902500,4.601902587890625,-2.4391849040985107,-0.1875356286764145,-0.6310238242149353
1733237672888935200,4.61193505859375,-2.478891134262085,-0.4746423065662384,-1.0592403411865234
1733237672898922000,4.621921875,-2.3011293411254883,-0.645684540271759,-1.4422528743743896
1733237672908921900,4.631921875,-1.947438359260559,-0.7330383062362671,-1.7299703359603882
1733237672918911000,4.641910888671875,-1.5027284622192383,-0.720820963382721,-1.8875735998153687
1733237672928941600,4.651941650390625,-0.8539896011352539,-0.5119050741195679,-1.8894062042236328
1733237672938900000,4.66189990234375,-0.5296201705932617,-0.23029619455337524,-1.7666223049163818
1733237672948931600,4.671931640625,-0.3139847218990326,0.05375614017248154,-1.5827518701553345
1733237672958919700,4.681919677734375,-0.21380282938480377,0.25473082065582275,-1.3530665636062622
1733237672968950800,4.69195068359375,-0.20891591906547546,0.44226643443107605,-1.0812314748764038
1733237672978908700,4.70190869140625,-0.24862214922904968,0.5510004758834839,-0.7904596328735352
1733237672988939500,4.711939453125,-0.29993483424186707,0.5937610268592834,-0.48869219422340393
1733237672998928100,4.72192822265625,-0.3023782968521118,0.6444628238677979,-0.07757988572120667
1733237673008928000,4.731927978515625,-0.20402899384498596,0.7073819637298584,0.10567969083786011
1733237673018917000,4.741917236328125,-0.01160643994808197,0.7476990818977356,0.16982053220272064
1733237673028947700,4.75194775390625,0.2565633952617645,0.8124507665634155,0.12828169763088226
1733237673038906000,4.761906005859375,0.4251621961593628,0.8839219808578491,0.4239404797554016
1733237673048936700,4.771936767578125,0.4239404797554016,0.45875978469848633,0.4917465150356293
1733237673058925800,4.78192578125,0.3695734739303589,0.19058994948863983,0.45326200127601624
1733237673068925700,4.79192578125,0.3127630054950714,-0.19486601650714874,0.251676470041275
1733237673078914800,4.801914794921875,0.27000242471694946,-0.6798930168151855,0.10812314599752426
1733237673088945700,4.811945556640625,0.14477506279945374,-0.6145304441452026,0.14905111491680145
1733237673098903800,4.82190380859375,-0.042760565876960754,-0.45814892649650574,0.18325957655906677
1733237673108933000,4.83193310546875,-0.26450464129447937,-0.32986724376678467,0.16798794269561768
1733237673118922800,4.8419228515625,-0.5210680365562439,-0.2376265823841095,0.17837265133857727
1733237673128923400,4.85192333984375,-0.8063421249389648,-0.20891591906547546,0.24373523890972137
1733237673138912000,4.861912109375,-1.0684033632278442,-0.3378084897994995,0.29504790902137756
