time,seconds_elapsed,z,y,x
1733237668489010400,0.212010498046875,-0.15515977144241333,-0.01710422709584236,0.16737708449363708
1733237668498999300,0.221999267578125,-0.17531833052635193,-0.02382374368607998,0.09651670604944229
1733237668509000000,0.232,-0.182648703455925,0.0024434609804302454,-0.03176499158143997
1733237668518988300,0.24198828125,-0.17287486791610718,0.015882495790719986,-0.09957103431224823
1733237668529019400,0.252019287109375,-0.1569923609495163,0.004886921960860491,-0.14294247329235077
1733237668538977300,0.261977294921875,-0.13927727937698364,-0.03176499158143997,-0.16065755486488342
1733237668549008400,0.27200830078125,-0.1215621829032898,-0.06963863968849182,-0.1508837193250656
1733237668558997000,0.2819970703125,-0.1062905490398407,-0.09773843735456467,-0.12461651116609573
1733237668568997400,0.291997314453125,-0.09346238523721695,-0.11911872029304504,-0.08552113175392151
1733237668578986000,0.301986083984375,-0.08735372871160507,-0.11728613078594208,-0.03176499158143997
1733237668589016800,0.312016845703125,-0.0910189226269722,-0.09773843735456467,0.05314527451992035
1733237668598974700,0.321974609375,-0.0757472887635231,-0.08796459436416626,0.09834930300712585
1733237668609005800,0.332005859375,-0.04764748737215996,-0.0910189226269722,0.14355333149433136
1733237668618994200,0.341994140625,-0.019547687843441963,-0.10506882518529892,0.19120082259178162
1733237668628994800,0.351994873046875,0.00366519158706069,-0.1160643994808197,0.23945917189121246
1733237668638983400,0.3619833984375,0.021991148591041565,-0.11667526513338089,0.28649580478668213
1733237668649014500,0.3720146484375,0.02015855349600315,-0.1215621829032898,0.31581732630729675
1733237668659000600,0.38200048828125,-0.0024434609804302454,-0.11484266817569733,0.32070425152778625
1733237668669005300,0.39200537109375,-0.01771509274840355,-0.08246681094169617,0.3090978264808655
1733237668678992000,0.401991943359375,-0.036651913076639175,-0.08491026610136032,0.26633724570274353
1733237668688994600,0.41199462890625,-0.04764748737215996,-0.1264491081237793,0.19914206862449646
1733237668698981000,0.421981201171875,-0.036041051149368286,-0.16004669666290283,0.13439035415649414
1733237668709014300,0.43201416015625,-0.004886921960860491,-0.17409659922122955,0.07880161702632904
1733237668719000300,0.442000244140625,0.02932153269648552,-0.18509216606616974,0.029932396486401558
1733237668729003300,0.452003173828125,0.06169738993048668,-0.19853121042251587,-0.015882495790719986
1733237668738989600,0.461989501953125,0.08368854224681854,-0.251676470041275,-0.08002334833145142
1733237668749022500,0.4720224609375,0.08735372871160507,-0.2681698501110077,-0.09162978827953339
1733237668758978600,0.481978515625,0.10567969083786011,-0.2370157092809677,-0.07452555745840073
1733237668769011700,0.49201171875,0.14294247329235077,-0.17898350954055786,-0.03481931984424591
1733237668778998300,0.501998291015625,0.19425514340400696,-0.10812314599752426,0.013439035043120384
1733237668789001000,0.5120009765625,0.25534167885780334,-0.042760565876960754,0.0659734457731247
1733237668798987300,0.5219873046875,0.30543261766433716,0.010995574295520782,0.10690141469240189
1733237668809020400,0.5320205078125,0.3335324227809906,0.06108652427792549,0.12522737681865692
1733237668818976000,0.54197607421875,0.33719760179519653,0.056810468435287476,0.10873401165008545
1733237668829009400,0.552009521484375,0.33047810196876526,0.02076941914856434,0.07391469180583954
1733237668838995700,0.56199560546875,0.32131510972976685,-0.01466076634824276,0.04214970022439957
1733237668848998400,0.571998291015625,0.29993483424186707,-0.03237585723400116,0.025656340643763542
1733237668858984700,0.581984619140625,0.2632829248905182,-0.013439035043120384,0.033597588539123535
1733237668869017900,0.592017822265625,0.22479841113090515,0.04703662544488907,0.04886921867728233
1733237668878973700,0.6019736328125,0.21807889640331268,0.20525072515010834,0.06780604273080826
1733237668889007000,0.612007080078125,0.23884831368923187,0.32009339332580566,0.06780604273080826
1733237668898993200,0.6219931640625,0.26022860407829285,0.3952298164367676,0.04398229718208313
1733237668908995800,0.631995849609375,0.2675589919090271,0.3952298164367676,-0.00366519158706069
1733237668918982100,0.641982177734375,0.2577851414680481,0.32620203495025635,-0.07391469180583954
1733237668929015600,0.652015625,0.2272418737411499,0.242513507604599,-0.1472185254096985
1733237668938971100,0.66197119140625,0.192422553896904,0.1667662113904953,-0.2174680233001709
1733237668949004300,0.67200439453125,0.16859880089759827,0.12950342893600464,-0.27122417092323303
1733237668958990800,0.681990966796875,0.16554448008537292,0.13561208546161652,-0.28466320037841797
1733237668969024000,0.69202392578125,0.1875356286764145,0.14355333149433136,-0.2223549485206604
1733237668978979800,0.701979736328125,0.2174680233001709,0.18081611394882202,-0.10567969083786011
1733237668989013000,0.712012939453125,0.2370157092809677,0.23090706765651703,0.0403171069920063
1733237668998999300,0.721999267578125,0.2431243658065796,0.2730567753314972,0.18814650177955627
1733237669009001700,0.732001708984375,0.23273965716362,0.31031954288482666,0.31093040108680725
1733237669018988300,0.74198828125,0.21441370248794556,0.3396410644054413,0.3891211748123169
1733237669029021400,0.752021484375,0.17043140530586243,0.34208452701568604,0.4300491213798523
1733237669038977500,0.7619775390625,0.13866640627384186,0.2932153046131134,0.41111230850219727
1733237669049010400,0.772010498046875,0.11667526513338089,0.20952677726745605,0.3738495409488678
1733237669058997000,0.7819970703125,0.10506882518529892,0.13316862285137177,0.33658674359321594
1733237669068999400,0.79199951171875,0.10262536257505417,0.07635815441608429,0.3066543638706207
1733237669078986000,0.801986083984375,0.09651670604944229,0.01771509274840355,0.28588494658470154
1733237669089019100,0.81201904296875,0.08674286305904388,-0.0354301854968071,0.2785545587539673
1733237669098975000,0.82197509765625,0.04886921867728233,-0.08918632566928864,0.294437050819397
1733237669109006300,0.83200634765625,0.015271631069481373,-0.11362093687057495,0.31459560990333557
1733237669118993400,0.841993408203125,-0.012828170321881771,-0.11667526513338089,0.3439171314239502
1733237669128996000,0.85199609375,-0.03726277872920036,-0.11545353382825851,0.37629300355911255
1733237669138982700,0.861982666015625,-0.05925392732024193,-0.11911872029304504,0.4098905920982361
1733237669149015800,0.872015869140625,-0.07880161702632904,-0.1215621829032898,0.4349360466003418
1733237669158971400,0.881971435546875,-0.09468411654233932,-0.13927727937698364,0.44165557622909546
1733237669169004500,0.892004638671875,-0.09162978827953339,-0.1869247704744339,0.42577308416366577
1733237669178991000,0.9019912109375,-0.05009094998240471,-0.2871066629886627,0.3952298164367676
1733237669188993800,0.911993896484375,-0.007941247895359993,-0.34208452701568604,0.39584067463874817
1733237669198980000,0.92197998046875,0.024434609338641167,-0.3891211748123169,0.4141666293144226
1733237669209014000,0.932013916015625,0.03481931984424591,-0.42638394236564636,0.4398229718208313
1733237669219000300,0.942000244140625,0.04214970022439957,-0.4398229718208313,0.4648684561252594
1733237669229003300,0.952003173828125,0.05925392732024193,-0.43188172578811646,0.47219884395599365
1733237669238989600,0.961989501953125,0.08796459436416626,-0.40072759985923767,0.45142942667007446
1733237669249022500,0.9720224609375,0.12217304855585098,-0.3225368559360504,0.3738495409488678
1733237669258978600,0.981978515625,0.1313360333442688,-0.23579397797584534,0.29565876722335815
1733237669269011700,0.99201171875,0.13927727937698364,-0.14538592100143433,0.19547687470912933
1733237669278998000,1.001998046875,0.1472185254096985,-0.09162978827953339,0.06902777403593063
1733237669289001000,1.0120009765625,0.14477506279945374,-0.0757472887635231,-0.06841690838336945
1733237669298987000,1.021987060546875,0.11484266817569733,-0.10262536257505417,-0.21135938167572021
1733237669309020400,1.0320205078125,0.06291911751031876,-0.17348572611808777,-0.3500257730484009
1733237669318976000,1.04197607421875,-0.028099801391363144,-0.3176499307155609,-0.504574716091156
1733237669329007000,1.052007080078125,-0.08552113175392151,-0.413555771112442,-0.5601634383201599
1733237669338995700,1.06199560546875,-0.13316862285137177,-0.48747047781944275,-0.5711590051651001
1733237669348995600,1.07199560546875,-0.17776179313659668,-0.5174028873443604,-0.5412266254425049
1733237669358984700,1.081984619140625,-0.2217440903186798,-0.4954117238521576,-0.4801400899887085
1733237669369014800,1.092014892578125,-0.26022860407829285,-0.4184426963329315,-0.39584067463874817
1733237669378974000,1.101973876953125,-0.2773328125476837,-0.30054569244384766,-0.2822197377681732
1733237669389004500,1.112004638671875,-0.2730567753314972,-0.18997909128665924,-0.13866640627384186
1733237669398993200,1.1219931640625,-0.26450464129447937,-0.09712757170200348,0.09712757170200348
1733237669408993800,1.131993896484375,-0.2681698501110077,-0.07024950534105301,0.242513507604599
1733237669418982100,1.141982177734375,-0.2724458873271942,-0.06658431142568588,0.3640756905078888
1733237669429015300,1.152015380859375,-0.28038713335990906,-0.07024950534105301,0.45692721009254456
1733237669438971100,1.16197119140625,-0.29993483424186707,-0.08674286305904388,0.5082398653030396
1733237669449003500,1.17200341796875,-0.3341432809829712,-0.10751228034496307,0.5125159621238708
1733237669458990800,1.181990966796875,-0.3787364661693573,-0.1362229436635971,0.4544837474822998
1733237669469023000,1.19202294921875,-0.4697553813457489,-0.20341812074184418,0.24007004499435425
1733237669478979600,1.2019794921875,-0.523511528968811,-0.2675589919090271,0.022602014243602753
1733237669489013000,1.212012939453125,-0.5571091175079346,-0.33536502718925476,-0.22846360504627228
1733237669498999000,1.2219990234375,-0.5619960427284241,-0.3787364661693573,-0.4801400899887085
1733237669509002200,1.232002197265625,-0.5302310585975647,-0.3787364661693573,-0.6976081132888794
1733237669518988300,1.24198828125,-0.4593706727027893,-0.32620203495025635,-0.8423831462860107
1733237669529019400,1.252019287109375,-0.3591887652873993,-0.26022860407829285,-0.8936958312988281
1733237669538977300,1.261977294921875,-0.19853121042251587,-0.2223549485206604,-0.8283332586288452
1733237669549008400,1.27200830078125,-0.10201449692249298,-0.2223549485206604,-0.7116580009460449
1733237669558997000,1.2819970703125,-0.02382374368607998,-0.23335053026676178,-0.5595525503158569
1733237669568997000,1.2919970703125,0.022602014243602753,-0.25595253705978394,-0.40256020426750183
1733237669578986000,1.301986083984375,0.028099801391363144,-0.31031954288482666,-0.26633724570274353
1733237669589019000,1.312018798828125,0.018325956538319588,-0.3738495409488678,-0.15515977144241333
1733237669598974700,1.321974609375,0.012828170321881771,-0.4202753007411957,-0.07391469180583954
1733237669609007900,1.3320078125,0.015882495790719986,-0.44165557622909546,-0.029932396486401558
1733237669618994400,1.341994384765625,0.018325956538319588,-0.41661009192466736,-0.007941247895359993
1733237669628996900,1.351996826171875,0.00427605677396059,-0.35674530267715454,0.007941247895359993
1733237669638983400,1.3619833984375,-0.02321287989616394,-0.2816088795661926,0.025045474991202354
1733237669649016300,1.372016357421875,-0.05619960278272629,-0.2021963894367218,0.04642575979232788
1733237669658972400,1.381972412109375,-0.08552113175392151,-0.11178833991289139,0.07330382615327835
1733237669669005600,1.392005615234375,-0.11056660860776901,-0.028099801391363144,0.1007927656173706
1733237669678992000,1.401991943359375,-0.1362229436635971,0.02687807008624077,0.11301007121801376
1733237669688994800,1.411994873046875,-0.16432274878025055,0.04214970022439957,0.10201449692249298
1733237669698980900,1.42198095703125,-0.18325957655906677,0.03176499158143997,0.07024950534105301
1733237669709014300,1.43201416015625,-0.20830504596233368,0.00366519158706069,0.013439035043120384
1733237669719000300,1.442000244140625,-0.23335053026676178,-0.029932396486401558,-0.05803219974040985
1733237669729003300,1.452003173828125,-0.2571742534637451,-0.0507018156349659,-0.13011430203914642
1733237669738989600,1.461989501953125,-0.27550023794174194,-0.045204028487205505,-0.19914206862449646
1733237669749022700,1.472022705078125,-0.2791654169559479,-0.018325956538319588,-0.24984388053417206
1733237669758978600,1.481978515625,-0.2626720666885376,0.007941247895359993,-0.2736676335334778
1733237669769011500,1.492011474609375,-0.21502456068992615,0.06352998316287994,-0.25106561183929443
1733237669778998300,1.501998291015625,-0.16798794269561768,0.11301007121801376,-0.18997909128665924
1733237669789000700,1.512000732421875,-0.10934487730264664,0.16065755486488342,-0.1007927656173706
1733237669798987000,1.521987060546875,-0.05009094998240471,0.1966986060142517,0.02076941914856434
1733237669809020400,1.5320205078125,-0.00733038317412138,0.20952677726745605,0.14844025671482086
1733237669818976000,1.54197607421875,0.010995574295520782,0.18936823308467865,0.2626720666885376
1733237669829009200,1.552009033203125,0.01466076634824276,0.1270599663257599,0.3439171314239502
1733237669838995700,1.56199560546875,0.0006108652451075613,-0.02932153269648552,0.3988949954509735
1733237669848998100,1.571998046875,-0.006108652334660292,-0.15454891324043274,0.40194934606552124
1733237669858984700,1.581984619140625,-0.01038470957428217,-0.27488934993743896,0.39645153284072876
1733237669869017600,1.592017578125,-0.006108652334660292,-0.37751471996307373,0.40072759985923767
1733237669878973700,1.6019736328125,0.009162978269159794,-0.4306600093841553,0.4239404797554016
1733237669889006800,1.6120068359375,0.006108652334660292,-0.44776421785354614,0.4404338300228119
1733237669898993200,1.6219931640625,-0.02871066704392433,-0.46731191873550415,0.4080579876899719
1733237669908996000,1.63199609375,-0.11850785464048386,-0.5186246037483215,0.252287358045578
1733237669918982100,1.641982177734375,-0.2015855312347412,-0.5253441333770752,0.09957103431224823
1733237669929013000,1.652012939453125,-0.3023782968521118,-0.4966334402561188,-0.06902777403593063
1733237669938971400,1.661971435546875,-0.39217549562454224,-0.39645153284072876,-0.20830504596233368
1733237669949002200,1.672002197265625,-0.4178318381309509,-0.1569923609495163,-0.24862214922904968
1733237669958990800,1.681990966796875,-0.34636059403419495,0.21807889640331268,-0.17043140530586243
1733237669969022000,1.69202197265625,-0.20036379992961884,0.6322455406188965,-0.01160643994808197
1733237669978979800,1.701979736328125,-0.00855211354792118,0.9944885969161987,0.18387043476104736
1733237669989010200,1.71201025390625,0.2968805134296417,1.2944234609603882,0.4660901725292206
1733237669998999300,1.721999267578125,0.4648684561252594,1.3243558406829834,0.617584764957428
1733237670008999200,1.731999267578125,0.5772676467895508,1.2473868131637573,0.7250970602035522
1733237670018988500,1.741988525390625,0.6334672570228577,1.0793988704681396,0.7929030656814575
1733237670029021700,1.752021728515625,0.6438519954681396,0.8607091307640076,0.8228355050086975
1733237670038977500,1.7619775390625,0.616973876953125,0.6230825781822205,0.8258898258209229
1733237670049010400,1.772010498046875,0.5638286471366882,0.39095374941825867,0.8020660877227783
1733237670058997000,1.7819970703125,0.4758640229701996,0.030543262138962746,0.7177666425704956
1733237670068999400,1.79199951171875,0.4184426963329315,-0.17287486791610718,0.6359107494354248
1733237670078986000,1.801986083984375,0.3585779070854187,-0.30054569244384766,0.5381723046302795
1733237670089019100,1.81201904296875,0.2926044464111328,-0.3781255781650543,0.41661009192466736
1733237670098975000,1.82197509765625,0.21930062770843506,-0.4098905920982361,0.2822197377681732
1733237670109006300,1.83200634765625,0.14966198801994324,-0.3854559659957886,0.1514945775270462
1733237670118993400,1.841993408203125,0.08307767659425735,-0.3090978264808655,0.03237585723400116
1733237670128996400,1.851996337890625,-0.015271631069481373,-0.15454891324043274,-0.1362229436635971
1733237670138982700,1.861982666015625,-0.07269296050071716,-0.036041051149368286,-0.23457226157188416
1733237670149015800,1.872015869140625,-0.10018189996480942,0.08674286305904388,-0.304210901260376
1733237670158971400,1.881971435546875,-0.09896016865968704,0.19364428520202637,-0.3378084897994995
1733237670169002500,1.89200244140625,-0.0708603709936142,0.27061331272125244,-0.3274237811565399
1733237670178991000,1.9019912109375,-0.024434609338641167,0.3182607889175415,-0.2669481039047241
1733237670188991700,1.91199169921875,0.031154127791523933,0.3225368559360504,-0.16432274878025055
1733237670198980000,1.92197998046875,0.08979719132184982,0.29077184200286865,-0.03481931984424591
1733237670209011700,1.93201171875,0.16493362188339233,0.21013765037059784,0.17959438264369965
1733237670219000300,1.942000244140625,0.18631389737129211,0.15821409225463867,0.31459560990333557
1733237670229003300,1.952003173828125,0.182648703455925,0.10995574295520782,0.4331034719944
1733237670238989600,1.961989501953125,0.16798794269561768,0.07391469180583954,0.5265658497810364
1733237670249022500,1.9720224609375,0.14538592100143433,0.039706241339445114,0.5968153476715088
1733237670258978600,1.981978515625,0.11972958594560623,0.01038470957428217,0.6383541822433472
1733237670269011700,1.99201171875,0.08491026610136032,-0.01771509274840355,0.6524040699005127
1733237670278998300,2.001998291015625,0.04764748737215996,-0.0910189226269722,0.6096435189247131
1733237670289000700,2.012000732421875,0.051312681287527084,-0.14844025671482086,0.5564982295036316
1733237670298987000,2.021987060546875,0.07757988572120667,-0.19914206862449646,0.4917465150356293
1733237670309020200,2.032020263671875,0.1111774742603302,-0.2431243658065796,0.4178318381309509
1733237670318976000,2.04197607421875,0.13805554807186127,-0.27488934993743896,0.35124751925468445
1733237670329009200,2.052009033203125,0.16371189057826996,-0.27611109614372253,0.2981022298336029
1733237670338995700,2.06199560546875,0.19853121042251587,-0.2638937830924988,0.2681698501110077
1733237670348998100,2.071998046875,0.25595253705978394,-0.22418753802776337,0.2736676335334778
1733237670358984700,2.081984619140625,0.2889392673969269,-0.21624629199504852,0.3023782968521118
1733237670369017900,2.092017822265625,0.30115658044815063,-0.2382374405860901,0.33597588539123535
1733237670378973700,2.1019736328125,0.28466320037841797,-0.2687807083129883,0.3646865487098694
1733237670389006800,2.1120068359375,0.252287358045578,-0.30543261766433716,0.3738495409488678
1733237670398993200,2.1219931640625,0.21013765037059784,-0.3604104816913605,0.35063666105270386
1733237670408995600,2.13199560546875,0.17043140530586243,-0.3982841372489929,0.30543261766433716
1733237670418982100,2.141982177734375,0.1472185254096985,-0.39645153284072876,0.2541199326515198
1733237670429015000,2.15201513671875,0.15027284622192383,-0.30543261766433716,0.19608774781227112
1733237670438971100,2.16197119140625,0.16859880089759827,-0.22602014243602753,0.15882496535778046
1733237670449004300,2.17200439453125,0.18570303916931152,-0.1569923609495163,0.10873401165008545
1733237670458990600,2.181990478515625,0.19608774781227112,-0.12278391420841217,0.04092797264456749
1733237670469024000,2.19202392578125,0.182648703455925,-0.1466076523065567,-0.06414084881544113
1733237670478979600,2.2019794921875,0.12828169763088226,-0.2382374405860901,-0.19975294172763824
1733237670489011700,2.21201171875,0.024434609338641167,-0.37262779474258423,-0.3585779070854187
1733237670498999000,2.2219990234375,-0.2168571650981903,-0.5589417219161987,-0.6096435189247131
1733237670508999000,2.2319990234375,-0.3952298164367676,-0.5968153476715088,-0.7476990818977356
1733237670518988300,2.24198828125,-0.5418374538421631,-0.5198463201522827,-0.8301658630371094
1733237670529018600,2.2520185546875,-0.6163630485534668,-0.3481931984424591,-0.8332201838493347
1733237670538977300,2.261977294921875,-0.5955936312675476,-0.09285151958465576,-0.7422012686729431
1733237670549008400,2.27200830078125,-0.49357911944389343,0.18875735998153687,-0.5662720799446106
1733237670558996700,2.281996826171875,-0.34636059403419495,0.4398229718208313,-0.3384193480014801
1733237670568997000,2.2919970703125,-0.10323622822761536,0.6866125464439392,0.05375614017248154
1733237670578985700,2.30198583984375,0.022602014243602753,0.7379252314567566,0.3029891550540924
1733237670589019000,2.312018798828125,0.10201449692249298,0.6963863968849182,0.5064072608947754
1733237670598974700,2.321974609375,0.1111774742603302,0.5528330206871033,0.627358615398407
1733237670609007000,2.332007080078125,0.04642575979232788,0.30604347586631775,0.6542366743087769
1733237670618994400,2.341994384765625,-0.08674286305904388,-0.015271631069481373,0.5870414972305298
1733237670628996400,2.351996337890625,-0.26572638750076294,-0.3488040566444397,0.4434881806373596
1733237670638983400,2.3619833984375,-0.45142942667007446,-0.6029239892959595,0.24556782841682434
1733237670649015800,2.372015869140625,-0.6499606370925903,-0.7275404930114746,-0.08979719132184982
1733237670659002400,2.38200244140625,-0.6835582256317139,-0.6774495840072632,-0.29504790902137756
1733237670669005600,2.392005615234375,-0.6316346526145935,-0.5351179838180542,-0.4550946056842804
1733237670678992000,2.401991943359375,-0.5216789245605469,-0.32009339332580566,-0.5571091175079346
1733237670688994600,2.41199462890625,-0.3781255781650543,-0.09773843735456467,-0.6157521605491638
1733237670698980900,2.42198095703125,-0.23090706765651703,0.06536258012056351,-0.6243042945861816
1733237670709014300,2.43201416015625,-0.11423180252313614,0.16737708449363708,-0.5607742667198181
1733237670719000300,2.442000244140625,-0.02321287989616394,0.26022860407829285,-0.37140607833862305
1733237670729003300,2.452003173828125,-0.012828170321881771,0.30115658044815063,-0.21502456068992615
1733237670738989600,2.461989501953125,-0.025045474991202354,0.32498031854629517,-0.051312681287527084
1733237670749022500,2.4720224609375,-0.04092797264456749,0.3243694305419922,0.1014036312699318
1733237670758978600,2.481978515625,-0.05497787147760391,0.2932153046131134,0.2376265823841095
1733237670769011500,2.492011474609375,-0.06719517707824707,0.23273965716362,0.3591887652873993
1733237670778998000,2.501998046875,-0.06780604273080826,0.16249015927314758,0.46242499351501465
1733237670789000400,2.51200048828125,-0.06902777403593063,0.04886921867728233,0.5736024379730225
1733237670798987300,2.5219873046875,-0.07696902006864548,-0.01466076634824276,0.6145304441452026
1733237670809020200,2.532020263671875,-0.10018189996480942,-0.05864306539297104,0.6279694437980652
1733237670818976000,2.54197607421875,-0.1362229436635971,-0.07635815441608429,0.607810914516449
1733237670829009000,2.5520087890625,-0.18020524084568024,-0.06719517707824707,0.5546656250953674
1733237670838995500,2.561995361328125,-0.23457226157188416,-0.054367005825042725,0.4697553813457489
1733237670848998000,2.571997802734375,-0.2932153046131134,-0.042760565876960754,0.35063666105270386
1733237670858984700,2.581984619140625,-0.3500257730484009,-0.03298672288656235,0.20952677726745605
1733237670869017900,2.592017822265625,-0.4050036668777466,-0.036651913076639175,-0.018936822190880775
1733237670878973700,2.6019736328125,-0.40744712948799133,-0.031154127791523933,-0.1563815027475357
1733237670889006800,2.6120068359375,-0.3787364661693573,0.01160643994808197,-0.26511552929878235
1733237670898993000,2.621992919921875,-0.3194825351238251,0.08552113175392151,-0.33475416898727417
1733237670908995800,2.631995849609375,-0.23518311977386475,0.1612684279680252,-0.3701843321323395
1733237670918982100,2.641982177734375,-0.13988813757896423,0.2168571650981903,-0.37079519033432007
1733237670929015600,2.652015625,-0.04398229718208313,0.26450464129447937,-0.33292156457901
1733237670938971400,2.661971435546875,0.07452555745840073,0.29626965522766113,-0.21441370248794556
1733237670949004300,2.67200439453125,0.11484266817569733,0.2938261926174164,-0.10201449692249298
1733237670958990800,2.681990966796875,0.1258382350206375,0.2528982162475586,0.010995574295520782
1733237670969024000,2.69202392578125,0.11972958594560623,0.1722639948129654,0.10506882518529892
1733237670978979800,2.701979736328125,0.12217304855585098,0.07391469180583954,0.1814269721508026
1733237670989013000,2.712012939453125,0.14844025671482086,-0.00855211354792118,0.24007004499435425
1733237670998999000,2.7219990234375,0.19547687470912933,-0.07513642311096191,0.2736676335334778
1733237671009001700,2.732001708984375,0.2480112910270691,-0.1270599663257599,0.2822197377681732
1733237671018988300,2.74198828125,0.3029891550540924,-0.17776179313659668,0.2541199326515198
1733237671029022000,2.75202197265625,0.30115658044815063,-0.18081611394882202,0.22540926933288574
1733237671038977500,2.7619775390625,0.2535090744495392,-0.19120082259178162,0.1765400618314743
1733237671049010700,2.7720107421875,0.15821409225463867,-0.22602014243602753,0.09957103431224823
1733237671058997000,2.7819970703125,0.02871066704392433,-0.23518311977386475,0.009773843921720982
1733237671068999400,2.79199951171875,-0.10690141469240189,-0.17837265133857727,-0.06963863968849182
1733237671078986000,2.801986083984375,-0.20036379992961884,-0.018936822190880775,-0.12095131725072861
1733237671089017300,2.812017333984375,-0.20952677726745605,0.39095374941825867,-0.12522737681865692
1733237671098974700,2.821974609375,-0.11178833991289139,0.7037167549133301,-0.08735372871160507
1733237671109003500,2.83200341796875,0.048258353024721146,0.970054030418396,-0.02687807008624077
1733237671118993700,2.84199365234375,0.23090706765651703,1.149037480354309,0.02871066704392433
1733237671128995300,2.851995361328125,0.403781920671463,1.2113457918167114,0.060475658625364304
1733237671138982700,2.861982666015625,0.5442809462547302,1.1618657112121582,0.05742133408784866
1733237671149015600,2.872015625,0.6316346526145935,1.0073168277740479,0.01710422709584236
1733237671158971400,2.881971435546875,0.6163630485534668,0.6212499737739563,-0.10751228034496307
1733237671169004500,2.892004638671875,0.5094616413116455,0.2981022298336029,-0.21868975460529327
1733237671178991000,2.9019912109375,0.36651915311813354,-0.010995574295520782,-0.3243694305419922
1733237671188993800,2.911993896484375,0.22907446324825287,-0.2321287989616394,-0.40683624148368835
1733237671198980000,2.92197998046875,0.1411098688840866,-0.33658674359321594,-0.44593164324760437
1733237671209011700,2.93201171875,0.09773843735456467,-0.33536502718925476,-0.43615779280662537
1733237671219000300,2.942000244140625,0.09468411654233932,-0.242513507604599,-0.3781255781650543
1733237671229001000,2.9520009765625,0.11667526513338089,-0.08796459436416626,-0.2773328125476837
1733237671238989600,2.961989501953125,0.15943582355976105,0.1472185254096985,-0.09957103431224823
1733237671249020700,2.972020751953125,0.18325957655906677,0.24862214922904968,-0.0012217304902151227
1733237671258978600,2.981978515625,0.20525072515010834,0.294437050819397,0.07696902006864548
1733237671269009400,2.992009521484375,0.2370157092809677,0.3243694305419922,0.1472185254096985
1733237671278998000,3.001998046875,0.2828305959701538,0.36102136969566345,0.2272418737411499
1733237671288998400,3.011998291015625,0.34025195240974426,0.4141666293144226,0.3219259977340698
1733237671298987000,3.021987060546875,0.40133845806121826,0.45814892649650574,0.4300491213798523
1733237671309020200,3.032020263671875,0.4813618063926697,0.455705463886261,0.588874101638794
1733237671318976000,3.04197607421875,0.513737678527832,0.38606682419776917,0.675006091594696
1733237671329009200,3.052009033203125,0.5387831330299377,0.27000242471694946,0.7470881938934326
1733237671338995500,3.061995361328125,0.5357288122177124,0.14355333149433136,0.8032878041267395
1733237671348998100,3.071998046875,0.5082398653030396,0.027488935738801956,0.8405506014823914
1733237671358984700,3.081984619140625,0.45631635189056396,-0.07269296050071716,0.8582656979560852
1733237671369017600,3.092017578125,0.3952298164367676,-0.1508837193250656,0.8533787727355957
1733237671378973700,3.1019736328125,0.2974913716316223,-0.22602014243602753,0.8106181621551514
1733237671389006800,3.1120068359375,0.2272418737411499,-0.23396138846874237,0.7556403279304504
1733237671398993200,3.1219931640625,0.15393804013729095,-0.22479841113090515,0.6774495840072632
1733237671408995600,3.13199560546875,0.08429940044879913,-0.21441370248794556,0.5791002511978149
1733237671418982100,3.141982177734375,0.025656340643763542,-0.2119702398777008,0.46364670991897583
1733237671429015000,3.15201513671875,-0.0354301854968071,-0.22540926933288574,0.3396410644054413
1733237671438971100,3.16197119140625,-0.09346238523721695,-0.2590068578720093,0.2070833146572113
1733237671449004000,3.172004150390625,-0.13500121235847473,-0.29016098380088806,0.08491026610136032
1733237671458990600,3.181990478515625,-0.14477506279945374,-0.25473082065582275,-0.054367005825042725
1733237671469023700,3.192023681640625,-0.1215621829032898,-0.20586158335208893,-0.11239920556545258
1733237671478979600,3.2019794921875,-0.08368854224681854,-0.17409659922122955,-0.14294247329235077
1733237671489012700,3.2120126953125,-0.04459316283464432,-0.18814650177955627,-0.152105450630188
1733237671498999000,3.2219990234375,-0.019547687843441963,-0.251676470041275,-0.14905111491680145
1733237671509001700,3.232001708984375,-0.006719517521560192,-0.3433062732219696,-0.1459967941045761
1733237671518988300,3.24198828125,-0.021991148591041565,-0.44104471802711487,-0.14477506279945374
1733237671529021400,3.252021484375,-0.09040805697441101,-0.5510004758834839,-0.1618792861700058
1733237671538977300,3.261977294921875,-0.15943582355976105,-0.5931501388549805,-0.17776179313659668
1733237671549010400,3.272010498046875,-0.2272418737411499,-0.5907067060470581,-0.18448130786418915
1733237671558996700,3.281996826171875,-0.26511552929878235,-0.5626068711280823,-0.1771509200334549
1733237671568999400,3.29199951171875,-0.26511552929878235,-0.4990769028663635,-0.1563815027475357
1733237671578986000,3.301986083984375,-0.23273965716362,-0.43249258399009705,-0.13988813757896423
1733237671589019000,3.312018798828125,-0.21441370248794556,-0.4147774875164032,-0.15821409225463867
1733237671598974700,3.321974609375,-0.28099802136421204,-0.5467243790626526,-0.2889392673969269
1733237671609007000,3.332007080078125,-0.40072759985923767,-0.6640105247497559,-0.4294382631778717
1733237671618994400,3.341994384765625,-0.5522221922874451,-0.7550294399261475,-0.5791002511978149
1733237671628994000,3.351994140625,-0.7018841505050659,-0.7751879692077637,-0.7067710757255554
1733237671638983400,3.3619833984375,-0.8051204085350037,-0.6994407176971436,-0.7806857824325562
1733237671649014500,3.3720146484375,-0.8210029006004333,-0.5442809462547302,-0.7764097452163696
1733237671658972400,3.381972412109375,-0.7446447610855103,-0.34758231043815613,-0.6969972252845764
1733237671669003800,3.392003662109375,-0.5900958180427551,-0.13316862285137177,-0.5564982295036316
1733237671678992000,3.401991943359375,-0.31520646810531616,0.14049901068210602,-0.2828305959701538
1733237671688992500,3.411992431640625,-0.16982053220272064,0.21319197118282318,-0.1062905490398407
1733237671698980600,3.421980712890625,-0.08307767659425735,0.1918116807937622,0.030543262138962746
1733237671709012000,3.432011962890625,-0.07208210229873657,0.09896016865968704,0.11850785464048386
1733237671719000300,3.442000244140625,-0.13805554807186127,-0.03787364438176155,0.1466076523065567
1733237671729002500,3.45200244140625,-0.2736676335334778,-0.1869247704744339,0.1160643994808197
1733237671738989600,3.461989501953125,-0.44287729263305664,-0.30482175946235657,0.025045474991202354
1733237671749022700,3.472022705078125,-0.6151412725448608,-0.35674530267715454,-0.1820378452539444
1733237671758978600,3.481978515625,-0.616973876953125,-0.30054569244384766,-0.30970868468284607
1733237671769011700,3.49201171875,-0.5448917746543884,-0.20097467303276062,-0.403781920671463
1733237671778998300,3.501998291015625,-0.4190535545349121,-0.07513642311096191,-0.44715335965156555
1733237671788998400,3.511998291015625,-0.2669481039047241,0.06658431142568588,-0.42699480056762695
1733237671798987000,3.521987060546875,-0.10751228034496307,0.20036379992961884,-0.34574973583221436
1733237671809017900,3.532017822265625,0.019547687843441963,0.31154128909111023,-0.21624629199504852
1733237671818976000,3.54197607421875,0.10384709388017654,0.3891211748123169,-0.060475658625364304
1733237671829006800,3.5520068359375,0.1722639948129654,0.4660901725292206,0.2015855312347412
1733237671838995700,3.56199560546875,0.19425514340400696,0.49846604466438293,0.37629300355911255
1733237671848998100,3.571998046875,0.20586158335208893,0.4966334402561188,0.5290092825889587
1733237671858984700,3.581984619140625,0.21319197118282318,0.4544837474822998,0.6530149579048157
1733237671869017600,3.592017578125,0.2278527319431305,0.38117989897727966,0.7519751191139221
1733237671878973700,3.6019736328125,0.25595253705978394,0.2822197377681732,0.8289441466331482
1733237671889006600,3.612006591796875,0.2883284091949463,0.182648703455925,0.8851437568664551
1733237671898993000,3.621992919921875,0.31031954288482666,0.042760565876960754,0.9254608750343323
1733237671908995800,3.631995849609375,0.303600013256073,-0.0354301854968071,0.9156870245933533
1733237671918982400,3.641982421875,0.26633724570274353,-0.09834930300712585,0.8741481900215149
1733237671929015600,3.652015625,0.21013765037059784,-0.1368338167667389,0.7959573864936829
1733237671938971400,3.661971435546875,0.1313360333442688,-0.16432274878025055,0.6817256212234497
1733237671949003800,3.672003662109375,0.033597588539123535,-0.1869247704744339,0.5320636034011841
1733237671958990800,3.681990966796875,-0.08918632566928864,-0.2021963894367218,0.34513887763023376
1733237671969023000,3.69202294921875,-0.2938261926174164,-0.19547687470912933,0.01771509274840355
1733237671978979600,3.7019794921875,-0.4098905920982361,-0.1466076523065567,-0.19975294172763824
1733237671989013000,3.712012939453125,-0.49296826124191284,-0.06352998316287994,-0.39156460762023926
1733237671998999300,3.721999267578125,-0.5351179838180542,0.04764748737215996,-0.5534439086914062
1733237672009002000,3.732001953125,-0.5271766781806946,0.1820378452539444,-0.6731734871864319
1733237672018988300,3.74198828125,-0.46364670991897583,0.32131510972976685,-0.7379252314567566
1733237672029021400,3.752021484375,-0.36102136969566345,0.43615779280662537,-0.7464773058891296
1733237672038977500,3.7619775390625,-0.23273965716362,0.5112941861152649,-0.6933320760726929
1733237672049010400,3.772010498046875,-0.04214970022439957,0.5552765130996704,-0.5247332453727722
1733237672058997000,3.7819970703125,0.07269296050071716,0.5308418869972229,-0.3695734739303589
1733237672068999400,3.79199951171875,0.1661553531885147,0.4447098970413208,-0.2021963894367218
1733237672078986000,3.801986083984375,0.2278527319431305,0.30604347586631775,-0.028099801391363144
1733237672089019100,3.81201904296875,0.2541199326515198,0.13744467496871948,0.14477506279945374
1733237672098974700,3.821974609375,0.2382374405860901,-0.054367005825042725,0.28955012559890747
1733237672109006300,3.83200634765625,0.18936823308467865,-0.23273965716362,0.3927863538265228
1733237672118993700,3.84199365234375,0.09957103431224823,-0.3433062732219696,0.4691445231437683
1733237672128996000,3.85199609375,0.054367005825042725,-0.29626965522766113,0.47219884395599365
1733237672138982400,3.861982421875,0.02321287989616394,-0.18081611394882202,0.43249258399009705
1733237672149015600,3.872015625,0,-0.03726277872920036,0.3481931984424591
1733237672158971400,3.881971435546875,-0.03176499158143997,0.0659734457731247,0.2168571650981903
1733237672169004800,3.8920048828125,-0.08185594528913498,0.09346238523721695,0.04398229718208313
1733237672178991000,3.9019912109375,-0.152105450630188,0.08918632566928864,-0.1417207419872284
1733237672188993800,3.911993896484375,-0.23457226157188416,0.1459967941045761,-0.3445279896259308
1733237672198980000,3.92197998046875,-0.2278527319431305,0.2474004179239273,-0.394618958234787
1733237672209011700,3.93201171875,-0.1569923609495163,0.4245513379573822,-0.36224308609962463
1733237672219000300,3.942000244140625,-0.02687807008624077,0.66584312915802,-0.25106561183929443
1733237672229000200,3.952000244140625,0.1270599663257599,0.8991936445236206,-0.09407325088977814
1733237672238989300,3.9619892578125,0.2681698501110077,1.0482447147369385,0.060475658625364304
1733237672249022000,3.97202197265625,0.3836233615875244,1.0977247953414917,0.1814269721508026
1733237672258978600,3.981978515625,0.46670106053352356,1.034194827079773,0.251676470041275
1733237672269011000,3.992010986328125,0.5473352670669556,0.7464773058891296,0.2571742534637451
1733237672278998000,4.001998046875,0.5583308339118958,0.4294382631778717,0.19608774781227112
1733237672289000700,4.012000732421875,0.5277875661849976,0.06414084881544113,0.10384709388017654
1733237672298987000,4.021987060546875,0.4593706727027893,-0.26939156651496887,-0.0012217304902151227
1733237672309020400,4.0320205078125,0.36713001132011414,-0.504574716091156,-0.10262536257505417
1733237672318976000,4.04197607421875,0.2687807083129883,-0.6053674817085266,-0.18325957655906677
1733237672329009200,4.052009033203125,0.1973094791173935,-0.6285803318023682,-0.2382374405860901
1733237672338995500,4.061995361328125,0.15332718193531036,-0.49235737323760986,-0.24495697021484375
1733237672348996000,4.07199609375,0.15821409225463867,-0.3029891550540924,-0.2015855312347412
1733237672358984700,4.081984619140625,0.18020524084568024,-0.07757988572120667,-0.13316862285137177
1733237672369015800,4.092015869140625,0.21441370248794556,0.1466076523065567,-0.05619960278272629
1733237672378973700,4.1019736328125,0.25961771607398987,0.34636059403419495,0.025045474991202354
1733237672389006800,4.1120068359375,0.31093040108680725,0.484416127204895,0.10201449692249298
1733237672398993200,4.1219931640625,0.37568211555480957,0.5473352670669556,0.1820378452539444
1733237672408995600,4.13199560546875,0.484416127204895,0.5546656250953674,0.31520646810531616
1733237672418982100,4.141982177734375,0.5558874011039734,0.5271766781806946,0.4196644127368927
1733237672429015600,4.152015625,0.6188064813613892,0.47830748558044434,0.5290092825889587
1733237672438971100,4.16197119140625,0.6670648455619812,0.39645153284072876,0.626747727394104
1733237672449004300,4.17200439453125,0.6939429044723511,0.29138273000717163,0.7171558141708374
1733237672458990600,4.181990478515625,0.6957755088806152,0.16798794269561768,0.7916813492774963
1733237672469023700,4.192023681640625,0.6768386960029602,0.033597588539123535,0.836885392665863
1733237672478979600,4.2019794921875,0.6310238242149353,-0.10445795953273773,0.8509352803230286
1733237672489013000,4.212012939453125,0.5015203952789307,-0.30115658044815063,0.8093964457511902
1733237672498999000,4.2219990234375,0.39584067463874817,-0.4092797040939331,0.7275404930114746
1733237672509001700,4.232001708984375,0.28649580478668213,-0.49235737323760986,0.6126978397369385
1733237672518988000,4.241988037109375,0.18325957655906677,-0.5345070958137512,0.4703662395477295
1733237672529021700,4.252021728515625,0.09224065393209457,-0.5564982295036316,0.31093040108680725
1733237672538977300,4.261977294921875,0.01160643994808197,-0.5583308339118958,0.1417207419872284
1733237672549010400,4.272010498046875,-0.059864792972803116,-0.5393940210342407,-0.018936822190880775
1733237672558996700,4.281996826171875,-0.1508837193250656,-0.46670106053352356,-0.21563543379306793
1733237672568999400,4.29199951171875,-0.19608774781227112,-0.3836233615875244,-0.30115658044815063
1733237672578985700,4.30198583984375,-0.22418753802776337,-0.2919935882091522,-0.3549126982688904
1733237672589019000,4.312018798828125,-0.2272418737411499,-0.22357667982578278,-0.384845107793808
1733237672598974700,4.321974609375,-0.2015855312347412,-0.18875735998153687,-0.384845107793808
1733237672609007900,4.3320078125,-0.16859880089759827,-0.21013765037059784,-0.3530801236629486
1733237672618994400,4.341994384765625,-0.14355333149433136,-0.27488934993743896,-0.29504790902137756
1733237672628996900,4.351996826171875,-0.14294247329235077,-0.4080579876899719,-0.18936823308467865
1733237672638983400,4.3619833984375,-0.1716531366109848,-0.4807509481906891,-0.12461651116609573
1733237672649016600,4.3720166015625,-0.22357667982578278,-0.5210680365562439,-0.07024950534105301
1733237672659002400,4.38200244140625,-0.29016098380088806,-0.5418374538421631,-0.04642575979232788
1733237672669005600,4.392005615234375,-0.3530801236629486,-0.5479460954666138,-0.054367005825042725
1733237672678992000,4.401991943359375,-0.3891211748123169,-0.5528330206871033,-0.0959058403968811
1733237672688994600,4.41199462890625,-0.3933972120285034,-0.578489363193512,-0.17043140530586243
1733237672698980900,4.42198095703125,-0.3799581825733185,-0.646906316280365,-0.28527405858039856
1733237672709014300,4.43201416015625,-0.3634648323059082,-0.826500654220581,-0.5155702829360962
1733237672719000300,4.442000244140625,-0.3854559659957886,-0.9847147464752197,-0.6780604124069214
1733237672729002500,4.45200244140625,-0.4642575979232788,-1.1496484279632568,-0.836885392665863
1733237672738989600,4.461989501953125,-0.6291912198066711,-1.2657127380371094,-0.979827880859375
1733237672749019600,4.47201953125,-0.8478809595108032,-1.2864822149276733,-1.0910053253173828
1733237672758978600,4.481978515625,-1.0629055500030518,-1.2443325519561768,-1.1636983156204224
1733237672769008600,4.492008544921875,-1.2522737979888916,-1.0910053253173828,-1.2137892246246338
1733237672778998300,4.501998291015625,-1.3823879957199097,-0.6933320760726929,-1.208902359008789
1733237672788998700,4.51199853515625,-1.3255776166915894,-0.3286454975605011,-1.0726794004440308
1733237672798987000,4.521987060546875,-1.1911872625350952,0.05253441259264946,-0.8283332586288452
1733237672809018000,4.53201806640625,-1.0458012819290161,0.3689626157283783,-0.523511528968811
1733237672818976000,4.54197607421875,-0.9608910083770752,0.6163630485534668,-0.2015855312347412
1733237672829007000,4.552007080078125,-0.9749409556388855,0.817337691783905,0.10751228034496307
1733237672838995700,4.56199560546875,-1.092837929725647,0.9608910083770752,0.3280346393585205
1733237672848997600,4.57199755859375,-1.500285029411316,0.8319984674453735,0.3494149148464203
1733237672858984700,4.581984619140625,-1.8936822414398193,0.53328537940979,0.1411098688840866
1733237672869017300,4.592017333984375,-2.2571470737457275,0.14049901068210602,-0.20036379992961884
1733237672878973700,4.6019736328125,-2.48988676071167,-0.23579397797584534,-0.6096435189247131
1733237672889006000,4.612006103515625,-2.529592990875244,-0.5229006409645081,-1.0378600358963013
1733237672898993200,4.6219931640625,-2.3518311977386475,-0.6939429044723511,-1.4208725690841675
1733237672908993300,4.6319931640625,-1.9981402158737183,-0.7812966704368591,-1.7085901498794556
1733237672918982100,4.641982177734375,-1.5534303188323975,-0.769079327583313,-1.8661932945251465
1733237672929012700,4.6520126953125,-0.9046914577484131,-0.5601634383201599,-1.8680258989334106
1733237672938971400,4.661971435546875,-0.5803219676017761,-0.2785545587539673,-1.7452419996261597
1733237672949002800,4.672002685546875,-0.3646865487098694,0.005497787147760391,-1.5613715648651123
1733237672958990800,4.681990966796875,-0.26450464129447937,0.2064724564552307,-1.33168625831604
1733237672969022000,4.69202197265625,-0.25961771607398987,0.394008070230484,-1.0598511695861816
1733237672978979800,4.701979736328125,-0.2993239760398865,0.5027421116828918,-0.769079327583313
1733237672989010400,4.712010498046875,-0.35063666105270386,0.5455026626586914,-0.46731191873550415
1733237672998999300,4.721999267578125,-0.3530801236629486,0.5962044596672058,-0.05619960278272629
1733237673008999200,4.731999267578125,-0.25473082065582275,0.6591235995292664,0.1270599663257599
1733237673018988300,4.74198828125,-0.06230825558304787,0.6994407176971436,0.19120082259178162
1733237673029019000,4.752018798828125,0.20586158335208893,0.7641924023628235,0.14966198801994324
1733237673038977300,4.761977294921875,0.3744603991508484,0.8356636762619019,0.4453207552433014
1733237673049007900,4.7720078125,0.3732386529445648,0.4105014503002167,0.513126790523529
1733237673058997000,4.7819970703125,0.3188716471195221,0.14233160018920898,0.4746423065662384
1733237673068996600,4.79199658203125,0.2620611786842346,-0.2431243658065796,0.2730567753314972
1733237673078986000,4.801986083984375,0.21930062770843506,-0.7281513810157776,0.12950342893600464
1733237673089016800,4.812016845703125,0.09407325088977814,-0.6627888083457947,0.17043140530586243
1733237673098975000,4.82197509765625,-0.09346238523721695,-0.5064072608947754,0.20463985204696655
1733237673109003300,4.832003173828125,-0.31520646810531616,-0.3781255781650543,0.18936823308467865
1733237673118993700,4.84199365234375,-0.5717698931694031,-0.28588494658470154,0.19975294172763824
1733237673128994000,4.851994140625,-0.8570439219474792,-0.2571742534637451,0.26511552929878235
1733237673138982700,4.861982666015625,-1.1191051006317139,-0.38606682419776917,0.31642818450927734
