time,seconds_elapsed,z,y,x
1733230310963749000,0.1877490234375,0.174713134765625,0.012265801429748535,-0.003693699836730957
1733230310973594000,0.197593994140625,0.20520687103271484,-0.06418538093566895,-0.07325984537601471
1733230310983573200,0.2075732421875,0.2784080505371094,-0.068062424659729,-0.04313760995864868
1733230310993583000,0.2175830078125,0.31108951568603516,-0.022113144397735596,0.07386229932308197
1733230311003562200,0.227562255859375,0.2722053527832031,0.014420747756958008,0.13821589946746826
1733230311013571800,0.23757177734375,0.29329395294189453,-0.0009102821350097656,0.05983886867761612
1733230311023581700,0.247581787109375,0.3370189666748047,0.0743592381477356,-0.027566999197006226
1733230311033561000,0.25756103515625,0.3082609176635742,0.02431166172027588,0.010073065757751465
1733230311043570700,0.26757080078125,0.23826122283935547,-0.014735817909240723,0.07874375581741333
1733230311053580500,0.27758056640625,0.1633443832397461,-0.024654090404510498,0.08182449638843536
1733230311063590400,0.28759033203125,0.06923675537109375,-0.04654580354690552,0.05325320363044739
1733230311073569800,0.29756982421875,0.02576923370361328,-0.027300536632537842,0.024984903633594513
1733230311083579400,0.307579345703125,-0.07440376281738281,0.01040107011795044,0.01573430746793747
1733230311093589200,0.31758935546875,-0.16257095336914062,0.04536217451095581,-0.03842160105705261
1733230311103568400,0.327568359375,-0.235107421875,0.07690161466598511,-0.15781208872795105
1733230311113578000,0.337577880859375,-0.27587032318115234,0.09405767917633057,-0.2428928166627884
1733230311123587800,0.347587890625,-0.2668027877807617,0.09428411722183228,-0.08217102289199829
1733230311133567200,0.357567138671875,-0.2881479263305664,0.04364466667175293,0.17554889619350433
1733230311143576800,0.367576904296875,-0.3220844268798828,0.0368494987487793,0.42570045590400696
1733230311153586700,0.377586669921875,-0.35526275634765625,0.04077041149139404,0.43827202916145325
1733230311163566000,0.387566162109375,-0.33222103118896484,0.07437992095947266,0.37748128175735474
1733230311173575700,0.39757568359375,-0.31256771087646484,-0.013789176940917969,0.2598186731338501
1733230311183585500,0.40758544921875,-0.24094867706298828,-0.05148535966873169,0.0655403882265091
1733230311193564700,0.417564697265625,-0.11069393157958984,-0.08433365821838379,-0.09889505803585052
1733230311203574500,0.427574462890625,0.0546875,-0.1447938084602356,-0.08924675732851028
1733230311213584100,0.437584228515625,0.2795743942260742,-0.16634434461593628,-0.01407289132475853
1733230311223563500,0.4475634765625,0.44473838806152344,-0.1689176857471466,0.08685588091611862
1733230311233573400,0.457573486328125,0.5788497924804688,-0.18141412734985352,0.10443009436130524
1733230311243583000,0.4675830078125,0.7281055450439453,-0.12108001112937927,0.08999837934970856
1733230311253562400,0.477562255859375,0.7583370208740234,-0.06139934062957764,0.09655965864658356
1733230311263572000,0.487572021484375,0.6981039047241211,0.008503615856170654,0.0020165294408798218
1733230311273581800,0.497581787109375,0.5185823440551758,0.025813639163970947,-0.09670044481754303
1733230311283561200,0.507561279296875,0.2412090301513672,0.03272199630737305,-0.1641647070646286
1733230311293570800,0.51757080078125,-0.05984306335449219,0.008559823036193848,-0.104093536734581
1733230311303580700,0.52758056640625,-0.32242393493652344,-0.025515496730804443,-0.0603766143321991
1733230311313590500,0.537590576171875,-0.4581298828125,-0.10233134031295776,-0.025368645787239075
1733230311323569700,0.547569580078125,-0.46712684631347656,-0.18081679940223694,-0.02070923149585724
1733230311333579300,0.557579345703125,-0.3553009033203125,-0.21199142932891846,-0.13183534145355225
1733230311343589000,0.567589111328125,-0.20818614959716797,-0.24310004711151123,-0.22967156767845154
1733230311353568500,0.577568603515625,-0.10219001770019531,-0.23378413915634155,-0.2880750596523285
1733230311363578000,0.587578125,-0.03439140319824219,-0.15366870164871216,-0.3432232737541199
1733230311373588000,0.597587890625,-0.0906982421875,-0.10500049591064453,-0.3553277552127838
1733230311383567400,0.6075673828125,-0.2373523712158203,-0.008354246616363525,-0.30328577756881714
1733230311393577000,0.617576904296875,-0.34039783477783203,0.04622313380241394,-0.14054210484027863
1733230311403586800,0.6275869140625,-0.4144468307495117,0.10287278890609741,0.02183438651263714
1733230311413566000,0.63756591796875,-0.3831596374511719,0.10198968648910522,0.13042236864566803
1733230311423575600,0.647575439453125,-0.2347888946533203,0.09366932511329651,0.1509779840707779
1733230311433585400,0.65758544921875,0.03303718566894531,0.05472153425216675,0.14654311537742615
1733230311443564800,0.667564697265625,0.2719736099243164,0.0000902414321899414,0.06834941357374191
1733230311453574700,0.67757470703125,0.43900299072265625,-0.05014762282371521,-0.03324800729751587
1733230311463584300,0.687584228515625,0.5079355239868164,-0.0751318633556366,-0.11971446871757507
1733230311473563600,0.697563720703125,0.43338775634765625,-0.05584031343460083,-0.1855824589729309
1733230311483573500,0.707573486328125,0.2609109878540039,-0.05609145760536194,-0.13820312917232513
1733230311493583000,0.7175830078125,-0.04529380798339844,-0.0019698143005371094,0.008918005041778088
1733230311503562200,0.727562255859375,-0.31301116943359375,0.10577452182769775,0.22220835089683533
1733230311513572000,0.737572021484375,-0.5183706283569336,0.18269407749176025,0.38845351338386536
1733230311523581700,0.747581787109375,-0.7188835144042969,0.2636350393295288,0.5240127444267273
1733230311533561000,0.75756103515625,-0.8451919555664062,0.2569301128387451,0.5669825673103333
1733230311543571000,0.767571044921875,-0.8494768142700195,0.25496596097946167,0.5122686624526978
1733230311553580500,0.77758056640625,-0.7318048477172852,0.2277703583240509,0.4763682782649994
1733230311563590400,0.78759033203125,-0.5209846496582031,0.13127756118774414,0.4232918322086334
1733230311573569800,0.79756982421875,-0.2483043670654297,0.08355358242988586,0.27493640780448914
1733230311583579400,0.807579345703125,0.043295860290527344,-0.004872769117355347,0.08851811289787292
1733230311593589200,0.81758935546875,0.2962808609008789,-0.08298623561859131,-3.501772880554199e-7
1733230311603568400,0.827568359375,0.5516748428344727,-0.07705256342887878,-0.05418066307902336
1733230311613578000,0.837577880859375,0.6539516448974609,-0.04175892472267151,-0.07976962625980377
1733230311623587800,0.847587890625,0.6462688446044922,-0.026469141244888306,-0.029424816370010376
1733230311633567200,0.857567138671875,0.6319522857666016,0.07130834460258484,-0.011707983911037445
1733230311643576800,0.867576904296875,0.5915307998657227,0.1706215739250183,0.06245766580104828
1733230311653586700,0.877586669921875,0.44358348846435547,0.21523937582969666,0.15737412869930267
1733230311663566000,0.887566162109375,0.33186817169189453,0.2894704043865204,0.17434802651405334
1733230311673575700,0.89757568359375,0.30902862548828125,0.3291696310043335,0.0963820219039917
1733230311683585500,0.90758544921875,0.2242298126220703,0.3653598725795746,0.009541705250740051
1733230311693564700,0.917564697265625,0.1349201202392578,0.38589608669281006,-0.13560637831687927
1733230311703574500,0.927574462890625,0.010144233703613281,0.40743035078048706,-0.2080291211605072
1733230311713584000,0.937584228515625,-0.1332693099975586,0.3952188491821289,-0.16330569982528687
1733230311723563500,0.9475634765625,-0.32671546936035156,0.3978777527809143,-0.04942741245031357
1733230311733573000,0.957572998046875,-0.37157154083251953,0.4131056070327759,-0.04469700902700424
1733230311743583000,0.9675830078125,-0.34450244903564453,0.45136505365371704,-0.20214083790779114
1733230311753562400,0.977562255859375,-0.29827880859375,0.46827250719070435,-0.3140109181404114
1733230311763572200,0.987572265625,-0.3094978332519531,0.4821928143501282,-0.39449208974838257
1733230311773581800,0.997581787109375,-0.29199981689453125,0.5342121720314026,-0.44247397780418396
1733230311783561200,1.007561279296875,-0.3390932083129883,0.5923828482627869,-0.4601578712463379
1733230311793571000,1.017571044921875,-0.3813314437866211,0.6019136309623718,-0.42254650592803955
1733230311803580700,1.02758056640625,-0.4331035614013672,0.6355181336402893,-0.40252020955085754
1733230311813590300,1.03759033203125,-0.34842395782470703,0.6605306267738342,-0.39849862456321716
1733230311823569700,1.047569580078125,-0.22551441192626953,0.6871850490570068,-0.42486572265625
1733230311833579300,1.057579345703125,-0.06676864624023438,0.636215090751648,-0.4303002655506134
1733230311843589000,1.067589111328125,0.06803131103515625,0.6238676905632019,-0.5134044289588928
1733230311853568500,1.077568603515625,0.1789684295654297,0.6036003828048706,-0.5599456429481506
1733230311863578000,1.087578125,0.1920452117919922,0.5609115362167358,-0.5790347456932068
1733230311873588000,1.097587890625,0.17651939392089844,0.5413132905960083,-0.6001543402671814
1733230311883567400,1.1075673828125,0.07256507873535156,0.5301305055618286,-0.607384979724884
1733230311893577000,1.117576904296875,-0.007382392883300781,0.4255439043045044,-0.5693273544311523
1733230311903586800,1.1275869140625,0.015577316284179688,0.35327595472335815,-0.5242592692375183
1733230311913566000,1.13756591796875,0.08855628967285156,0.20077139139175415,-0.4869143068790436
1733230311923575600,1.147575439453125,0.17555713653564453,0.0596998929977417,-0.4793066680431366
1733230311933585400,1.15758544921875,0.31722354888916016,-0.016912341117858887,-0.5381046533584595
1733230311943564800,1.167564697265625,0.3342628479003906,-0.0702507495880127,-0.48681187629699707
1733230311953574400,1.177574462890625,0.2173442840576172,-0.07656359672546387,-0.3913966417312622
1733230311963584300,1.187584228515625,-0.02136993408203125,-0.047520339488983154,-0.18259498476982117
1733230311973563600,1.197563720703125,-0.2885160446166992,-0.0003438591957092285,-0.030961275100708008
1733230311983573200,1.2075732421875,-0.6417360305786133,0.05900013446807861,0.12255503982305527
1733230311993583000,1.2175830078125,-0.8825445175170898,0.07995820045471191,0.3030250668525696
1733230312003562200,1.227562255859375,-0.96319580078125,0.12200766801834106,0.3861527442932129
1733230312013571800,1.23757177734375,-0.8792600631713867,0.10728830099105835,0.5122199654579163
1733230312023581700,1.247581787109375,-0.6545925140380859,0.07770758867263794,0.7516392469406128
1733230312033561000,1.25756103515625,-0.3872871398925781,0.013187527656555176,0.9797486066818237
1733230312043570700,1.26757080078125,-0.05567359924316406,-0.07260346412658691,1.241877794265747
1733230312053580500,1.27758056640625,0.17531299591064453,-0.09997493028640747,1.3768516778945923
1733230312063590400,1.28759033203125,0.2509956359863281,-0.024236202239990234,1.4083744287490845
1733230312073569800,1.29756982421875,0.06160449981689453,0.13220733404159546,1.4825233221054077
1733230312083579400,1.307579345703125,-0.27019691467285156,0.2653310298919678,1.6535658836364746
1733230312093589200,1.31758935546875,-0.744694709777832,0.45274901390075684,1.9564251899719238
1733230312103568400,1.327568359375,-1.1826162338256836,0.5542899966239929,2.297628164291382
1733230312113578000,1.337577880859375,-1.5712041854858398,0.6439082026481628,2.5999345779418945
1733230312123587800,1.347587890625,-1.749669075012207,0.711116373538971,2.8099470138549805
1733230312133567200,1.357567138671875,-1.6309080123901367,0.7326318025588989,2.4768879413604736
1733230312143576800,1.367576904296875,-1.2872848510742188,0.87324059009552,2.24009370803833
1733230312153586700,1.377586669921875,-0.6388893127441406,1.0033133029937744,1.8018662929534912
1733230312163566000,1.387566162109375,0.10071563720703125,1.0433464050292969,1.501598596572876
1733230312173575700,1.39757568359375,0.5897121429443359,0.9631445407867432,1.4435558319091797
1733230312183585500,1.40758544921875,0.8155784606933594,0.8502286076545715,1.2251338958740234
1733230312193564700,1.417564697265625,0.7586116790771484,0.8190491795539856,0.8096613883972168
1733230312203574500,1.427574462890625,0.4346475601196289,0.7991041541099548,0.3397875428199768
1733230312213584400,1.43758447265625,0.020981788635253906,0.7827911376953125,-0.05795753002166748
1733230312223563500,1.4475634765625,-0.4777364730834961,0.7500634789466858,-0.48322615027427673
1733230312233573400,1.457573486328125,-0.9062709808349609,0.672639787197113,-0.812860369682312
1733230312243583000,1.4675830078125,-1.2463703155517578,0.6430953741073608,-1.1389708518981934
1733230312253562400,1.477562255859375,-1.345078468322754,0.636324405670166,-1.3605962991714478
1733230312263572000,1.487572021484375,-1.2456140518188477,0.6169367432594299,-1.4652400016784668
1733230312273581800,1.497581787109375,-0.9743480682373047,0.5746796727180481,-1.3921821117401123
1733230312283561200,1.507561279296875,-0.5886383056640625,0.5403119325637817,-1.2619649171829224
1733230312293570800,1.51757080078125,-0.05480480194091797,0.5907854437828064,-1.1287329196929932
1733230312303580700,1.52758056640625,0.36158084869384766,0.6295842528343201,-1.0243752002716064
1733230312313590500,1.537590576171875,0.6992588043212891,0.7766897678375244,-0.8818405866622925
1733230312323569700,1.547569580078125,0.8267412185668945,0.9637149572372437,-0.7877166271209717
1733230312333579300,1.557579345703125,0.7751655578613281,1.1710388660430908,-0.7909950613975525
1733230312343589000,1.567589111328125,0.49428462982177734,1.3876224756240845,-0.6852259039878845
1733230312353568500,1.577568603515625,0.16846847534179688,1.537016749382019,-0.4043917953968048
1733230312363578000,1.587578125,-0.0634927749633789,1.6596734523773193,-0.1722489446401596
1733230312373588000,1.597587890625,-0.18260765075683594,1.7640224695205688,0.041483163833618164
1733230312383567400,1.6075673828125,-0.21305274963378906,1.747196912765503,0.256355881690979
1733230312393577000,1.617576904296875,-0.047275543212890625,1.6740953922271729,0.46072202920913696
1733230312403586800,1.6275869140625,0.2595243453979492,1.62764310836792,0.564313530921936
1733230312413566000,1.63756591796875,0.702244758605957,1.1851338148117065,0.5268020033836365
1733230312423575600,1.647575439453125,1.2267379760742188,1.0298776626586914,0.39863863587379456
1733230312433585400,1.65758544921875,1.5888195037841797,0.9460324048995972,0.4416031241416931
1733230312443564800,1.667564697265625,1.9344758987426758,1.010515570640564,0.5603154301643372
1733230312453574700,1.67757470703125,2.2154579162597656,1.0903208255767822,0.6445297002792358
1733230312463584300,1.687584228515625,2.4565610885620117,1.1592841148376465,0.7730919122695923
1733230312473563600,1.697563720703125,2.509601593017578,1.209119200706482,0.8979211449623108
1733230312483573500,1.707573486328125,2.4081859588623047,1.1031173467636108,1.0176031589508057
1733230312493583000,1.7175830078125,2.214461326599121,0.8922014236450195,1.006163239479065
1733230312503562200,1.727562255859375,2.1243743896484375,0.6149182319641113,0.8076772689819336
1733230312513572000,1.737572021484375,2.060744285583496,0.3900578022003174,0.42087322473526
1733230312523581700,1.747581787109375,2.1375961303710938,0.2832825183868408,-0.15217874944210052
1733230312533561000,1.75756103515625,2.2161359786987305,0.21459078788757324,-0.6973634362220764
1733230312543571000,1.767571044921875,2.1409568786621094,0.03883850574493408,-1.0456247329711914
1733230312553580500,1.77758056640625,1.993870735168457,-0.35156309604644775,-1.2190388441085815
1733230312563590400,1.78759033203125,1.8972406387329102,-0.7778580188751221,-1.1409897804260254
1733230312573569800,1.79756982421875,2.061738967895508,-1.2178492546081543,-0.9132727980613708
1733230312583579400,1.807579345703125,2.273970603942871,-1.5598918199539185,-0.6941275000572205
1733230312593589200,1.81758935546875,2.5119447708129883,-2.070941209793091,-0.4290577173233032
1733230312603568400,1.827568359375,2.7554006576538086,-2.4905905723571777,-0.2011873722076416
1733230312613578000,1.837577880859375,3.02176570892334,-2.7494821548461914,-0.1898019015789032
1733230312623587800,1.847587890625,3.4625978469848633,-2.6208505630493164,-0.4482722282409668
1733230312633567200,1.857567138671875,3.4826478958129883,-2.411414384841919,-0.8011136054992676
1733230312643576800,1.867576904296875,2.7719926834106445,-2.2638962268829346,-1.015084147453308
1733230312653586700,1.877586669921875,1.6649646759033203,-2.1642165184020996,-1.2306151390075684
1733230312663566000,1.887566162109375,0.1196737289428711,-1.9891979694366455,-1.6939573287963867
1733230312673575700,1.89757568359375,-1.3735103607177734,-1.9072407484054565,-1.8912901878356934
1733230312683585500,1.90758544921875,-3.0045595169067383,-1.8053020238876343,-1.8262417316436768
1733230312693564700,1.917564697265625,-4.102494239807129,-1.6752047538757324,-1.81339693069458
1733230312703574500,1.927574462890625,-4.957576274871826,-1.6370737552642822,-1.6570292711257935
1733230312713584400,1.93758447265625,-5.32111120223999,-1.6850429773330688,-1.630248785018921
1733230312723563500,1.9475634765625,-4.8773298263549805,-1.703281044960022,-1.8205220699310303
1733230312733573000,1.957572998046875,-3.8072562217712402,-1.8439161777496338,-1.918143391609192
1733230312743583000,1.9675830078125,-2.573791980743408,-2.0910892486572266,-1.8223271369934082
1733230312753562400,1.977562255859375,-1.2252397537231445,-2.282043218612671,-1.7509325742721558
1733230312763572200,1.987572265625,-0.18226909637451172,-2.281527042388916,-1.7701592445373535
1733230312773581800,1.997581787109375,0.645777702331543,-2.252671241760254,-1.5820597410202026
1733230312783561200,2.007561279296875,1.0812244415283203,-2.108193874359131,-1.2861827611923218
1733230312793571000,2.017571044921875,1.2016487121582031,-1.9129464626312256,-0.7702862024307251
1733230312803580700,2.02758056640625,0.929804801940918,-1.6027864217758179,-0.2540004253387451
1733230312813590300,2.03759033203125,0.2766561508178711,-1.1475565433502197,0.01718815043568611
1733230312823569400,2.0475693359375,-0.4280548095703125,-0.7892224788665771,0.015536397695541382
1733230312833579300,2.057579345703125,-1.1692686080932617,-0.4658820629119873,-0.056269191205501556
1733230312843589000,2.067589111328125,-1.7169885635375977,-0.16458451747894287,-0.11938580125570297
1733230312853568500,2.077568603515625,-2.09359073638916,0.06298255920410156,-0.18461769819259644
1733230312863578000,2.087578125,-2.340578556060791,0.25516200065612793,-0.16091467440128326
1733230312873588000,2.097587890625,-2.43454647064209,0.3666945695877075,-0.1416988968849182
1733230312883567400,2.1075673828125,-2.440659523010254,0.47872674465179443,-0.07222086191177368
1733230312893577000,2.117576904296875,-2.314441680908203,0.5237311124801636,0.0028598904609680176
1733230312903586800,2.1275869140625,-2.0243582725524902,0.5087685585021973,0.10908205807209015
1733230312913566000,2.13756591796875,-1.6709136962890625,0.4429919719696045,0.17976006865501404
1733230312923575600,2.147575439453125,-1.2634916305541992,0.3902524709701538,0.27170315384864807
1733230312933585400,2.15758544921875,-0.8304433822631836,0.3438990116119385,0.3382842540740967
1733230312943564800,2.167564697265625,-0.4432344436645508,0.32818150520324707,0.39791762828826904
1733230312953574400,2.177574462890625,-0.029807090759277344,0.1980799436569214,0.4732539653778076
1733230312963584300,2.187584228515625,0.3214426040649414,-0.0043517351150512695,0.45930102467536926
1733230312973563600,2.197563720703125,0.8067874908447266,-0.2785755395889282,0.3997875452041626
1733230312983573200,2.2075732421875,1.2967071533203125,-0.5751281976699829,0.32120072841644287
1733230312993583000,2.2175830078125,1.977926254272461,-0.7422077655792236,0.15006300806999207
1733230313003562200,2.227562255859375,2.7425689697265625,-0.6586655378341675,-0.06833580136299133
1733230313013571800,2.23757177734375,3.545137405395508,-0.40123748779296875,-0.27867862582206726
1733230313023581700,2.247581787109375,4.153615951538086,-0.017631888389587402,-0.329043984413147
1733230313033561000,2.25756103515625,4.3504638671875,0.2779461145401001,0.15133672952651978
1733230313043570700,2.26757080078125,4.045445442199707,-0.03434491157531738,1.169685959815979
1733230313053580500,2.27758056640625,3.5921173095703125,-1.1872892379760742,2.4769773483276367
1733230313063590400,2.28759033203125,3.3411026000976562,-3.088592529296875,3.8869149684906006
1733230313073569800,2.29756982421875,3.580592155456543,-4.8228864669799805,4.055606842041016
1733230313083579400,2.307579345703125,4.723552703857422,-5.922626972198486,2.0630462169647217
1733230313093589200,2.31758935546875,5.632654190063477,-6.380474090576172,-0.9127504825592041
1733230313103568400,2.327568359375,5.9843950271606445,-6.586340427398682,-4.094207286834717
1733230313113578000,2.337577880859375,5.580592155456543,-6.3184051513671875,-5.743583679199219
1733230313123587800,2.347587890625,4.180818557739258,-5.559452056884766,-5.844461917877197
1733230313133567200,2.357567138671875,2.2262210845947266,-4.928476333618164,-4.512826919555664
1733230313143576800,2.367576904296875,-0.30853939056396484,-4.057722091674805,-2.3640050888061523
1733230313153586700,2.377586669921875,-2.474191188812256,-3.2525634765625,-0.1140502318739891
1733230313163566000,2.387566162109375,-4.408669471740723,-2.4609880447387695,1.6050803661346436
1733230313173575700,2.39757568359375,-5.604423999786377,-1.7996050119400024,2.7043168544769287
1733230313183585500,2.40758544921875,-6.137287139892578,-1.3745898008346558,2.9383270740509033
1733230313193564700,2.417564697265625,-5.994151592254639,-1.0716264247894287,2.5622639656066895
1733230313203574500,2.427574462890625,-5.452426433563232,-1.0896437168121338,2.0370140075683594
1733230313213584400,2.43758447265625,-4.495004177093506,-1.126936912536621,1.2734360694885254
1733230313223563500,2.4475634765625,-3.4165468215942383,-1.1042455434799194,0.6167763471603394
1733230313233573400,2.457573486328125,-2.1319632530212402,-1.1496174335479736,0.16045288741588593
1733230313243583000,2.4675830078125,-1.1776018142700195,-1.1197515726089478,-0.053954217582941055
1733230313253562400,2.477562255859375,-0.3578824996948242,-1.0666546821594238,-0.25395819544792175
1733230313263572000,2.487572021484375,0.10954570770263672,-0.9508730173110962,-0.36779671907424927
1733230313273581800,2.497581787109375,0.28119373321533203,-0.7992364168167114,-0.2824837863445282
1733230313283561200,2.507561279296875,0.1330404281616211,-0.6722455024719238,0.005308330059051514
1733230313293570800,2.51757080078125,-0.33074283599853516,-0.5447045564651489,0.2938237190246582
1733230313303580700,2.52758056640625,-1.1541404724121094,-0.4406646490097046,0.14261102676391602
1733230313313590500,2.537590576171875,-1.7590394020080566,-0.26949429512023926,-0.1817052960395813
1733230313323569700,2.547569580078125,-2.1996994018554688,-0.22215652465820312,-0.3745843172073364
1733230313333579300,2.557579345703125,-2.2670211791992188,-0.24263310432434082,-0.47463980317115784
1733230313343589000,2.567589111328125,-2.0169711112976074,-0.19608330726623535,-0.4769798815250397
1733230313353568500,2.577568603515625,-1.72029447555542,-0.2658569812774658,-0.27211853861808777
1733230313363578000,2.587578125,-1.3502769470214844,-0.3747216463088989,-0.07960265874862671
1733230313373588000,2.597587890625,-1.0595569610595703,-0.4391673803329468,-0.03843182325363159
1733230313383567400,2.6075673828125,-0.6706438064575195,-0.5473097562789917,-0.06890758872032166
1733230313393577000,2.617576904296875,-0.2478160858154297,-0.5909894704818726,-0.3077104985713959
1733230313403586800,2.6275869140625,0.10678386688232422,-0.5841593742370605,-0.6376627087593079
1733230313413566000,2.63756591796875,0.4001617431640625,-0.5035268068313599,-0.9454165101051331
1733230313423575600,2.647575439453125,0.3736715316772461,-0.34825432300567627,-1.0526305437088013
1733230313433585400,2.65758544921875,0.3312721252441406,-0.1907057762145996,-0.8829134702682495
1733230313443564800,2.667564697265625,0.43735313415527344,-0.05567574501037598,-0.6105695366859436
1733230313453574700,2.67757470703125,0.772038459777832,-0.01568913459777832,-0.23417764902114868
1733230313463584300,2.687584228515625,1.4012298583984375,-0.24876487255096436,-0.020539939403533936
1733230313473563600,2.697563720703125,2.3608436584472656,-0.5389211177825928,-0.046515047550201416
1733230313483573500,2.707573486328125,3.550082206726074,-0.7350450754165649,-0.13370615243911743
1733230313493583000,2.7175830078125,4.865983009338379,-0.8055880069732666,-0.05392679572105408
1733230313503562200,2.727562255859375,6.147581100463867,-0.6671944856643677,0.07947465777397156
1733230313513572000,2.737572021484375,6.942194938659668,-0.49639272689819336,0.21346743404865265
1733230313523581700,2.747581787109375,7.2111663818359375,-0.23753046989440918,0.38453933596611023
1733230313533561000,2.75756103515625,6.762415885925293,-0.16249656677246094,0.6369788646697998
1733230313543571000,2.767571044921875,5.513401985168457,-0.3009291887283325,0.7900852560997009
1733230313553580500,2.77758056640625,4.2777557373046875,-0.6188108921051025,0.8377479910850525
1733230313563590400,2.78759033203125,3.124852180480957,-1.175705909729004,0.4599311351776123
1733230313573569800,2.79756982421875,2.264141082763672,-1.8732327222824097,-0.17593207955360413
1733230313583579400,2.807579345703125,1.3225946426391602,-2.6622064113616943,-1.332567572593689
1733230313593589200,2.81758935546875,0.5720977783203125,-3.2109031677246094,-2.532611846923828
1733230313603568400,2.827568359375,-0.2899188995361328,-3.6695146560668945,-3.6996138095855713
1733230313613578000,2.837577880859375,-1.1777544021606445,-4.02263069152832,-4.224550247192383
1733230313623587800,2.847587890625,-1.7975406646728516,-4.200588703155518,-4.086635589599609
1733230313633567200,2.857567138671875,-2.130128860473633,-4.216631889343262,-3.2790427207946777
1733230313643576800,2.867576904296875,-2.053158760070801,-4.080878734588623,-2.4650559425354004
1733230313653586700,2.877586669921875,-1.696622371673584,-3.7821173667907715,-1.862557053565979
1733230313663566000,2.887566162109375,-1.39044189453125,-3.517561435699463,-1.5834672451019287
1733230313673575700,2.89757568359375,-1.2288084030151367,-3.262979030609131,-1.2748318910598755
1733230313683585500,2.90758544921875,-1.2395439147949219,-3.0129809379577637,-1.0296746492385864
1733230313693564700,2.917564697265625,-1.4118461608886719,-2.8468165397644043,-0.9873220324516296
1733230313703574500,2.927574462890625,-1.5625438690185547,-2.612950086593628,-1.152253270149231
1733230313713584400,2.93758447265625,-1.642594337463379,-2.308520555496216,-1.226793885231018
1733230313723563500,2.9475634765625,-1.6816506385803223,-1.9823685884475708,-0.8694446682929993
1733230313733573000,2.957572998046875,-1.723127841949463,-1.7638881206512451,-0.227737158536911
1733230313743583000,2.9675830078125,-1.853165626525879,-1.5375263690948486,0.476252019405365
1733230313753562400,2.977562255859375,-2.0015649795532227,-1.2890424728393555,0.8860410451889038
1733230313763572200,2.987572265625,-2.100419521331787,-1.062129259109497,1.0742045640945435
1733230313773581800,2.997581787109375,-2.163008689880371,-0.8046674728393555,0.8941020965576172
1733230313783561200,3.007561279296875,-2.2427592277526855,-0.5937755107879639,0.5445238947868347
1733230313793571000,3.017571044921875,-2.4544196128845215,-0.5006171464920044,0.1351260542869568
1733230313803580700,3.02758056640625,-2.8102593421936035,-0.3356473445892334,-0.40998023748397827
1733230313813590300,3.03759033203125,-3.0477356910705566,-0.12946128845214844,-0.8894376158714294
1733230313823569700,3.047569580078125,-3.134021282196045,-0.0012264251708984375,-1.2313205003738403
1733230313833579300,3.057579345703125,-3.1247878074645996,0.06849122047424316,-1.3512976169586182
1733230313843589000,3.067589111328125,-3.0479555130004883,0.01436614990234375,-1.2264918088912964
1733230313853568500,3.077568603515625,-2.7815685272216797,-0.08848118782043457,-0.8971576690673828
1733230313863578000,3.087578125,-2.2088732719421387,-0.19214272499084473,-0.693576455116272
1733230313873588000,3.097587890625,-1.232095718383789,-0.36217236518859863,-0.6631869077682495
1733230313883567400,3.1075673828125,0.010042190551757812,-0.6400101184844971,-0.7607879042625427
1733230313893577000,3.117576904296875,1.460820198059082,-0.949785590171814,-0.9413747787475586
1733230313903586800,3.1275869140625,2.6834964752197266,-1.3522547483444214,-1.0506200790405273
1733230313913566000,3.13756591796875,3.797168731689453,-1.728245735168457,-1.1156920194625854
1733230313923575600,3.147575439453125,4.558454513549805,-1.8637993335723877,-1.1770892143249512
1733230313933585400,3.15758544921875,4.9813995361328125,-1.8240598440170288,-1.1360421180725098
1733230313943564800,3.167564697265625,5.042596817016602,-1.4598956108093262,-0.9764394760131836
1733230313953574400,3.177574462890625,4.881011009216309,-1.0490728616714478,-0.4923476278781891
1733230313963584300,3.187584228515625,4.324106216430664,-0.7756829261779785,0.5184986591339111
1733230313973563600,3.197563720703125,3.591994285583496,-0.67524254322052,1.4340190887451172
1733230313983573200,3.2075732421875,2.8204450607299805,-0.46904468536376953,1.9240710735321045
1733230313993583000,3.2175830078125,2.2964515686035156,-0.4561727046966553,2.1356418132781982
1733230314003562200,3.227562255859375,1.7753849029541016,-0.9252091646194458,2.4914684295654297
1733230314013571800,3.23757177734375,1.375594139099121,-1.682941198348999,2.8772130012512207
1733230314023581700,3.247581787109375,1.1259336471557617,-2.843024730682373,2.9648430347442627
1733230314033561000,3.25756103515625,1.3613710403442383,-3.7821741104125977,2.4360625743865967
1733230314043570700,3.26757080078125,2.2223873138427734,-4.785923480987549,1.3672617673873901
1733230314053580500,3.27758056640625,3.264824867248535,-5.816191673278809,0.22551795840263367
1733230314063590400,3.28759033203125,4.103928565979004,-6.268302917480469,-1.0628703832626343
1733230314073569800,3.29756982421875,4.621524810791016,-6.281839370727539,-2.2822885513305664
1733230314083579400,3.307579345703125,4.606554985046387,-5.995683670043945,-2.875455141067505
1733230314093589200,3.31758935546875,4.083456993103027,-5.362512588500977,-2.7138161659240723
1733230314103568400,3.327568359375,3.2097253799438477,-4.57807731628418,-1.7057758569717407
1733230314113578000,3.337577880859375,1.8395051956176758,-3.602423667907715,-0.21072512865066528
1733230314123587800,3.347587890625,0.6851816177368164,-2.7978248596191406,0.7631548047065735
1733230314133567200,3.357567138671875,-0.41818809509277344,-1.957883596420288,1.3139358758926392
1733230314143576800,3.367576904296875,-1.194772720336914,-1.4254300594329834,1.4302465915679932
1733230314153586700,3.377586669921875,-1.9308090209960938,-0.9448902606964111,1.2074452638626099
1733230314163566000,3.387566162109375,-2.581244468688965,-0.6586227416992188,0.7088676691055298
1733230314173575700,3.39757568359375,-3.0645103454589844,-0.43311595916748047,0.3356971740722656
1733230314183585500,3.40758544921875,-3.624478340148926,-0.30521154403686523,-0.048060961067676544
1733230314193564700,3.417564697265625,-4.038212299346924,-0.30902862548828125,-0.28885793685913086
1733230314203574500,3.427574462890625,-4.4447808265686035,-0.417050838470459,-0.4087744653224945
1733230314213584400,3.43758447265625,-4.706295490264893,-0.45099401473999023,-0.6307740211486816
1733230314223563500,3.4475634765625,-4.8492631912231445,-0.5468306541442871,-0.9018464684486389
1733230314233573400,3.457573486328125,-4.84074592590332,-0.611943244934082,-1.1306822299957275
1733230314243583000,3.4675830078125,-4.631372451782227,-0.7397060394287109,-1.4869825839996338
1733230314253562400,3.477562255859375,-4.27938175201416,-0.93764328956604,-1.744895100593567
1733230314263572000,3.487572021484375,-3.682086944580078,-1.1931418180465698,-1.7798850536346436
1733230314273581800,3.497581787109375,-2.992459774017334,-1.4756990671157837,-1.5299646854400635
1733230314283561200,3.507561279296875,-2.2058873176574707,-1.511124849319458,-1.463351845741272
1733230314293570800,3.51757080078125,-1.3153858184814453,-1.569461464881897,-1.265510082244873
1733230314303580700,3.52758056640625,-0.6119890213012695,-1.5873390436172485,-0.9313960075378418
1733230314313590500,3.537590576171875,-0.053643226623535156,-1.4644488096237183,-0.40513134002685547
1733230314323569700,3.547569580078125,0.17652416229248047,-1.3375024795532227,0.26818859577178955
1733230314333579300,3.557579345703125,0.18677806854248047,-1.2185901403427124,1.1599043607711792
1733230314343589000,3.567589111328125,0.2069711685180664,-1.0288810729980469,1.513082504272461
1733230314353568500,3.577568603515625,0.1698904037475586,-0.8199067115783691,1.2929060459136963
1733230314363578000,3.587578125,0.15308666229248047,-0.6736358404159546,0.8072997331619263
1733230314373588000,3.597587890625,0.058630943298339844,-0.5519328117370605,0.29102182388305664
1733230314383567400,3.6075673828125,-0.15262317657470703,-0.46458005905151367,0.17127391695976257
1733230314393577000,3.617576904296875,-0.23955535888671875,-0.4472019672393799,0.30331629514694214
1733230314403586800,3.6275869140625,-0.05712604522705078,-0.4878957271575928,0.42266976833343506
1733230314413566000,3.63756591796875,0.2757883071899414,-0.6567379236221313,0.47050559520721436
1733230314423575600,3.647575439453125,0.9467153549194336,-1.026341199874878,0.381966233253479
1733230314433585400,3.65758544921875,1.80340576171875,-1.240962266921997,0.2466856986284256
1733230314443564800,3.667564697265625,2.8785152435302734,-1.167154312133789,0.08925063908100128
1733230314453574700,3.67757470703125,3.9625301361083984,-0.9112576246261597,0.044975198805332184
1733230314463584300,3.687584228515625,5.107693672180176,-0.5875588655471802,0.10580262541770935
1733230314473563600,3.697563720703125,5.956729888916016,-0.19356799125671387,0.15677385032176971
1733230314483573500,3.707573486328125,6.499835968017578,0.15062332153320312,0.48957809805870056
1733230314493583000,3.7175830078125,6.475011825561523,0.16177701950073242,1.2559808492660522
1733230314503562200,3.727562255859375,6.017282485961914,-0.13310062885284424,1.83462393283844
1733230314513572000,3.737572021484375,5.413260459899902,-0.43554985523223877,1.6621037721633911
1733230314523581700,3.747581787109375,4.829710960388184,-1.0915274620056152,0.8558146357536316
1733230314533561000,3.75756103515625,3.964493751525879,-2.072272539138794,-0.22790402173995972
1733230314543571000,3.767571044921875,3.2195215225219727,-2.793672561645508,-1.3538681268692017
1733230314553580500,3.77758056640625,2.326719284057617,-3.348576545715332,-2.695695638656616
1733230314563590400,3.78759033203125,1.3456525802612305,-3.7417402267456055,-3.637681245803833
1733230314573569800,3.79756982421875,0.16557025909423828,-4.045935153961182,-4.266566753387451
1733230314583579400,3.807579345703125,-0.712946891784668,-4.177051544189453,-4.4982404708862305
1733230314593589000,3.817589111328125,-1.3011903762817383,-4.13076114654541,-4.390055179595947
1733230314603568400,3.827568359375,-1.6391024589538574,-4.01138162612915,-3.9298839569091797
1733230314613578000,3.837577880859375,-1.8540124893188477,-3.9064993858337402,-3.2940568923950195
1733230314623587800,3.847587890625,-1.8863210678100586,-3.8129801750183105,-2.484476327896118
1733230314633567200,3.857567138671875,-1.8118853569030762,-3.6886096000671387,-1.7842634916305542
1733230314643576800,3.867576904296875,-1.6257095336914062,-3.529672145843506,-1.1539031267166138
1733230314653586700,3.877586669921875,-1.3306045532226562,-3.2683396339416504,-0.8463507890701294
1733230314663566000,3.887566162109375,-1.0626487731933594,-2.87958025932312,-0.5342819690704346
1733230314673575700,3.89757568359375,-0.9284381866455078,-2.5486721992492676,0.017412424087524414
1733230314683585500,3.90758544921875,-0.9412059783935547,-2.1534745693206787,0.8151322603225708
1733230314693565000,3.91756494140625,-1.2291145324707031,-1.7820775508880615,1.4464539289474487
1733230314703574500,3.927574462890625,-1.7059354782104492,-1.3665547370910645,1.8561500310897827
1733230314713584400,3.93758447265625,-2.2490415573120117,-0.9754067659378052,1.703635573387146
1733230314723563500,3.9475634765625,-2.754298210144043,-0.5674388408660889,1.372139811515808
1733230314733573000,3.957572998046875,-3.310023307800293,-0.3832409381866455,1.0049810409545898
1733230314743583000,3.9675830078125,-3.751769542694092,-0.18522071838378906,0.6497287750244141
1733230314753562400,3.977562255859375,-4.140491485595703,-0.007430553436279297,0.2774691581726074
1733230314763572200,3.987572265625,-4.37928581237793,0.10462784767150879,-0.03624241054058075
1733230314773581800,3.997581787109375,-4.505168437957764,0.11906266212463379,-0.2993481755256653
1733230314783561200,4.007561279296875,-4.423624038696289,-0.007219076156616211,-0.4428898096084595
1733230314793571000,4.017571044921875,-3.8555831909179688,-0.14546871185302734,-0.4739439785480499
1733230314803580700,4.02758056640625,-3.036921977996826,-0.33829545974731445,-0.44326671957969666
1733230314813590300,4.03759033203125,-1.8017253875732422,-0.5481537580490112,-0.3734463155269623
1733230314823569700,4.047569580078125,-0.49562644958496094,-0.640823245048523,-0.4537137746810913
1733230314833579300,4.057579345703125,1.0673770904541016,-0.6747622489929199,-0.7031562328338623
1733230314843589000,4.067589111328125,2.556349754333496,-0.7867199182510376,-0.8514301776885986
1733230314853568500,4.077568603515625,3.6569948196411133,-0.9967758655548096,-0.9709481596946716
1733230314863578000,4.087578125,4.588995933532715,-1.1184964179992676,-1.104828119277954
1733230314873588000,4.097587890625,4.999448776245117,-1.1701939105987549,-1.1495730876922607
1733230314883567400,4.1075673828125,4.956552505493164,-0.9645258784294128,-1.1129460334777832
1733230314893577000,4.117576904296875,4.501289367675781,-0.6407917737960815,-0.8146867752075195
1733230314903586800,4.1275869140625,3.6525278091430664,-0.344465970993042,-0.13271698355674744
1733230314913566000,4.13756591796875,2.742227554321289,-0.1635047197341919,0.48440948128700256
1733230314923575600,4.147575439453125,1.8281831741333008,-0.0764455795288086,1.1107752323150635
1733230314933585400,4.15758544921875,1.2340087890625,-0.17105579376220703,1.3215527534484863
1733230314943564800,4.167564697265625,0.9310970306396484,-0.8122072219848633,1.5697722434997559
1733230314953574400,4.177574462890625,1.0236225128173828,-2.2479147911071777,2.20750093460083
1733230314963584300,4.187584228515625,1.526494026184082,-3.9884490966796875,2.6294450759887695
1733230314973563600,4.197563720703125,2.878694534301758,-5.612439155578613,2.1909923553466797
1733230314983573200,4.2075732421875,4.533592224121094,-6.318824291229248,0.653631329536438
1733230314993583000,4.2175830078125,6.482641220092773,-6.771673679351807,-1.8435566425323486
1733230315003562200,4.227562255859375,7.3836565017700195,-6.715564250946045,-4.079680919647217
1733230315013571800,4.23757177734375,7.124443054199219,-6.41370153427124,-5.306326389312744
1733230315023581700,4.247581787109375,6.026405334472656,-6.152350425720215,-4.761861801147461
1733230315033561000,4.25756103515625,3.8273630142211914,-5.456386566162109,-3.3187525272369385
1733230315043570700,4.26757080078125,1.4265613555908203,-4.6351776123046875,-1.681449055671692
1733230315053580500,4.27758056640625,-1.1874656677246094,-3.731437921524048,0.17016102373600006
1733230315063590400,4.28759033203125,-2.9931135177612305,-2.829159736633301,1.5291388034820557
1733230315073569800,4.29756982421875,-3.929786205291748,-2.1626338958740234,2.1947431564331055
1733230315083579400,4.307579345703125,-4.35094690322876,-1.7780247926712036,2.3456850051879883
1733230315093589200,4.31758935546875,-4.106050491333008,-1.4987508058547974,1.8828130960464478
1733230315103568400,4.327568359375,-3.5213966369628906,-1.192030668258667,1.1573424339294434
1733230315113578000,4.337577880859375,-2.877906322479248,-1.0154701471328735,0.6508323550224304
1733230315123587800,4.347587890625,-2.167923927307129,-0.7459135055541992,0.1712280660867691
1733230315133567200,4.357567138671875,-1.6918087005615234,-0.4802064895629883,-0.09531047195196152
1733230315143576800,4.367576904296875,-1.3904447555541992,-0.29225921630859375,-0.1030208170413971
1733230315153586700,4.377586669921875,-1.4837980270385742,-0.20427179336547852,0.10837263613939285
1733230315163566000,4.387566162109375,-1.7571725845336914,-0.12233948707580566,0.33542439341545105
1733230315173575700,4.39757568359375,-2.1003074645996094,-0.18783283233642578,0.564432680606842
1733230315183585500,4.40758544921875,-2.325382709503174,-0.3399620056152344,0.6125351190567017
1733230315193565000,4.41756494140625,-2.453278064727783,-0.5379102230072021,0.23513159155845642
1733230315203574500,4.427574462890625,-2.497469425201416,-0.7988202571868896,-0.332489013671875
1733230315213584400,4.43758447265625,-2.3992390632629395,-1.0685112476348877,-0.7449395060539246
1733230315223563500,4.4475634765625,-2.0656208992004395,-1.3017356395721436,-0.9853825569152832
1733230315233573400,4.457573486328125,-1.618422031402588,-1.4602209329605103,-1.1481865644454956
1733230315243583000,4.4675830078125,-1.112807273864746,-1.5453510284423828,-1.1459555625915527
1733230315253562400,4.477562255859375,-0.43278980255126953,-1.6284955739974976,-0.9128906726837158
1733230315263572000,4.487572021484375,0.05638885498046875,-1.651686191558838,-0.5173099040985107
1733230315273581800,4.497581787109375,0.30075740814208984,-1.7033908367156982,0.0032436251640319824
1733230315283561200,4.507561279296875,0.2178506851196289,-1.6764893531799316,0.37151724100112915
1733230315293570800,4.51757080078125,-0.036108970642089844,-1.5783661603927612,0.5079562664031982
1733230315303580700,4.52758056640625,-0.3538055419921875,-1.379048228263855,0.3854294419288635
1733230315313590300,4.53759033203125,-0.6080656051635742,-1.174411416053772,0.08376756310462952
1733230315323569700,4.547569580078125,-0.9211187362670898,-0.9469372034072876,-0.02928638458251953
1733230315333579300,4.557579345703125,-1.0183782577514648,-0.779376745223999,0.26218968629837036
1733230315343589000,4.567589111328125,-0.8862543106079102,-0.5810990333557129,0.9435551166534424
1733230315353568500,4.577568603515625,-0.6496219635009766,-0.6104068756103516,1.7451399564743042
1733230315363578000,4.587578125,-0.33054351806640625,-0.8742457628250122,2.275010824203491
1733230315373588000,4.597587890625,0.0159149169921875,-0.9968059062957764,1.9659817218780518
1733230315383567400,4.6075673828125,0.18279170989990234,-1.4038728475570679,1.192307949066162
1733230315393577000,4.617576904296875,0.3032655715942383,-1.973768949508667,0.04159598425030708
1733230315403586800,4.6275869140625,0.6379289627075195,-2.0874338150024414,-1.1938114166259766
1733230315413566000,4.63756591796875,0.8088579177856445,-1.9279969930648804,-2.1521458625793457
1733230315423575600,4.647575439453125,0.7214746475219727,-1.401475429534912,-2.4911372661590576
1733230315433585400,4.65758544921875,0.5704202651977539,-0.40221500396728516,-2.5688252449035645
1733230315443564800,4.667564697265625,0.2413949966430664,0.027581453323364258,-1.8695993423461914
1733230315453574700,4.67757470703125,-0.23209571838378906,-0.7287461757659912,0.27890267968177795
1733230315463584300,4.687584228515625,-0.388031005859375,-2.220043182373047,2.7013747692108154
1733230315473563600,4.697563720703125,0.6552772521972656,-3.883078098297119,4.257014751434326
1733230315483573500,4.707573486328125,2.736906051635742,-5.316740989685059,3.8800952434539795
1733230315493583000,4.7175830078125,5.635185241699219,-7.184047698974609,2.0198440551757812
1733230315503562200,4.727562255859375,8.847750663757324,-8.476068496704102,-1.434877872467041
1733230315513572000,4.737572021484375,11.21677017211914,-8.970433235168457,-4.8069658279418945
1733230315523581700,4.747581787109375,12.519585609436035,-8.714631080627441,-7.134682655334473
1733230315533561000,4.75756103515625,12.449048042297363,-8.037790298461914,-7.032835483551025
1733230315543571000,4.767571044921875,10.806886672973633,-7.177150726318359,-5.149064540863037
1733230315553580500,4.77758056640625,8.513997077941895,-6.139101982116699,-3.198040723800659
1733230315563590400,4.78759033203125,5.370029449462891,-4.704709529876709,-1.0123306512832642
1733230315573569800,4.79756982421875,2.4808616638183594,-3.6905269622802734,0.84007728099823
1733230315583579400,4.807579345703125,-0.3029346466064453,-2.595379590988159,2.018850326538086
1733230315593589200,4.81758935546875,-2.1517529487609863,-2.001178741455078,2.6253345012664795
1733230315603568400,4.827568359375,-3.563554286956787,-1.6969752311706543,2.73244571685791
1733230315613578000,4.837577880859375,-4.297801971435547,-1.7244468927383423,2.187729835510254
1733230315623587800,4.847587890625,-4.319239616394043,-1.899064540863037,1.3474081754684448
1733230315633567200,4.857567138671875,-3.8799009323120117,-2.115222215652466,0.1965717226266861
1733230315643576800,4.867576904296875,-3.3506555557250977,-2.467672348022461,-0.46395599842071533
1733230315653586700,4.877586669921875,-2.82564640045166,-2.8215725421905518,-0.8291293382644653
1733230315663566000,4.887566162109375,-2.3939971923828125,-3.047682285308838,-1.1679484844207764
1733230315673575700,4.89757568359375,-2.020881175994873,-3.2229108810424805,-1.364598274230957
1733230315683585500,4.90758544921875,-1.6916584968566895,-3.3188395500183105,-1.2964568138122559
1733230315693565000,4.91756494140625,-1.307912826538086,-3.3498919010162354,-1.0061869621276855
1733230315703574500,4.927574462890625,-0.9462213516235352,-3.3640503883361816,-0.7215070724487305
1733230315713584400,4.93758447265625,-0.6135396957397461,-3.3248066902160645,-0.5449175834655762
1733230315723563500,4.9475634765625,-0.2707052230834961,-3.1905617713928223,-0.49468547105789185
1733230315733573000,4.957572998046875,-0.0729990005493164,-2.9811878204345703,-0.4250584840774536
1733230315743583000,4.9675830078125,-0.17797279357910156,-2.844160556793213,-0.24335134029388428
1733230315753562400,4.977562255859375,-0.4350576400756836,-2.7461748123168945,-0.12482696771621704
1733230315763572200,4.987572265625,-0.7587699890136719,-2.5671072006225586,-0.18722504377365112
1733230315773581800,4.997581787109375,-1.1085844039916992,-2.387326955795288,-0.270002543926239
1733230315783561200,5.007561279296875,-1.3917455673217773,-2.192697048187256,-0.18781471252441406
1733230315793571000,5.017571044921875,-1.5900249481201172,-2.1030142307281494,-0.004736185073852539
1733230315803580700,5.02758056640625,-1.7566213607788086,-2.127814769744873,0.1555955410003662
1733230315813590300,5.03759033203125,-1.9685931205749512,-2.222667932510376,0.16849857568740845
1733230315823569700,5.047569580078125,-1.9799585342407227,-2.3357064723968506,-0.007901966571807861
1733230315833579300,5.057579345703125,-1.7632670402526855,-2.488821268081665,-0.3422088027000427
1733230315843589000,5.067589111328125,-1.4479742050170898,-2.713890314102173,-0.6454166173934937
1733230315853568500,5.077568603515625,-1.036576271057129,-2.8782997131347656,-0.9068469405174255
1733230315863578000,5.087578125,-0.655426025390625,-3.0837743282318115,-0.8643941283226013
1733230315873588000,5.097587890625,-0.2033863067626953,-3.226881265640259,-0.8533505797386169
1733230315883567400,5.1075673828125,0.17586231231689453,-3.3006205558776855,-0.8435295224189758
1733230315893577000,5.117576904296875,0.8095951080322266,-3.422931671142578,-0.7678943276405334
1733230315903586600,5.127586669921875,1.3098821640014648,-3.3494231700897217,-0.7595922350883484
1733230315913566000,5.13756591796875,1.7431097030639648,-3.1621742248535156,-0.5567295551300049
1733230315923575600,5.147575439453125,1.9617185592651367,-2.8610787391662598,-0.3579181432723999
1733230315933585400,5.15758544921875,1.9386405944824219,-2.6785874366760254,0.1521090269088745
1733230315943564800,5.167564697265625,1.736231803894043,-2.4900248050689697,0.49155640602111816
1733230315953574400,5.177574462890625,1.3156557083129883,-2.3641300201416016,0.8177003860473633
1733230315963584300,5.187584228515625,0.8244161605834961,-2.2140960693359375,1.0814294815063477
1733230315973563600,5.197563720703125,0.4290914535522461,-2.1243722438812256,1.197547435760498
1733230315983573200,5.2075732421875,0.11166858673095703,-2.1198103427886963,1.2102090120315552
1733230315993583000,5.2175830078125,0.19240856170654297,-2.177736282348633,1.0416300296783447
1733230316003562200,5.227562255859375,0.6088371276855469,-2.322704792022705,0.65818852186203
1733230316013571800,5.23757177734375,1.0955257415771484,-2.5041112899780273,0.2997285723686218
1733230316023581700,5.247581787109375,1.5361976623535156,-2.6389143466949463,-0.0974983274936676
1733230316033561000,5.25756103515625,1.6616649627685547,-2.6936302185058594,-0.5441869497299194
1733230316043570700,5.26757080078125,1.472874641418457,-2.597355842590332,-0.9629918336868286
1733230316053580500,5.27758056640625,1.0555334091186523,-2.3698551654815674,-1.15590500831604
1733230316063590400,5.28759033203125,0.46100521087646484,-2.2160770893096924,-1.1906683444976807
1733230316073569800,5.29756982421875,-0.2644472122192383,-2.100351333618164,-1.162956714630127
1733230316083579400,5.307579345703125,-0.8638143539428711,-2.029369354248047,-0.9988898634910583
1733230316093589200,5.31758935546875,-1.4409809112548828,-2.080594301223755,-0.712273120880127
1733230316103568400,5.327568359375,-1.7030510902404785,-2.2111310958862305,-0.39561158418655396
1733230316113578000,5.337577880859375,-1.5486135482788086,-2.4090545177459717,0.014699280261993408
1733230316123587800,5.347587890625,-1.2196464538574219,-2.5781970024108887,0.577364444732666
1733230316133567200,5.357567138671875,-0.6904125213623047,-2.6865134239196777,0.9450130462646484
1733230316143576800,5.367576904296875,-0.1498727798461914,-2.7086620330810547,1.1364511251449585
1733230316153586700,5.377586669921875,0.47629737854003906,-2.728463649749756,1.315959095954895
1733230316163566000,5.387566162109375,1.1372365951538086,-2.5722458362579346,1.3704979419708252
1733230316173575700,5.39757568359375,1.5615472793579102,-2.3860836029052734,1.2540169954299927
1733230316183585500,5.40758544921875,1.6735420227050781,-2.2938451766967773,1.1445308923721313
1733230316193565000,5.41756494140625,1.3891487121582031,-2.1947288513183594,1.0957682132720947
1733230316203574500,5.427574462890625,0.6491451263427734,-2.0794131755828857,0.921502411365509
1733230316213584400,5.43758447265625,-0.20287322998046875,-1.938060998916626,0.6933242082595825
1733230316223563500,5.4475634765625,-1.088271141052246,-1.860777497291565,0.5039336681365967
1733230316233573400,5.457573486328125,-1.742905616760254,-1.8947985172271729,0.3289872109889984
1733230316243583000,5.4675830078125,-2.158341407775879,-1.8749339580535889,0.05408740043640137
1733230316253562400,5.477562255859375,-2.3643031120300293,-1.8864548206329346,-0.18380782008171082
1733230316263572000,5.487572021484375,-2.3617563247680664,-1.912446141242981,-0.454257994890213
1733230316273581800,5.497581787109375,-2.095177173614502,-1.9041560888290405,-0.5396263599395752
1733230316283561200,5.507561279296875,-1.6519861221313477,-1.8629080057144165,-0.3837701082229614
1733230316293570800,5.51757080078125,-0.9626026153564453,-1.8899750709533691,0.00033214688301086426
1733230316303580700,5.52758056640625,-0.2707481384277344,-1.9086133241653442,0.3328164517879486
1733230316313590500,5.537590576171875,0.4027719497680664,-2.0467748641967773,0.6071155667304993
1733230316323569700,5.547569580078125,0.9703598022460938,-2.1322340965270996,0.7644789218902588
1733230316333579300,5.557579345703125,1.4541244506835938,-2.225630760192871,0.8173832893371582
1733230316343589000,5.567589111328125,1.766037940979004,-2.331149101257324,0.7729576826095581
1733230316353568500,5.577568603515625,2.0166101455688477,-2.3860836029052734,0.5431353449821472
1733230316363578000,5.587578125,2.1619014739990234,-2.363032341003418,0.1901250183582306
1733230316373588000,5.597587890625,2.175569534301758,-2.327582359313965,-0.3008769154548645
1733230316383567400,5.6075673828125,2.0408716201782227,-2.2808642387390137,-0.7620787620544434
1733230316393577000,5.617576904296875,1.7047033309936523,-2.227682590484619,-0.8243259191513062
1733230316403586800,5.6275869140625,1.2173786163330078,-2.1732707023620605,-0.5379536747932434
1733230316413566000,5.63756591796875,0.8067626953125,-2.0510153770446777,-0.26814380288124084
1733230316423575600,5.647575439453125,0.48061275482177734,-2.0287811756134033,0.05554971098899841
1733230316433585400,5.65758544921875,0.24772167205810547,-1.905228614807129,0.2526909112930298
1733230316443564800,5.667564697265625,-0.00026702880859375,-1.7582964897155762,0.43185660243034363
1733230316453574700,5.67757470703125,-0.1078033447265625,-1.6829376220703125,0.547494649887085
1733230316463584300,5.687584228515625,-0.07727336883544922,-1.5135130882263184,0.6574889421463013
1733230316473563600,5.697563720703125,-0.0835561752319336,-1.3789129257202148,0.6797630786895752
1733230316483573500,5.707573486328125,-0.05960845947265625,-1.3060449361801147,0.7536383867263794
1733230316493583000,5.7175830078125,-0.0939779281616211,-0.5646999478340149,0.43620070815086365
1733230316503562200,5.727562255859375,-0.06252002716064453,-0.12951403856277466,0.1732395738363266
1733230316513572000,5.737572021484375,-0.10443782806396484,-0.08759233355522156,0.09041786193847656
1733230316523581700,5.747581787109375,0.7000856399536133,-0.2869932949542999,0.48532649874687195
1733230316533561000,5.75756103515625,0.4007587432861328,0.08403505384922028,-0.21077944338321686
1733230316543571000,5.767571044921875,-0.9150533676147461,0.389302521944046,-0.6899586915969849
1733230316553580500,5.77758056640625,-1.7658586502075195,0.08884251117706299,-0.2405531406402588
1733230316563590400,5.78759033203125,-2.2312464714050293,-0.08845342695713043,0.10673478245735168
1733230316573569800,5.79756982421875,-2.2565202713012695,-0.2707282602787018,0.1236034408211708
1733230316583579400,5.807579345703125,-1.7225141525268555,-0.4097546935081482,-0.2362755984067917
1733230316593589200,5.81758935546875,-0.7108154296875,-0.6288628578186035,-1.0188374519348145
1733230316603568400,5.827568359375,0.24996185302734375,-0.6628279685974121,-1.605825662612915
1733230316613578200,5.837578125,1.4407215118408203,-0.49381476640701294,-1.6101243495941162
1733230316623587800,5.847587890625,2.258580207824707,-0.35811150074005127,-1.2184257507324219
1733230316633567200,5.857567138671875,2.320436477661133,-0.06680214405059814,-0.9404218792915344
1733230316643576800,5.867576904296875,1.9132003784179688,0.14502669870853424,-0.760657548904419
