time,seconds_elapsed,z,y,x
1733230310954047500,0.178047607421875,-0.10506882518529892,-0.022602014243602753,-0.08429940044879913
1733230310963835600,0.187835693359375,-0.10201449692249298,0.016493361443281174,-0.09957103431224823
1733230310973666300,0.197666259765625,-0.06902777403593063,0.07024950534105301,-0.10384709388017654
1733230310983667500,0.20766748046875,-0.04642575979232788,0.08796459436416626,-0.10018189996480942
1733230310993655300,0.2176552734375,-0.036041051149368286,0.08246681094169617,-0.08796459436416626
1733230311003656400,0.227656494140625,-0.039095375686883926,0.06780604273080826,-0.07330382615327835
1733230311013644300,0.237644287109375,-0.04886921867728233,0.06658431142568588,-0.06291911751031876
1733230311023676000,0.247676025390625,-0.0555887371301651,0.0507018156349659,-0.048258353024721146
1733230311033633300,0.25763330078125,-0.05497787147760391,0.027488935738801956,-0.028099801391363144
1733230311043665200,0.2676650390625,-0.056810468435287476,0.01038470957428217,0.010995574295520782
1733230311053653000,0.277653076171875,-0.060475658625364304,0.01160643994808197,0.033597588539123535
1733230311063684600,0.2876845703125,-0.06414084881544113,0.02015855349600315,0.04886921867728233
1733230311073641700,0.297641845703125,-0.06352998316287994,0.02382374368607998,0.05619960278272629
1733230311083673600,0.307673583984375,-0.05742133408784866,0.029932396486401558,0.05925392732024193
1733230311093661400,0.317661376953125,-0.04764748737215996,0.04581489413976669,0.060475658625364304
1733230311103662300,0.327662353515625,-0.031154127791523933,0.05864306539297104,0.05619960278272629
1733230311113649400,0.3376494140625,0.0012217304902151227,0.06291911751031876,0.04703662544488907
1733230311123681300,0.347681396484375,0.06291911751031876,0.0555887371301651,0.02871066704392433
1733230311133639000,0.357638916015625,0.08185594528913498,0.039706241339445114,0.02321287989616394
1733230311143670300,0.367670166015625,0.06963863968849182,0.02015855349600315,0.01710422709584236
1733230311153658400,0.377658447265625,0.0354301854968071,0,0.00733038317412138
1733230311163659300,0.3876591796875,-0.003054326167330146,-0.01710422709584236,-0.009773843921720982
1733230311173647600,0.397647705078125,-0.039706241339445114,-0.031154127791523933,-0.031154127791523933
1733230311183679000,0.407678955078125,-0.07024950534105301,-0.039095375686883926,-0.060475658625364304
1733230311193636600,0.41763671875,-0.08491026610136032,-0.04092797264456749,-0.10812314599752426
1733230311203668200,0.427668212890625,-0.07452555745840073,-0.03848451003432274,-0.13255776464939117
1733230311213656600,0.437656494140625,-0.06780604273080826,-0.04642575979232788,-0.14905111491680145
1733230311223657500,0.447657470703125,-0.06291911751031876,-0.04764748737215996,-0.1508837193250656
1733230311233645600,0.4576455078125,-0.06169738993048668,-0.03787364438176155,-0.13988813757896423
1733230311243677200,0.46767724609375,-0.06414084881544113,-0.03176499158143997,-0.11728613078594208
1733230311253634300,0.47763427734375,-0.06780604273080826,-0.0403171069920063,-0.07941248267889023
1733230311263666200,0.487666259765625,-0.07941248267889023,-0.05925392732024193,-0.006719517521560192
1733230311273654000,0.497654052734375,-0.07635815441608429,-0.059864792972803116,0.0507018156349659
1733230311283655200,0.5076552734375,-0.06352998316287994,-0.054367005825042725,0.09957103431224823
1733230311293643300,0.517643310546875,-0.048258353024721146,-0.04642575979232788,0.12767083942890167
1733230311303674600,0.527674560546875,-0.042760565876960754,-0.03726277872920036,0.12400564551353455
1733230311313662700,0.537662841796875,-0.04581489413976669,-0.029932396486401558,0.09346238523721695
1733230311323663600,0.54766357421875,-0.054367005825042725,-0.02932153269648552,0.04581489413976669
1733230311333651500,0.5576513671875,-0.06475171446800232,-0.025656340643763542,-0.0012217304902151227
1733230311343683300,0.567683349609375,-0.060475658625364304,-0.00366519158706069,-0.04092797264456749
1733230311353640400,0.577640380859375,-0.04703662544488907,0.016493361443281174,-0.0403171069920063
1733230311363672300,0.58767236328125,-0.02871066704392433,0.02932153269648552,-0.02015855349600315
1733230311373660200,0.59766015625,-0.00855211354792118,0.03176499158143997,0.006108652334660292
1733230311383661300,0.607661376953125,0.013439035043120384,0.02382374368607998,0.028099801391363144
1733230311393649200,0.617649169921875,0.03481931984424591,0.00855211354792118,0.03726277872920036
1733230311403680500,0.627680419921875,0.04398229718208313,-0.013439035043120384,0.025656340643763542
1733230311413638100,0.63763818359375,0.030543262138962746,-0.039095375686883926,-0.025045474991202354
1733230311423669800,0.647669677734375,0.015882495790719986,-0.04398229718208313,-0.06841690838336945
1733230311433657600,0.65765771484375,0.0024434609804302454,-0.039706241339445114,-0.10445795953273773
1733230311443658800,0.66765869140625,-0.01160643994808197,-0.0354301854968071,-0.12400564551353455
1733230311453646600,0.677646484375,-0.01710422709584236,-0.02871066704392433,-0.11239920556545258
1733230311463678200,0.68767822265625,-0.015882495790719986,-0.015882495790719986,-0.07513642311096191
1733230311473635600,0.697635498046875,0.0006108652451075613,-0.009773843921720982,-0.021991148591041565
1733230311483667000,0.7076669921875,0.033597588539123535,-0.015271631069481373,0.05864306539297104
1733230311493655300,0.7176552734375,0.051312681287527084,-0.02015855349600315,0.09773843735456467
1733230311503656000,0.727656005859375,0.059864792972803116,-0.031154127791523933,0.11667526513338089
1733230311513644300,0.737644287109375,0.05192354694008827,-0.05864306539297104,0.1160643994808197
1733230311523675600,0.747675537109375,0.029932396486401558,-0.07757988572120667,0.09529497474431992
1733230311533633300,0.75763330078125,0.001832595793530345,-0.08246681094169617,0.06230825558304787
1733230311543665000,0.767664794921875,-0.027488935738801956,-0.07513642311096191,0.018936822190880775
1733230311553652700,0.77765283203125,-0.05009094998240471,-0.07391469180583954,-0.033597588539123535
1733230311563684400,0.787684326171875,-0.0757472887635231,-0.07208210229873657,-0.1160643994808197
1733230311573641700,0.797641845703125,-0.0861319974064827,-0.059864792972803116,-0.16065755486488342
1733230311583673000,0.807673095703125,-0.08185594528913498,-0.042760565876960754,-0.18570303916931152
1733230311593661400,0.817661376953125,-0.06719517707824707,-0.036651913076639175,-0.1875356286764145
1733230311603662300,0.827662353515625,-0.04886921867728233,-0.039706241339445114,-0.16798794269561768
1733230311613650400,0.837650390625,-0.030543262138962746,-0.04764748737215996,-0.13377949595451355
1733230311623682000,0.84768212890625,-0.010995574295520782,-0.05497787147760391,-0.09224065393209457
1733230311633639400,0.857639404296875,0.00855211354792118,-0.05192354694008827,-0.04153883829712868
1733230311643671000,0.867671142578125,0.015882495790719986,-0.04214970022439957,-0.02382374368607998
1733230311653659000,0.877658935546875,0.016493361443281174,-0.028099801391363144,-0.010995574295520782
1733230311663659800,0.88765966796875,0.01160643994808197,-0.01466076634824276,-0.0024434609804302454
1733230311673647900,0.89764794921875,0.003054326167330146,-0.0006108652451075613,0.00366519158706069
1733230311683679200,0.90767919921875,-0.00366519158706069,0.007941247895359993,0.012217304669320583
1733230311693636900,0.917636962890625,-0.004886921960860491,0.018936822190880775,0.021991148591041565
1733230311703668500,0.92766845703125,0.003054326167330146,0.05009094998240471,0.04153883829712868
1733230311713656300,0.93765625,0.012217304669320583,0.056810468435287476,0.04886921867728233
1733230311723657500,0.947657470703125,0.010995574295520782,0.04092797264456749,0.04337143152952194
1733230311733645800,0.957645751953125,-0.00427605677396059,0.01038470957428217,0.025656340643763542
1733230311743677200,0.96767724609375,-0.018325956538319588,-0.009162978269159794,-0.0006108652451075613
1733230311753634300,0.97763427734375,-0.016493361443281174,-0.00733038317412138,-0.02015855349600315
1733230311763666000,0.987666015625,-0.00427605677396059,0.014049900695681572,-0.028099801391363144
1733230311773654000,0.997654052734375,0.012828170321881771,0.042760565876960754,-0.028099801391363144
1733230311783655200,1.0076552734375,0.036651913076639175,0.06475171446800232,-0.02871066704392433
1733230311793643000,1.01764306640625,0.04581489413976669,0.054367005825042725,-0.03726277872920036
1733230311803674400,1.02767431640625,0.05009094998240471,0.033597588539123535,-0.05742133408784866
1733230311813662700,1.037662841796875,0.05192354694008827,0.00855211354792118,-0.08918632566928864
1733230311823663600,1.04766357421875,0.05497787147760391,-0.009773843921720982,-0.11972958594560623
1733230311833651500,1.0576513671875,0.06108652427792549,-0.015271631069481373,-0.1411098688840866
1733230311843683000,1.06768310546875,0.0659734457731247,-0.006108652334660292,-0.14966198801994324
1733230311853640400,1.077640380859375,0.08429940044879913,0.009773843921720982,-0.12828169763088226
1733230311863672000,1.087672119140625,0.09651670604944229,0.009773843921720982,-0.10506882518529892
1733230311873660200,1.09766015625,0.1007927656173706,0.0006108652451075613,-0.08246681094169617
1733230311883661000,1.1076611328125,0.10506882518529892,-0.006719517521560192,-0.0708603709936142
1733230311893649200,1.117649169921875,0.11239920556545258,-0.007941247895359993,-0.06719517707824707
1733230311903680800,1.1276806640625,0.11789698898792267,-0.00733038317412138,-0.07635815441608429
1733230311913638400,1.137638427734375,0.12095131725072861,-0.010995574295520782,-0.08735372871160507
1733230311923669800,1.147669677734375,0.1258382350206375,-0.021991148591041565,-0.09834930300712585
1733230311933657600,1.15765771484375,0.14782938361167908,-0.01038470957428217,-0.08552113175392151
1733230311943659000,1.167658935546875,0.17531833052635193,0.012217304669320583,-0.05497787147760391
1733230311953646600,1.177646484375,0.2064724564552307,0.03848451003432274,-0.012217304669320583
1733230311963678200,1.18767822265625,0.22846360504627228,0.04886921867728233,0.03237585723400116
1733230311973635800,1.1976357421875,0.24068090319633484,0.04642575979232788,0.06536258012056351
1733230311983667500,1.20766748046875,0.24556782841682434,0.028099801391363144,0.07819075137376785
1733230311993655300,1.2176552734375,0.2431243658065796,0.00855211354792118,0.06475171446800232
1733230312003656400,1.227656494140625,0.22418753802776337,-0.03298672288656235,0.009162978269159794
1733230312013644300,1.237644287109375,0.20952677726745605,-0.0806342139840126,-0.04092797264456749
1733230312023676000,1.247676025390625,0.19914206862449646,-0.12889257073402405,-0.08429940044879913
1733230312033633500,1.257633544921875,0.18325957655906677,-0.15882496535778046,-0.11301007121801376
1733230312043665000,1.267664794921875,0.16310101747512817,-0.1667662113904953,-0.11545353382825851
1733230312053653000,1.277653076171875,0.1411098688840866,-0.1508837193250656,-0.08979719132184982
1733230312063684400,1.287684326171875,0.11972958594560623,-0.11850785464048386,-0.039706241339445114
1733230312073641700,1.297641845703125,0.10445795953273773,-0.0555887371301651,0.06475171446800232
1733230312083673300,1.30767333984375,0.09712757170200348,-0.02015855349600315,0.1264491081237793
1733230312093661400,1.317661376953125,0.08185594528913498,-0.012828170321881771,0.15821409225463867
1733230312103661000,1.3276611328125,0.048258353024721146,-0.029932396486401558,0.14477506279945374
1733230312113649400,1.3376494140625,-0.00733038317412138,-0.05742133408784866,0.07941248267889023
1733230312123680300,1.34768017578125,-0.0708603709936142,-0.07696902006864548,-0.036041051149368286
1733230312133639000,1.357638916015625,-0.14049901068210602,-0.08002334833145142,-0.18997909128665924
1733230312143669500,1.36766943359375,-0.20402899384498596,-0.0507018156349659,-0.36224308609962463
1733230312153658400,1.377658447265625,-0.2571742534637451,0.036041051149368286,-0.5894849896430969
1733230312163658200,1.387658203125,-0.2577851414680481,0.11728613078594208,-0.6633996367454529
1733230312173647400,1.3976474609375,-0.2577851414680481,0.19303341209888458,-0.646906316280365
1733230312183678700,1.4076787109375,-0.2889392673969269,0.24007004499435425,-0.5552765130996704
1733230312193636600,1.41763671875,-0.3433062732219696,0.2223549485206604,-0.42577308416366577
1733230312203668000,1.42766796875,-0.39095374941825867,0.15760323405265808,-0.2926044464111328
1733230312213656300,1.43765625,-0.42699480056762695,0.08368854224681854,-0.18509216606616974
1733230312223684400,1.447684326171875,-0.4502076804637909,0.028099801391363144,-0.08918632566928864
1733230312233645600,1.4576455078125,-0.4398229718208313,0.0354301854968071,-0.07208210229873657
1733230312243677200,1.46767724609375,-0.4129449129104614,0.05742133408784866,-0.09224065393209457
1733230312253634300,1.47763427734375,-0.37262779474258423,0.07147123664617538,-0.1472185254096985
1733230312263666400,1.48766650390625,-0.32681289315223694,0.07391469180583954,-0.22296582162380219
1733230312273654000,1.497654052734375,-0.2742784917354584,0.06963863968849182,-0.3029891550540924
1733230312283655000,1.507655029296875,-0.22968533635139465,0.06963863968849182,-0.3683517575263977
1733230312293643000,1.51764306640625,-0.17592918872833252,0.08368854224681854,-0.40622538328170776
1733230312303674600,1.527674560546875,-0.1417207419872284,0.09468411654233932,-0.37568211555480957
1733230312313662700,1.537662841796875,-0.10445795953273773,0.10445795953273773,-0.31154128909111023
1733230312323663600,1.54766357421875,-0.06719517707824707,0.12278391420841217,-0.2174680233001709
1733230312333651500,1.5576513671875,-0.02626720629632473,0.1459967941045761,-0.11301007121801376
1733230312343682300,1.567682373046875,0.021991148591041565,0.1569923609495163,-0.015882495790719986
1733230312353640700,1.577640625,0.07330382615327835,0.15821409225463867,0.054367005825042725
1733230312363671300,1.58767138671875,0.10445795953273773,0.14905111491680145,0.08429940044879913
1733230312373660200,1.59766015625,0.11789698898792267,0.12217304855585098,0.0659734457731247
1733230312383660500,1.60766064453125,0.11423180252313614,0.09896016865968704,0.025045474991202354
1733230312393649200,1.617649169921875,0.10445795953273773,0.08246681094169617,-0.022602014243602753
1733230312403680300,1.62768017578125,0.08979719132184982,0.07147123664617538,-0.07269296050071716
1733230312413638100,1.63763818359375,0.07757988572120667,0.07696902006864548,-0.11423180252313614
1733230312423669000,1.6476689453125,0.07635815441608429,0.10018189996480942,-0.13927727937698364
1733230312433657600,1.65765771484375,0.09468411654233932,0.1368338167667389,-0.13561208546161652
1733230312443658000,1.667657958984375,0.13072516024112701,0.21991148591041565,-0.07941248267889023
1733230312453646600,1.677646484375,0.14477506279945374,0.25961771607398987,-0.01710422709584236
1733230312463677400,1.687677490234375,0.14966198801994324,0.24556782841682434,0.05619960278272629
1733230312473635600,1.697635498046875,0.13316862285137177,0.1918116807937622,0.13255776464939117
1733230312483666400,1.70766650390625,0.10201449692249298,0.14294247329235077,0.20036379992961884
1733230312493655300,1.7176552734375,0.060475658625364304,0.10995574295520782,0.2431243658065796
1733230312503656000,1.727656005859375,0.016493361443281174,0.08735372871160507,0.24495697021484375
1733230312513644300,1.737644287109375,-0.02321287989616394,0.08674286305904388,0.1875356286764145
1733230312523675600,1.747675537109375,-0.021991148591041565,0.1514945775270462,0.13988813757896423
1733230312533633300,1.75763330078125,0.00427605677396059,0.2620611786842346,0.10934487730264664
1733230312543665000,1.767664794921875,0.04948008432984352,0.39095374941825867,0.10018189996480942
1733230312553652700,1.77765283203125,0.09651670604944229,0.4996877610683441,0.10018189996480942
1733230312563684400,1.787684326171875,0.12461651116609573,0.5393940210342407,0.09224065393209457
1733230312573641700,1.797641845703125,0.13316862285137177,0.4807509481906891,0.06963863968849182
1733230312583673300,1.80767333984375,0.1111774742603302,0.30604347586631775,0.03420845419168472
1733230312593661400,1.817661376953125,0.048258353024721146,-0.06230825558304787,-0.04337143152952194
1733230312603662300,1.827662353515625,0.025045474991202354,-0.24923302233219147,-0.0959058403968811
1733230312613650400,1.837650390625,0.03420845419168472,-0.31520646810531616,-0.11728613078594208
1733230312623681800,1.847681884765625,0.06536258012056351,-0.27000242471694946,-0.0861319974064827
1733230312633639400,1.857639404296875,0.13377949595451355,-0.13744467496871948,0.033597588539123535
1733230312643671000,1.867671142578125,0.22907446324825287,0.08429940044879913,0.2541199326515198
1733230312653658600,1.87765869140625,0.3029891550540924,0.3323107063770294,0.5400048494338989
1733230312663658500,1.887658447265625,0.3445279896259308,0.5174028873443604,0.9065240025520325
1733230312673647900,1.89764794921875,0.36224308609962463,0.46547931432724,1.0476338863372803
1733230312683678200,1.90767822265625,0.35124751925468445,0.34758231043815613,1.0751228332519531
1733230312693636900,1.917636962890625,0.3029891550540924,0.16798794269561768,0.9706648588180542
1733230312703667000,1.9276669921875,0.2272418737411499,-0.04764748737215996,0.7422012686729431
1733230312713656600,1.937656494140625,0.13011430203914642,-0.23396138846874237,0.4129449129104614
1733230312723656200,1.94765625,0.04886921867728233,-0.3335324227809906,0.01771509274840355
1733230312733645600,1.9576455078125,0.03420845419168472,-0.34208452701568604,-0.5442809462547302
1733230312743676000,1.967676025390625,0.07757988572120667,-0.2370157092809677,-0.8020660877227783
1733230312753634300,1.97763427734375,0.13561208546161652,-0.09896016865968704,-0.93095862865448
1733230312763664400,1.987664306640625,0.21563543379306793,0.004886921960860491,-0.9437867999076843
1733230312773654000,1.997654052734375,0.3188716471195221,0.04642575979232788,-0.8546004891395569
1733230312783655000,2.007655029296875,0.42577308416366577,0.03481931984424591,-0.684779942035675
1733230312793643000,2.01764306640625,0.5180137157440186,-0.018325956538319588,-0.44776421785354614
1733230312803674600,2.027674560546875,0.5742133259773254,-0.09346238523721695,-0.17959438264369965
1733230312813662700,2.037662841796875,0.5754350423812866,-0.20402899384498596,0.19058994948863983
1733230312823663900,2.047663818359375,0.5497786998748779,-0.2571742534637451,0.3695734739303589
1733230312833651500,2.0576513671875,0.523511528968811,-0.2938261926174164,0.4764748811721802
1733230312843682300,2.067682373046875,0.5027421116828918,-0.31520646810531616,0.5210680365562439
1733230312853640700,2.077640625,0.4856378734111786,-0.31520646810531616,0.5216789245605469
1733230312863671600,2.087671630859375,0.4660901725292206,-0.28588494658470154,0.48747047781944275
1733230312873660200,2.09766015625,0.44104471802711487,-0.24068090319633484,0.43615779280662537
1733230312883660800,2.107660888671875,0.3897320330142975,-0.16554448008537292,0.33658674359321594
1733230312893649200,2.117649169921875,0.3390302062034607,-0.12461651116609573,0.2632829248905182
1733230312903680300,2.12768017578125,0.27550023794174194,-0.10690141469240189,0.192422553896904
1733230312913638100,2.13763818359375,0.2076941877603531,-0.12400564551353455,0.1313360333442688
1733230312923669200,2.147669189453125,0.1362229436635971,-0.1514945775270462,0.08735372871160507
1733230312933657600,2.15765771484375,0.0659734457731247,-0.16371189057826996,0.0659734457731247
1733230312943658000,2.167657958984375,-0.007941247895359993,-0.16432274878025055,0.05803219974040985
1733230312953646600,2.177646484375,-0.1264491081237793,-0.16982053220272064,0.05742133408784866
1733230312963677400,2.187677490234375,-0.2119702398777008,-0.18570303916931152,0.05375614017248154
1733230312973635800,2.1976357421875,-0.28588494658470154,-0.22418753802776337,0.03787364438176155
1733230312983667200,2.207667236328125,-0.3433062732219696,-0.30482175946235657,0.006108652334660292
1733230312993655300,2.2176552734375,-0.37201693654060364,-0.4050036668777466,-0.03787364438176155
1733230313003656200,2.22765625,-0.3640756905078888,-0.46853363513946533,-0.07941248267889023
1733230313013644300,2.237644287109375,-0.3127630054950714,-0.46303585171699524,-0.0959058403968811
1733230313023676000,2.247676025390625,-0.23090706765651703,-0.3781255781650543,-0.07330382615327835
1733230313033633500,2.257633544921875,-0.09773843735456467,-0.1612684279680252,0.030543262138962746
1733230313043665200,2.2676650390625,-0.08429940044879913,0.00855211354792118,0.08368854224681854
1733230313053653000,2.277653076171875,-0.1765400618314743,0.08674286305904388,0.04337143152952194
1733230313063683300,2.287683349609375,-0.38728857040405273,0.03298672288656235,-0.1111774742603302
1733230313073641700,2.297641845703125,-0.7214318513870239,-0.09957103431224823,-0.35552358627319336
1733230313083673000,2.307673095703125,-1.0867292881011963,-0.18448130786418915,-0.59803706407547
1733230313093661400,2.317661376953125,-1.2962560653686523,-0.06536258012056351,-0.6902777552604675
1733230313103661300,2.327661376953125,-1.0891727209091187,0.47342056035995483,-0.37262779474258423
1733230313113649400,2.3376494140625,-0.6487388610839844,0.8729264140129089,0.09896016865968704
1733230313123680300,2.34768017578125,-0.1014036312699318,1.1252137422561646,0.6524040699005127
1733230313133639000,2.357638916015625,0.3885102868080139,1.188132882118225,1.1636983156204224
1733230313143669200,2.367669189453125,0.7006624341011047,1.036027431488037,1.5149458646774292
1733230313153658400,2.377658447265625,0.799011766910553,0.7580837607383728,1.6633861064910889
1733230313163658000,2.387657958984375,0.6963863968849182,0.4239404797554016,1.5992451906204224
1733230313173647400,2.3976474609375,0.2730567753314972,-0.13805554807186127,1.1215485334396362
1733230313183679700,2.4076796875,-0.051312681287527084,-0.3933972120285034,0.6414085030555725
1733230313193636600,2.41763671875,-0.31093040108680725,-0.475253164768219,0.11423180252313614
1733230313203666700,2.427666748046875,-0.48258355259895325,-0.3805690407752991,-0.39156460762023926
1733230313213656600,2.437656494140625,-0.5583308339118958,-0.15393804013729095,-0.8246681094169617
1733230313223657000,2.447656982421875,-0.5387831330299377,0.1508837193250656,-1.1374311447143555
1733230313233645600,2.4576455078125,-0.45753806829452515,0.4795292317867279,-1.2944234609603882
1733230313243677200,2.46767724609375,-0.3591887652873993,0.7287622094154358,-1.2999212741851807
1733230313253634300,2.47763427734375,-0.252287358045578,0.8350527882575989,-1.0836749076843262
1733230313263666000,2.487666015625,-0.20036379992961884,0.7202101349830627,-0.8484918475151062
1733230313273654000,2.497654052734375,-0.16737708449363708,0.5204572081565857,-0.5693264007568359
1733230313283655000,2.507655029296875,-0.1618792861700058,0.30482175946235657,-0.27488934993743896
1733230313293643000,2.51764306640625,-0.1966986060142517,0.08307767659425735,-0.00427605677396059
1733230313303674600,2.527674560546875,-0.2590068578720093,-0.11056660860776901,0.19547687470912933
1733230313313662700,2.537662841796875,-0.2974913716316223,-0.22113321721553802,0.29016098380088806
1733230313323663400,2.547663330078125,-0.25473082065582275,-0.19425514340400696,0.27122417092323303
1733230313333651500,2.5576513671875,-0.1973094791173935,-0.08857546001672745,0.19486601650714874
1733230313343682800,2.567682861328125,-0.12278391420841217,0.039095375686883926,0.10690141469240189
1733230313353640400,2.577640380859375,-0.05009094998240471,0.17531833052635193,0.03848451003432274
1733230313363671300,2.58767138671875,-0.006108652334660292,0.3017674386501312,-0.001832595793530345
1733230313373660000,2.597659912109375,0.015882495790719986,0.3842342495918274,-0.021380282938480377
1733230313383660800,2.607660888671875,0.029932396486401558,0.43615779280662537,-0.02015855349600315
1733230313393649200,2.617649169921875,0.02382374368607998,0.45875978469848633,0.027488935738801956
1733230313403680500,2.627680419921875,0.021380282938480377,0.4092797040939331,0.08857546001672745
1733230313413638100,2.63763818359375,0.03848451003432274,0.30054569244384766,0.16798794269561768
1733230313423669800,2.647669677734375,0.07819075137376785,0.16432274878025055,0.24678955972194672
1733230313433657600,2.65765771484375,0.13072516024112701,0.039706241339445114,0.28466320037841797
1733230313443658000,2.667657958984375,0.17409659922122955,-0.06902777403593063,0.25473082065582275
1733230313453646600,2.677646484375,0.19303341209888458,-0.13561208546161652,0.16065755486488342
1733230313463678200,2.68767822265625,0.17837265133857727,-0.15760323405265808,0.019547687843441963
1733230313473635600,2.697635498046875,0.13255776464939117,-0.23335053026676178,-0.21013765037059784
1733230313483667500,2.70766748046875,0.14355333149433136,-0.33536502718925476,-0.3194825351238251
1733230313493655300,2.7176552734375,0.2125810980796814,-0.4129449129104614,-0.3549126982688904
1733230313503656200,2.72765625,0.3188716471195221,-0.4098905920982361,-0.29626965522766113
1733230313513644300,2.737644287109375,0.44715335965156555,-0.323147714138031,-0.14477506279945374
1733230313523676000,2.747676025390625,0.5711590051651001,-0.14782938361167908,0.0959058403968811
1733230313533633300,2.75763330078125,0.6524040699005127,0.05619960278272629,0.3995058834552765
1733230313543665000,2.767664794921875,0.6090326309204102,0.15027284622192383,0.7953465580940247
1733230313553652700,2.77765283203125,0.48258355259895325,0.11056660860776901,0.950506329536438
1733230313563684400,2.787684326171875,0.29016098380088806,0.07696902006864548,1.0231993198394775
1733230313573641700,2.797641845703125,0.05864306539297104,0.01160643994808197,1.0207557678222656
1733230313583673300,2.80767333984375,-0.1667662113904953,-0.07269296050071716,0.9639453291893005
1733230313593661400,2.817661376953125,-0.32559117674827576,-0.12095131725072861,0.8839219808578491
1733230313603661000,2.8276611328125,-0.38117989897727966,-0.13439035415649414,0.7837401032447815
1733230313613650400,2.837650390625,-0.27611109614372253,-0.11178833991289139,0.5754350423812866
1733230313623680800,2.8476806640625,-0.1368338167667389,-0.08124507963657379,0.37629300355911255
1733230313633639400,2.857639404296875,-0.00366519158706069,-0.04642575979232788,0.14233160018920898
1733230313643669500,2.86766943359375,0.07880161702632904,0.013439035043120384,-0.09834930300712585
1733230313653659000,2.877658935546875,0.10995574295520782,0.1215621829032898,-0.29565876722335815
1733230313663658800,2.88765869140625,0.11545353382825851,0.25595253705978394,-0.42577308416366577
1733230313673647900,2.89764794921875,0.11728613078594208,0.3689626157283783,-0.48747047781944275
1733230313683679200,2.90767919921875,0.1111774742603302,0.4202753007411957,-0.494189977645874
1733230313693636900,2.917636962890625,0.09468411654233932,0.37262779474258423,-0.43615779280662537
1733230313703667000,2.9276669921875,0.11484266817569733,0.252287358045578,-0.38667771220207214
1733230313713656600,2.937656494140625,0.18081611394882202,0.05192354694008827,-0.342695415019989
1733230313723657500,2.947657470703125,0.29138273000717163,-0.20402899384498596,-0.2974913716316223
1733230313733645600,2.9576455078125,0.4050036668777466,-0.4538728892803192,-0.2583959996700287
1733230313743677000,2.967677001953125,0.49357911944389343,-0.6029239892959595,-0.21380282938480377
1733230313753634300,2.97763427734375,0.5491678714752197,-0.6096435189247131,-0.16249015927314758
1733230313763666000,2.987666015625,0.5876523852348328,-0.4153883755207062,-0.07757988572120667
1733230313773654000,2.997654052734375,0.5858197808265686,-0.2370157092809677,-0.013439035043120384
1733230313783654700,3.007654541015625,0.5619960427284241,-0.0910189226269722,0.06841690838336945
1733230313793643000,3.01764306640625,0.5088507533073425,-0.045204028487205505,0.1459967941045761
1733230313803674000,3.027674072265625,0.4489859640598297,-0.09773843735456467,0.1918116807937622
1733230313813662700,3.037662841796875,0.4056145250797272,-0.1722639948129654,0.20830504596233368
1733230313823662600,3.04766259765625,0.384845107793808,-0.23457226157188416,0.19547687470912933
1733230313833651500,3.0576513671875,0.3597996234893799,-0.33536502718925476,0.11484266817569733
1733230313843681800,3.067681884765625,0.34147366881370544,-0.40256020426750183,0.024434609338641167
1733230313853640700,3.077640625,0.31093040108680725,-0.42699480056762695,-0.09162978827953339
1733230313863671600,3.087671630859375,0.2626720666885376,-0.394008070230484,-0.2223549485206604
1733230313873660200,3.09766015625,0.19547687470912933,-0.3237585723400116,-0.3481931984424591
1733230313883661000,3.1076611328125,0.1362229436635971,-0.22907446324825287,-0.4398229718208313
1733230313893649200,3.117649169921875,0.09224065393209457,-0.14477506279945374,-0.47280970215797424
1733230313903680500,3.127680419921875,0.07147123664617538,-0.06291911751031876,-0.42210787534713745
1733230313913638100,3.13763818359375,0.08918632566928864,-0.09651670604944229,-0.23396138846874237
1733230313923669800,3.147669677734375,0.12889257073402405,-0.2168571650981903,-0.06169738993048668
1733230313933657600,3.15765771484375,0.19853121042251587,-0.3646865487098694,0.12828169763088226
1733230313943658800,3.16765869140625,0.3029891550540924,-0.45204028487205505,0.32070425152778625
1733230313953646800,3.177646728515625,0.4300491213798523,-0.42210787534713745,0.513737678527832
1733230313963678500,3.187678466796875,0.5467243790626526,-0.31031954288482666,0.7006624341011047
1733230313973635800,3.1976357421875,0.5962044596672058,-0.18936823308467865,0.8588765263557434
1733230313983666200,3.207666259765625,0.503963828086853,0.012828170321881771,0.9963212013244629
1733230313993655300,3.2176552734375,0.35735616087913513,0.1111774742603302,1.0030407905578613
1733230314003655000,3.227655029296875,0.14782938361167908,0.09468411654233932,0.9327912330627441
1733230314013644300,3.237644287109375,-0.13011430203914642,-0.021991148591041565,0.7709119319915771
1733230314023674600,3.247674560546875,-0.45692721009254456,-0.1814269721508026,0.5174028873443604
1733230314033633500,3.257633544921875,-0.7751879692077637,-0.3182607889175415,0.1722639948129654
1733230314043665400,3.26766552734375,-1.017701506614685,-0.35124751925468445,-0.19608774781227112
1733230314053653000,3.277653076171875,-1.1704177856445312,-0.19486601650714874,-0.598647952079773
1733230314063683800,3.287683837890625,-1.1203268766403198,-0.05192354694008827,-0.6963863968849182
1733230314073641700,3.297641845703125,-0.9352346658706665,0.10018189996480942,-0.6414085030555725
1733230314083673000,3.307673095703125,-0.6426302194595337,0.24007004499435425,-0.46731191873550415
1733230314093661400,3.317661376953125,-0.2926044464111328,0.32681289315223694,-0.22968533635139465
1733230314103662300,3.327662353515625,0.02932153269648552,0.3481931984424591,0.013439035043120384
1733230314113649400,3.3376494140625,0.2376265823841095,0.3121521472930908,0.20830504596233368
1733230314123681500,3.347681640625,0.3017674386501312,0.26083946228027344,0.31581732630729675
1733230314133639000,3.357638916015625,0.23151792585849762,0.2064724564552307,0.35246923565864563
1733230314143669000,3.3676689453125,0.13988813757896423,0.21502456068992615,0.3396410644054413
1733230314153658400,3.377658447265625,0.042760565876960754,0.26022860407829285,0.3170390725135803
1733230314163659000,3.387658935546875,-0.04337143152952194,0.32131510972976685,0.2993239760398865
1733230314173647400,3.3976474609375,-0.10201449692249298,0.39584067463874817,0.2932153046131134
1733230314183678500,3.407678466796875,-0.1459967941045761,0.475253164768219,0.2926044464111328
1733230314193636600,3.41763671875,-0.17959438264369965,0.5326744914054871,0.2834414839744568
1733230314203667500,3.42766748046875,-0.2376265823841095,0.5455026626586914,0.23335053026676178
1733230314213656300,3.43765625,-0.2926044464111328,0.5186246037483215,0.1814269721508026
1733230314223684600,3.4476845703125,-0.3530801236629486,0.46303585171699524,0.1111774742603302
1733230314233645300,3.457645263671875,-0.4056145250797272,0.3677408695220947,0.016493361443281174
1733230314243676000,3.467676025390625,-0.4495968222618103,0.251676470041275,-0.10018189996480942
1733230314253634300,3.47763427734375,-0.46670106053352356,0.15027284622192383,-0.22602014243602753
1733230314263665000,3.487664794921875,-0.4337143301963806,0.08307767659425735,-0.3433062732219696
1733230314273654000,3.497654052734375,-0.33658674359321594,0.07452555745840073,-0.4795292317867279
1733230314283654000,3.50765380859375,-0.2638937830924988,0.09224065393209457,-0.5418374538421631
1733230314293643300,3.517643310546875,-0.1765400618314743,0.0910189226269722,-0.5668829679489136
1733230314303674600,3.527674560546875,-0.07819075137376785,0.07452555745840073,-0.5363397002220154
1733230314313662700,3.537662841796875,0.02015855349600315,0.036651913076639175,-0.45753806829452515
1733230314323663600,3.54766357421875,0.10995574295520782,-0.009773843921720982,-0.3494149148464203
1733230314333651500,3.5576513671875,0.16920967400074005,-0.04337143152952194,-0.23945917189121246
1733230314343683000,3.56768310546875,0.16982053220272064,-0.029932396486401558,-0.13866640627384186
1733230314353640400,3.577640380859375,0.11362093687057495,0.03420845419168472,-0.006108652334660292
1733230314363671600,3.587671630859375,0.08552113175392151,0.009162978269159794,0.060475658625364304
1733230314373660200,3.59766015625,0.09468411654233932,-0.09712757170200348,0.1014036312699318
1733230314383660500,3.60766064453125,0.1319468915462494,-0.2076941877603531,0.10995574295520782
1733230314393649200,3.617649169921875,0.16798794269561768,-0.2541199326515198,0.07024950534105301
1733230314403680000,3.627679931640625,0.16920967400074005,-0.24556782841682434,-0.03420845419168472
1733230314413638100,3.63763818359375,0.13439035415649414,-0.22540926933288574,-0.19608774781227112
1733230314423669800,3.647669677734375,0.06841690838336945,-0.19608774781227112,-0.48808133602142334
1733230314433657600,3.65765771484375,0.05497787147760391,-0.2321287989616394,-0.6774495840072632
1733230314443658800,3.66765869140625,0.08491026610136032,-0.2932153046131134,-0.827722430229187
1733230314453646600,3.677646484375,0.15027284622192383,-0.33108896017074585,-0.9108000993728638
1733230314463678200,3.68767822265625,0.23151792585849762,-0.3396410644054413,-0.9138544201850891
1733230314473635800,3.6976357421875,0.323147714138031,-0.30604347586631775,-0.8228355050086975
1733230314483667200,3.707667236328125,0.40744712948799133,-0.23518311977386475,-0.6377432942390442
1733230314493655300,3.7176552734375,0.44226643443107605,-0.1667662113904953,-0.2687807083129883
1733230314503656400,3.727656494140625,0.33169981837272644,-0.15821409225463867,-0.039706241339445114
1733230314513644300,3.737644287109375,0.11850785464048386,-0.11972958594560623,0.15027284622192383
1733230314523676000,3.747676025390625,-0.13377949595451355,-0.06841690838336945,0.3127630054950714
1733230314533633300,3.75763330078125,-0.34636059403419495,-0.05497787147760391,0.455705463886261
1733230314543665000,3.767664794921875,-0.4948008358478546,-0.018325956538319588,0.5876523852348328
1733230314553652700,3.77765283203125,-0.5674937963485718,0.03787364438176155,0.7024950385093689
1733230314563683000,3.78768310546875,-0.5558874011039734,0.08002334833145142,0.7727445363998413
1733230314573641700,3.797641845703125,-0.4056145250797272,0.1612684279680252,0.7489207983016968
1733230314583672000,3.807672119140625,-0.24862214922904968,0.24434609711170197,0.6432411074638367
1733230314593661400,3.817661376953125,-0.07513642311096191,0.3390302062034607,0.48258355259895325
1733230314603661000,3.8276611328125,0.09162978827953339,0.44104471802711487,0.3066543638706207
1733230314613650400,3.837650390625,0.22907446324825287,0.5326744914054871,0.13316862285137177
1733230314623680800,3.8476806640625,0.3225368559360504,0.5723807215690613,-0.02932153269648552
1733230314633639400,3.857639404296875,0.3738495409488678,0.5589417219161987,-0.16982053220272064
1733230314643671000,3.867671142578125,0.40744712948799133,0.44165557622909546,-0.31581732630729675
1733230314653659000,3.877658935546875,0.4331034719944,0.294437050819397,-0.3628539443016052
1733230314663660300,3.887660400390625,0.4960225820541382,0.1264491081237793,-0.3597996234893799
1733230314673647900,3.89764794921875,0.5907067060470581,-0.018325956538319588,-0.3090978264808655
1733230314683679500,3.907679443359375,0.6731734871864319,-0.12217304855585098,-0.2217440903186798
1733230314693636900,3.917636962890625,0.7134906053543091,-0.15515977144241333,-0.10690141469240189
1733230314703667500,3.92766748046875,0.7061602473258972,-0.10018189996480942,0.025656340643763542
1733230314713656600,3.937656494140625,0.6255260109901428,0.03726277872920036,0.20402899384498596
1733230314723657200,3.9476572265625,0.5583308339118958,0.1007927656173706,0.2926044464111328
1733230314733645600,3.9576455078125,0.4905247986316681,0.11056660860776901,0.35063666105270386
1733230314743676700,3.9676767578125,0.41233405470848083,0.06536258012056351,0.36224308609962463
1733230314753634300,3.97763427734375,0.3237585723400116,-0.02015855349600315,0.3280346393585205
1733230314763665400,3.98766552734375,0.23090706765651703,-0.13927727937698364,0.24678955972194672
1733230314773654000,3.997654052734375,0.13744467496871948,-0.26633724570274353,0.11789698898792267
1733230314783654400,4.007654296875,0.05253441259264946,-0.3891211748123169,-0.05742133408784866
1733230314793643000,4.01764306640625,-0.05742133408784866,-0.5491678714752197,-0.3897320330142975
1733230314803674000,4.027674072265625,-0.10995574295520782,-0.6004805564880371,-0.6108652353286743
1733230314813662700,4.037662841796875,-0.15515977144241333,-0.5791002511978149,-0.788016140460968
1733230314823662800,4.047662841796875,-0.19975294172763824,-0.5277875661849976,-0.9004153609275818
1733230314833651500,4.0576513671875,-0.23335053026676178,-0.4764748811721802,-0.9364564418792725
1733230314843683000,4.06768310546875,-0.24434609711170197,-0.4239404797554016,-0.8827002644538879
1733230314853640400,4.077640380859375,-0.2321287989616394,-0.37140607833862305,-0.7354817390441895
1733230314863672000,4.087672119140625,-0.17409659922122955,-0.3500257730484009,-0.36224308609962463
1733230314873660200,4.09766015625,-0.1111774742603302,-0.413555771112442,-0.0507018156349659
1733230314883661300,4.107661376953125,-0.031154127791523933,-0.5149593949317932,0.2675589919090271
1733230314893649200,4.117649169921875,0.05192354694008827,-0.5925393104553223,0.5571091175079346
1733230314903680500,4.127680419921875,0.11239920556545258,-0.6047565937042236,0.7874053120613098
1733230314913638400,4.137638427734375,0.12217304855585098,-0.5357288122177124,0.9272934198379517
1733230314923669200,4.147669189453125,0.07330382615327835,-0.40744712948799133,0.9676105380058289
1733230314933657900,4.157657958984375,-0.10018189996480942,-0.18325957655906677,0.8448266386985779
1733230314943657500,4.167657470703125,-0.2779437005519867,-0.08491026610136032,0.6548475623130798
1733230314953646800,4.177646728515625,-0.5174028873443604,-0.12522737681865692,0.37201693654060364
1733230314963677200,4.18767724609375,-0.8136724829673767,-0.2871066629886627,0.007941247895359993
1733230314973635800,4.1976357421875,-1.120937705039978,-0.4911356568336487,-0.3988949954509735
1733230314983666700,4.207666748046875,-1.340238332748413,-0.5357288122177124,-0.7367035150527954
1733230314993655300,4.2176552734375,-1.3726142644882202,-0.30604347586631775,-0.8820894360542297
1733230315003655400,4.227655517578125,-1.1484266519546509,0.09957103431224823,-0.7531968355178833
1733230315013644300,4.237644287109375,-0.36713001132011414,0.8552113175392151,-0.07513642311096191
1733230315023674600,4.247674560546875,0.2278527319431305,1.2473868131637573,0.5186246037483215
1733230315033633300,4.25763330078125,0.6701191663742065,1.3432927131652832,1.0574077367782593
1733230315043664400,4.267664306640625,0.921184778213501,1.1465940475463867,1.416596531867981
1733230315053653000,4.277653076171875,0.9669997096061707,0.7562511563301086,1.5387696027755737
1733230315063683300,4.287683349609375,0.8234463334083557,0.31031954288482666,1.4190399646759033
1733230315073641700,4.297641845703125,0.5632177591323853,-0.11239920556545258,1.1178834438323975
1733230315083672000,4.307672119140625,0.13561208546161652,-0.4251621961593628,0.4954117238521576
1733230315093661400,4.317661376953125,-0.08246681094169617,-0.3585779070854187,0.07208210229873657
1733230315103661300,4.327661376953125,-0.20402899384498596,-0.15393804013729095,-0.27977627515792847
1733230315113649400,4.3376494140625,-0.23945917189121246,0.12339477986097336,-0.5320636034011841
1733230315123680800,4.3476806640625,-0.2223549485206604,0.4080579876899719,-0.6646214127540588
1733230315133638700,4.357638671875,-0.16859880089759827,0.6603453159332275,-0.6792821288108826
1733230315143669800,4.367669677734375,-0.11056660860776901,0.8362745046615601,-0.6017022728919983
1733230315153658400,4.377658447265625,-0.07757988572120667,0.8875871896743774,-0.38606682419776917
1733230315163659000,4.387658935546875,-0.10751228034496307,0.7971791625022888,-0.2431243658065796
1733230315173647600,4.397647705078125,-0.1875356286764145,0.6352998614311218,-0.13500121235847473
1733230315183678500,4.407678466796875,-0.3127630054950714,0.4288274049758911,-0.07635815441608429
1733230315193636600,4.41763671875,-0.4538728892803192,0.20525072515010834,-0.06414084881544113
1733230315203667700,4.427667724609375,-0.5583308339118958,0.018936822190880775,-0.09285151958465576
1733230315213656600,4.437656494140625,-0.5778785347938538,-0.06475171446800232,-0.14844025671482086
1733230315223657700,4.44765771484375,-0.5283984541893005,-0.039706241339445114,-0.20525072515010834
1733230315233645600,4.4576455078125,-0.3927863538265228,0.04642575979232788,-0.27611109614372253
1733230315243677200,4.46767724609375,-0.2681698501110077,0.08979719132184982,-0.2993239760398865
1733230315253634300,4.47763427734375,-0.13561208546161652,0.12278391420841217,-0.2816088795661926
1733230315263666000,4.487666015625,-0.012217304669320583,0.13316862285137177,-0.21074850857257843
1733230315273654000,4.497654052734375,0.08185594528913498,0.14233160018920898,-0.08491026610136032
1733230315283655000,4.507655029296875,0.1411098688840866,0.1362229436635971,0.07024950534105301
1733230315293643000,4.51764306640625,0.17470745742321014,0.09040805697441101,0.22052235901355743
1733230315303674600,4.527674560546875,0.1918116807937622,-0.07635815441608429,0.39156460762023926
1733230315313662500,4.537662353515625,0.21930062770843506,-0.251676470041275,0.4508185386657715
1733230315323662800,4.547662841796875,0.27977627515792847,-0.43737950921058655,0.4709770977497101
1733230315333651500,4.5576513671875,0.3646865487098694,-0.5699372887611389,0.4502076804637909
1733230315343682600,4.5676826171875,0.4337143301963806,-0.6426302194595337,0.40072759985923767
1733230315353640700,4.577640625,0.4398229718208313,-0.6579018831253052,0.32986724376678467
1733230315363670800,4.5876708984375,0.36224308609962463,-0.5821545720100403,0.25534167885780334
1733230315373660200,4.59766015625,0.16065755486488342,-0.23335053026676178,0.19058994948863983
1733230315383661000,4.6076611328125,0.042760565876960754,0.07269296050071716,0.20402899384498596
1733230315393649200,4.617649169921875,-0.03726277872920036,0.24373523890972137,0.24129177629947662
1733230315403680500,4.627680419921875,-0.0403171069920063,0.20952677726745605,0.28955012559890747
1733230315413638100,4.63763818359375,0.06780604273080826,0.08185594528913498,0.3854559659957886
1733230315423668500,4.64766845703125,0.23273965716362,-0.042760565876960754,0.49785518646240234
1733230315433657600,4.65765771484375,0.37568211555480957,-0.16432274878025055,0.5479460954666138
1733230315443657700,4.66765771484375,0.4740314185619354,-0.22540926933288574,0.5088507533073425
1733230315453646600,4.677646484375,0.44165557622909546,-0.24923302233219147,0.22907446324825287
1733230315463677200,4.68767724609375,0.17348572611808777,-0.3597996234893799,-0.1875356286764145
1733230315473635600,4.697635498046875,-0.3341432809829712,-0.5522221922874451,-0.8051204085350037
1733230315483666200,4.707666259765625,-0.9779952764511108,-0.7250970602035522,-1.5167783498764038
1733230315493655300,4.7176552734375,-1.5839735269546509,-0.6969972252845764,-2.146580457687378
1733230315503655700,4.72765576171875,-1.968207836151123,-0.413555771112442,-2.5473079681396484
1733230315513644300,4.737644287109375,-1.9853121042251587,0.016493361443281174,-2.612670660018921
1733230315523674400,4.74767431640625,-1.2510520219802856,0.627358615398407,-2.0922133922576904
1733230315533633500,4.757633544921875,-0.5009095072746277,0.9492846131324768,-1.4581353664398193
1733230315543663600,4.76766357421875,0.16920967400074005,1.1636983156204224,-0.7324274182319641
1733230315553652700,4.77765283203125,0.608421802520752,1.2675453424453735,-0.04092797264456749
1733230315563683600,4.78768359375,0.8216137290000916,1.1734721660614014,0.5265658497810364
1733230315573641700,4.797641845703125,0.8319984674453735,0.9077457785606384,0.9272934198379517
1733230315583673300,4.80767333984375,0.6707300543785095,0.5338962078094482,1.129489779472351
1733230315593661400,4.817661376953125,0.42149701714515686,0.15454891324043274,1.10139000415802
1733230315603661300,4.827661376953125,-0.001832595793530345,-0.2632829248905182,0.912021815776825
1733230315613650400,4.837650390625,-0.2583959996700287,-0.33292156457901,0.637132465839386
1733230315623681800,4.847681884765625,-0.4447098970413208,-0.2681698501110077,0.32681289315223694
1733230315633639400,4.857639404296875,-0.5473352670669556,-0.12278391420841217,0.02932153269648552
1733230315643671000,4.867671142578125,-0.5662720799446106,0.08246681094169617,-0.20402899384498596
1733230315653659000,4.877658935546875,-0.5448917746543884,0.29077184200286865,-0.3640756905078888
1733230315663658800,4.88765869140625,-0.5180137157440186,0.45814892649650574,-0.46853363513946533
1733230315673647900,4.89764794921875,-0.46792277693748474,0.5119050741195679,-0.5467243790626526
1733230315683678200,4.90767822265625,-0.4282165467739105,0.4147774875164032,-0.5711590051651001
1733230315693636900,4.917636962890625,-0.4056145250797272,0.26633724570274353,-0.5760459303855896
1733230315703668500,4.92766845703125,-0.41233405470848083,0.11178833991289139,-0.5522221922874451
1733230315713656600,4.937656494140625,-0.4343251883983612,-0.00855211354792118,-0.494189977645874
1733230315723657700,4.94765771484375,-0.44837507605552673,-0.08368854224681854,-0.4141666293144226
1733230315733645600,4.9576455078125,-0.4453207552433014,-0.11545353382825851,-0.3078760802745819
1733230315743677200,4.96767724609375,-0.4098905920982361,-0.06902777403593063,-0.1160643994808197
1733230315753634300,4.97763427734375,-0.3781255781650543,0.02382374368607998,0.006108652334660292
1733230315763666200,4.987666259765625,-0.34636059403419495,0.11789698898792267,0.10445795953273773
1733230315773654000,4.997654052734375,-0.3084869384765625,0.1765400618314743,0.17104226350784302
1733230315783655200,5.0076552734375,-0.26939156651496887,0.2119702398777008,0.20891591906547546
1733230315793643000,5.01764306640625,-0.2535090744495392,0.2272418737411499,0.22907446324825287
1733230315803674600,5.027674560546875,-0.27977627515792847,0.2064724564552307,0.2376265823841095
1733230315813662700,5.037662841796875,-0.34086281061172485,0.14416420459747314,0.23457226157188416
1733230315823663600,5.04766357421875,-0.4489859640598297,0.024434609338641167,0.18814650177955627
1733230315833651500,5.0576513671875,-0.5210680365562439,-0.06475171446800232,0.1215621829032898
1733230315843681800,5.067681884765625,-0.5778785347938538,-0.13927727937698364,0.04337143152952194
1733230315853640400,5.077640380859375,-0.6004805564880371,-0.17043140530586243,-0.02626720629632473
1733230315863671000,5.087671142578125,-0.5937610268592834,-0.17104226350784302,-0.07757988572120667
1733230315873660200,5.09766015625,-0.5791002511978149,-0.18387043476104736,-0.11484266817569733
1733230315883661600,5.10766162109375,-0.5479460954666138,-0.2064724564552307,-0.1411098688840866
1733230315893649200,5.117649169921875,-0.48258355259895325,-0.27550023794174194,-0.1508837193250656
1733230315903680500,5.127680419921875,-0.4288274049758911,-0.35674530267715454,-0.11850785464048386
1733230315913638100,5.13763818359375,-0.36529740691185,-0.4001167416572571,-0.04642575979232788
1733230315923669800,5.147669677734375,-0.30543261766433716,-0.4196644127368927,0.05375614017248154
1733230315933657600,5.15765771484375,-0.2626720666885376,-0.4343251883983612,0.1716531366109848
1733230315943658800,5.16765869140625,-0.2565633952617645,-0.46670106053352356,0.2834414839744568
1733230315953646800,5.177646728515625,-0.2767219543457031,-0.5198463201522827,0.3634648323059082
1733230315963678500,5.187678466796875,-0.32986724376678467,-0.5650503635406494,0.3891211748123169
1733230315973635800,5.1976357421875,-0.37629300355911255,-0.5516113042831421,0.33658674359321594
1733230315983667200,5.207667236328125,-0.423329621553421,-0.49357911944389343,0.23335053026676178
1733230315993655300,5.2176552734375,-0.4660901725292206,-0.39584067463874817,0.09346238523721695
1733230316003656400,5.227656494140625,-0.4990769028663635,-0.294437050819397,-0.04459316283464432
1733230316013644300,5.237644287109375,-0.5027421116828918,-0.1814269721508026,-0.1411098688840866
1733230316023676000,5.247676025390625,-0.4856378734111786,-0.05009094998240471,-0.16249015927314758
1733230316033633300,5.25763330078125,-0.4599815309047699,0.06902777403593063,-0.11423180252313614
1733230316043665200,5.2676650390625,-0.3903428912162781,0.2119702398777008,0.05925392732024193
1733230316053653000,5.277653076171875,-0.33169981837272644,0.27122417092323303,0.1973094791173935
1733230316063684600,5.2876845703125,-0.28038713335990906,0.28527405858039856,0.3280346393585205
1733230316073641700,5.297641845703125,-0.24129177629947662,0.2431243658065796,0.42149701714515686
1733230316083673300,5.30767333984375,-0.21319197118282318,0.1508837193250656,0.46853363513946533
1733230316093661400,5.317661376953125,-0.20525072515010834,0.016493361443281174,0.4489859640598297
1733230316103662300,5.327662353515625,-0.2168571650981903,-0.15943582355976105,0.35674530267715454
1733230316113649400,5.3376494140625,-0.23029619455337524,-0.3836233615875244,0.11972958594560623
1733230316123681500,5.347681640625,-0.22540926933288574,-0.4343251883983612,-0.05253441259264946
1733230316133638700,5.357638671875,-0.23457226157188416,-0.42210787534713745,-0.21563543379306793
1733230316143670300,5.367670166015625,-0.23335053026676178,-0.3927863538265228,-0.3549126982688904
1733230316153658400,5.377658447265625,-0.21441370248794556,-0.3445279896259308,-0.4453207552433014
1733230316163659500,5.387659423828125,-0.18081611394882202,-0.2480112910270691,-0.45875978469848633
1733230316173647400,5.3976474609375,-0.14416420459747314,-0.12461651116609573,-0.38117989897727966
1733230316183679000,5.407678955078125,-0.07208210229873657,0.04153883829712868,-0.12217304855585098
1733230316193636600,5.41763671875,-0.05314527451992035,0.1111774742603302,0.1007927656173706
1733230316203668000,5.42766796875,-0.06902777403593063,0.10445795953273773,0.304210901260376
1733230316213656600,5.437656494140625,-0.10445795953273773,0.02871066704392433,0.4440990388393402
1733230316223682000,5.44768212890625,-0.13866640627384186,-0.07635815441608429,0.5057964324951172
1733230316233645600,5.4576455078125,-0.1716531366109848,-0.152105450630188,0.49785518646240234
1733230316243677200,5.46767724609375,-0.19792033731937408,-0.19547687470912933,0.4239404797554016
1733230316253634300,5.47763427734375,-0.21135938167572021,-0.21502456068992615,0.303600013256073
1733230316263666000,5.487666015625,-0.18325957655906677,-0.1514945775270462,0.06902777403593063
1733230316273654000,5.497654052734375,-0.12278391420841217,-0.07147123664617538,-0.1014036312699318
1733230316283655200,5.5076552734375,-0.04886921867728233,0.0012217304902151227,-0.26450464129447937
1733230316293643000,5.51764306640625,0.0024434609804302454,0.04703662544488907,-0.403781920671463
1733230316303674400,5.52767431640625,0.022602014243602753,0.06780604273080826,-0.50335294008255
1733230316313662700,5.537662841796875,0.01038470957428217,0.06963863968849182,-0.5546656250953674
1733230316323663600,5.54766357421875,-0.021380282938480377,0.048258353024721146,-0.5693264007568359
1733230316333651500,5.5576513671875,-0.07757988572120667,-0.02687807008624077,-0.5412266254425049
1733230316343683000,5.56768310546875,-0.11056660860776901,-0.05864306539297104,-0.4899139404296875
1733230316353640400,5.577640380859375,-0.13316862285137177,-0.06352998316287994,-0.41661009192466736
1733230316363672000,5.587672119140625,-0.13561208546161652,-0.04153883829712868,-0.32009339332580566
1733230316373660000,5.597659912109375,-0.11056660860776901,-0.00733038317412138,-0.20525072515010834
1733230316383661000,5.6076611328125,-0.05314527451992035,0.04153883829712868,-0.07757988572120667
1733230316393649200,5.617649169921875,0.036651913076639175,0.09468411654233932,0.05497787147760391
1733230316403680500,5.627680419921875,0.16310101747512817,0.13988813757896423,0.21441370248794556
1733230316413638100,5.63763818359375,0.20891591906547546,0.13561208546161652,0.26939156651496887
1733230316423669800,5.647669677734375,0.23029619455337524,0.11789698898792267,0.28588494658470154
1733230316433657900,5.657657958984375,0.23335053026676178,0.08429940044879913,0.2742784917354584
1733230316443658800,5.66765869140625,0.22663100063800812,0.07513642311096191,0.25106561183929443
1733230316453646600,5.677646484375,0.21930062770843506,0.09712757170200348,0.21563543379306793
1733230316463678200,5.68767822265625,0.20402899384498596,0.1111774742603302,0.16859880089759827
1733230316473635600,5.697635498046875,0.18509216606616974,0.1062905490398407,0.12461651116609573
1733230316483667000,5.7076669921875,0.1661553531885147,0.1466076523065567,0.08979719132184982
1733230316493655300,5.7176552734375,0.1563815027475357,0.17592918872833252,0.08735372871160507
1733230316503656200,5.72765625,0.15515977144241333,0.18631389737129211,0.10567969083786011
1733230316513644300,5.737644287109375,0.1563815027475357,0.17837265133857727,0.14355333149433136
1733230316523675600,5.747675537109375,0.12889257073402405,0.35063666105270386,0.3396410644054413
1733230316533633300,5.75763330078125,0.02871066704392433,0.24129177629947662,0.5791002511978149
1733230316543665000,5.767664794921875,-0.07269296050071716,-0.08185594528913498,0.6939429044723511
1733230316553652700,5.77765283203125,-0.09773843735456467,-0.3927863538265228,0.5393940210342407
1733230316563684400,5.787684326171875,-0.1472185254096985,-0.3933972120285034,0.29504790902137756
1733230316573641700,5.797641845703125,-0.21502456068992615,-0.1869247704744339,0.0006108652451075613
1733230316583673300,5.80767333984375,-0.2742784917354584,0.09040805697441101,-0.304210901260376
1733230316593661400,5.817661376953125,-0.2871066629886627,0.30543261766433716,-0.5589417219161987
1733230316603662300,5.827662353515625,-0.23640485107898712,0.3903428912162781,-0.6982190012931824
1733230316613650400,5.837650390625,-0.13255776464939117,0.33047810196876526,-0.7006624341011047
1733230316623681800,5.847681884765625,-0.01771509274840355,0.051312681287527084,-0.4300491213798523
1733230316633639400,5.857639404296875,-0.00855211354792118,-0.21868975460529327,-0.18325957655906677
1733230316643671000,5.867671142578125,-0.010995574295520782,-0.40194934606552124,0.04703662544488907
