time,seconds_elapsed,z,y,x
1732873982072325000,0.2023251953125,-0.7575397491455078,-0.19205427169799805,-0.014205783605575562
1732873982082567000,0.21256689453125,-0.9207725524902344,0.0560300350189209,-0.3159123659133911
1732873982092576500,0.222576416015625,-0.7866010665893555,0.04520273208618164,-0.4829149842262268
1732873982102586400,0.23258642578125,-0.6966333389282227,-0.1145937442779541,-0.4296940267086029
1732873982112565800,0.242565673828125,-0.3853120803833008,-0.2530629634857178,-0.31989049911499023
1732873982122575400,0.252575439453125,-0.168426513671875,-0.41653871536254883,-0.23748809099197388
1732873982132585200,0.262585205078125,0.08046817779541016,-0.44529402256011963,-0.14761924743652344
1732873982142564400,0.272564453125,0.19244956970214844,-0.44387590885162354,-0.043462708592414856
1732873982152574200,0.28257421875,0.2484760284423828,-0.4154057502746582,0.039245158433914185
1732873982162584000,0.292583984375,0.17189407348632812,-0.41284728050231934,0.1327843815088272
1732873982172563200,0.302563232421875,0.14928531646728516,-0.40375030040740967,0.1931801736354828
1732873982182573000,0.312572998046875,0.24114131927490234,-0.301125168800354,0.12765388190746307
1732873982192582700,0.322582763671875,0.26133251190185547,-0.11635339260101318,-0.06406684219837189
1732873982202562000,0.33256201171875,0.32683849334716797,-0.0012913942337036133,-0.292488694190979
1732873982212571600,0.342571533203125,0.4828529357910156,0.00953662395477295,-0.27397647500038147
1732873982222581500,0.35258154296875,0.6305446624755859,-0.0543820858001709,-0.14414763450622559
1732873982232561000,0.362560791015625,0.6711015701293945,-0.09412062168121338,-0.03955832123756409
1732873982242570500,0.372570556640625,0.6214132308959961,-0.08306491374969482,0.00663912296295166
1732873982252580400,0.382580322265625,0.4388408660888672,-0.07852423191070557,0.03640967607498169
1732873982262559700,0.392559814453125,0.27080726623535156,-0.035620927810668945,0.05829821527004242
1732873982272569600,0.402569580078125,0.19237804412841797,-0.019206523895263672,0.03444112837314606
1732873982282579200,0.4125791015625,0.15821266174316406,0.016589879989624023,0.054981231689453125
1732873982292558300,0.422558349609375,0.14226818084716797,-0.020995378494262695,0.041999757289886475
1732873982302568000,0.43256787109375,0.11598396301269531,0.029909372329711914,0.0725928395986557
1732873982312577800,0.442577880859375,-0.030538558959960938,0.0656508207321167,0.06277818977832794
1732873982322587600,0.452587646484375,-0.1898355484008789,0.08518350124359131,0.08992105722427368
1732873982332566800,0.46256689453125,-0.2753925323486328,0.05000483989715576,0.1064765453338623
1732873982342576600,0.47257666015625,-0.26453113555908203,0.009323596954345703,0.06653431057929993
1732873982352586500,0.48258642578125,-0.16411209106445312,0.03177320957183838,0.044068463146686554
1732873982362565600,0.492565673828125,-0.05099964141845703,0.01898980140686035,0.04350859671831131
1732873982372575500,0.502575439453125,-0.026561737060546875,0.01152944564819336,0.05555558204650879
1732873982382585300,0.51258544921875,-0.04528999328613281,-0.00989079475402832,0.07980221509933472
1732873982392564500,0.522564453125,-0.04004192352294922,-0.007604002952575684,0.1082453802227974
1732873982402574000,0.532573974609375,-0.037242889404296875,-0.01216578483581543,0.08685034513473511
1732873982412584000,0.542583984375,-0.000946044921875,-0.014207005500793457,0.012889586389064789
1732873982422563000,0.55256298828125,0.06637954711914062,-0.02293097972869873,-0.02058689296245575
1732873982432573000,0.562572998046875,0.09540939331054688,-0.03637969493865967,-0.03554747998714447
1732873982442582800,0.572582763671875,0.11730575561523438,-0.04761338233947754,0.012744694948196411
1732873982452562200,0.582562255859375,0.05071544647216797,-0.042591214179992676,0.011055871844291687
1732873982462571800,0.59257177734375,0.0010042190551757812,-0.02381598949432373,0.04544976353645325
1732873982472581600,0.60258154296875,-0.02234172821044922,-0.05784463882446289,0.12557858228683472
1732873982482560800,0.612560791015625,-0.024216651916503906,-0.08191823959350586,0.18127094209194183
1732873982492570400,0.6225703125,-0.004689216613769531,-0.02868187427520752,0.18798187375068665
1732873982502580200,0.632580322265625,0.043361663818359375,-0.02227497100830078,0.201279416680336
1732873982512559600,0.6425595703125,0.10570430755615234,-0.003503561019897461,0.15234796702861786
1732873982522569200,0.6525693359375,0.1632852554321289,0.00794684886932373,0.1394207775592804
1732873982532579000,0.6625791015625,0.1683807373046875,0.05201220512390137,0.0724153146147728
1732873982542558500,0.672558349609375,0.08990669250488281,0.09739100933074951,0.06895239651203156
1732873982552568000,0.682568115234375,-0.009855270385742188,0.08165967464447021,0.07394146919250488
1732873982562577700,0.69257763671875,-0.05194664001464844,0.09607291221618652,0.10643132030963898
1732873982572587500,0.70258740234375,-0.08665752410888672,0.1095503568649292,0.11569562554359436
1732873982582567000,0.71256689453125,-0.11875438690185547,0.09313046932220459,0.15310169756412506
1732873982592576500,0.722576416015625,-0.14368724822998047,0.069510817527771,0.13618451356887817
1732873982602586400,0.73258642578125,-0.16885662078857422,0.03734242916107178,0.1122734397649765
1732873982612565800,0.742565673828125,-0.13936805725097656,0.035866498947143555,0.08899543434381485
1732873982622575400,0.752575439453125,-0.04094409942626953,0.020000815391540527,0.1354598104953766
1732873982632585200,0.762585205078125,0.03308677673339844,0.006296992301940918,0.14672675728797913
1732873982642564600,0.772564697265625,0.0852956771850586,-0.0036351680755615234,0.10713629424571991
1732873982652574200,0.78257421875,0.1755819320678711,-0.02432107925415039,0.10597348213195801
1732873982662584000,0.792583984375,0.27533435821533203,0.005922794342041016,0.09345277398824692
1732873982672563200,0.802563232421875,0.23394107818603516,0.04049944877624512,0.036771684885025024
1732873982682573000,0.812572998046875,0.11159324645996094,0.10168290138244629,0.0349428653717041
1732873982692582700,0.822582763671875,-0.11786079406738281,0.10701906681060791,-0.030097365379333496
1732873982702561800,0.832561767578125,-0.38283729553222656,0.10789942741394043,-0.20081216096878052
1732873982712571600,0.842571533203125,-0.5494775772094727,0.043221235275268555,-0.3190993368625641
1732873982722581500,0.85258154296875,-0.5629425048828125,-0.02338862419128418,-0.5051029324531555
1732873982732560600,0.862560546875,-0.5167074203491211,-0.08639204502105713,-0.6944065690040588
1732873982742570500,0.872570556640625,-0.49681758880615234,-0.13431668281555176,-0.8083992004394531
1732873982752580400,0.882580322265625,-0.47196388244628906,-0.14412760734558105,-0.953036904335022
1732873982762559700,0.892559814453125,-0.5042715072631836,-0.1333063840866089,-1.0798853635787964
1732873982772569600,0.902569580078125,-0.49556446075439453,-0.11864686012268066,-1.1536258459091187
1732873982782579200,0.9125791015625,-0.580012321472168,-0.10717332363128662,-0.9280961751937866
1732873982792558300,0.922558349609375,-0.7504549026489258,-0.03932154178619385,-0.676268458366394
1732873982802568000,0.93256787109375,-0.8563899993896484,0.07631194591522217,-0.38745495676994324
1732873982812577800,0.942577880859375,-0.7950477600097656,0.2429262399673462,0.008067965507507324
1732873982822587600,0.952587646484375,-0.7436885833740234,0.5277867317199707,0.25576308369636536
1732873982832566800,0.96256689453125,-0.6638622283935547,0.7172670364379883,0.4455253481864929
1732873982842576600,0.97257666015625,-0.5360965728759766,0.9082931280136108,0.6080094575881958
1732873982852586500,0.98258642578125,-0.3289318084716797,0.9631361961364746,0.8146910667419434
1732873982862565600,0.992565673828125,-0.05047035217285156,0.9322609901428223,1.1299684047698975
1732873982872575500,1.002575439453125,0.2746400833129883,0.7594484090805054,1.4462825059890747
1732873982882585300,1.01258544921875,0.8667764663696289,0.40280306339263916,1.9050906896591187
1732873982892564500,1.022564453125,1.4477300643920898,0.039990782737731934,2.1721174716949463
1732873982902574000,1.032573974609375,1.9939861297607422,-0.24327123165130615,2.3635499477386475
1732873982912584000,1.042583984375,2.312501907348633,-0.36393892765045166,2.5181689262390137
1732873982922563000,1.05256298828125,2.3108110427856445,-0.36745119094848633,2.5460801124572754
1732873982932573000,1.062572998046875,1.9633255004882812,-0.25336313247680664,2.5602009296417236
1732873982942582800,1.072582763671875,1.3819866180419922,-0.0848994255065918,2.657210111618042
1732873982952562200,1.082562255859375,0.46569347381591797,-0.010205268859863281,2.8414218425750732
1732873982962571800,1.09257177734375,-0.3905181884765625,0.07138693332672119,3.0169410705566406
1732873982972581600,1.10258154296875,-1.1919822692871094,0.23987507820129395,3.1038880348205566
1732873982982560800,1.112560791015625,-1.5854167938232422,0.32666015625,3.161323070526123
1732873982992570400,1.1225703125,-1.9334430694580078,0.16059696674346924,3.2556629180908203
1732873983002580200,1.132580322265625,-2.074366569519043,-0.11868369579315186,3.255345344543457
1732873983012559600,1.1425595703125,-1.6828808784484863,-0.5828448534011841,3.273930311203003
1732873983022569200,1.1525693359375,-1.034637451171875,-1.1688497066497803,3.1660499572753906
1732873983032579000,1.1625791015625,0.13527393341064453,-1.8163938522338867,2.8030364513397217
1732873983042558500,1.172558349609375,1.4319210052490234,-2.431330680847168,2.141231060028076
1732873983052568000,1.182568115234375,2.416015625,-2.7970094680786133,1.6690053939819336
1732873983062577700,1.19257763671875,3.046200752258301,-2.8334994316101074,0.9435650110244751
1732873983072587500,1.20258740234375,2.9408960342407227,-2.527249574661255,0.3207537531852722
1732873983082567000,1.21256689453125,2.342959403991699,-1.8723723888397217,-0.004758298397064209
1732873983092576500,1.222576416015625,1.5110044479370117,-1.4110658168792725,-0.010303333401679993
1732873983102586400,1.23258642578125,0.5172338485717773,-1.0317076444625854,0.20723627507686615
1732873983112565800,1.242565673828125,-0.39244842529296875,-0.7899225950241089,0.6205623149871826
1732873983122575400,1.252575439453125,-1.0972166061401367,-0.6477521657943726,1.0426926612854004
1732873983132585200,1.262585205078125,-1.3879976272583008,-0.6188461780548096,1.295607089996338
1732873983142564400,1.272564453125,-1.3672103881835938,-0.563217043876648,1.3337452411651611
1732873983152574200,1.28257421875,-0.9425868988037109,-0.5930287837982178,1.3032305240631104
1732873983162584000,1.292583984375,-0.27530479431152344,-0.648638129234314,1.3443373441696167
1732873983172563200,1.302563232421875,0.5648794174194336,-0.7705421447753906,1.470124363899231
1732873983182573000,1.312572998046875,1.3095645904541016,-0.847710132598877,1.5656260251998901
1732873983192582700,1.322582763671875,1.8694429397583008,-0.9670071005821228,1.71126389503479
1732873983202561800,1.332561767578125,1.9684553146362305,-1.1442372798919678,1.8394438028335571
1732873983212571600,1.342571533203125,1.7507829666137695,-1.287149429321289,2.015397071838379
1732873983222581500,1.35258154296875,1.3682060241699219,-1.4103682041168213,2.0384562015533447
1732873983232561000,1.362560791015625,0.8704147338867188,-1.499145746231079,1.9643205404281616
1732873983242570500,1.372570556640625,0.4655904769897461,-1.4809504747390747,1.7431552410125732
1732873983252164000,1.3821640625,0.10684776306152344,-1.503858208656311,1.5406986474990845
1732873983262143500,1.3921435546875,-0.3168506622314453,-1.508047103881836,1.2682945728302002
1732873983272153300,1.4021533203125,-0.511042594909668,-1.4910587072372437,1.0757458209991455
1732873983282163000,1.412162841796875,-0.6941585540771484,-1.4667506217956543,0.8116902709007263
1732873983292142000,1.42214208984375,-0.6293973922729492,-1.4962869882583618,0.6154354214668274
1732873983302151700,1.432151611328125,-0.3907337188720703,-1.5426784753799438,0.5261794924736023
1732873983312161500,1.44216162109375,-0.12438774108886719,-0.8892790079116821,-0.03781941533088684
1732873983322171400,1.45217138671875,0.29192447662353516,-0.4834824502468109,-0.26816996932029724
1732873983332150500,1.462150634765625,0.511993408203125,-0.4328847825527191,-0.3133067488670349
1732873983342160400,1.472160400390625,0.5622577667236328,-0.3580954670906067,-0.40515685081481934
1732873983352170200,1.482170166015625,0.4763965606689453,-0.29436439275741577,-0.5030922889709473
1732873983362149400,1.4921494140625,0.25684165954589844,-0.1823691725730896,-0.582909107208252
1732873983372159200,1.5021591796875,-0.04323768615722656,0.11773651838302612,-0.6300336122512817
1732873983382169000,1.512169189453125,-0.2714862823486328,0.2358723282814026,-0.6487178206443787
1732873983392148200,1.522148193359375,-0.40778636932373047,0.22132974863052368,-0.6900672912597656
1732873983402157800,1.53215771484375,-0.38620567321777344,0.28318923711776733,-0.728958249092102
1732873983412167700,1.542167724609375,-0.47573280334472656,0.2786882519721985,-0.8150972127914429
1732873983422146800,1.552146728515625,-0.5542726516723633,0.2382170557975769,-0.9548318386077881
1732873983432156700,1.56215673828125,-0.6184310913085938,0.2584088444709778,-1.14873206615448
1732873983442166500,1.57216650390625,-0.6516571044921875,0.23290616273880005,-1.1381871700286865
1732873983452146000,1.58214599609375,-0.7608747482299805,0.18718469142913818,-0.9824536442756653
1732873983462155500,1.592155517578125,-0.8929271697998047,0.15378111600875854,-0.9401208162307739
1732873983472165000,1.6021650390625,-0.8990077972412109,-0.04712957143783569,-0.6599042415618896
1732873983482144500,1.61214453125,-0.4614410400390625,0.14397978782653809,-0.649118185043335
1732873983492154000,1.622154052734375,-0.26340770721435547,0.13614404201507568,-0.6513051986694336
1732873983502164000,1.6321640625,-0.18042850494384766,0.27646344900131226,-0.5544403791427612
1732873983512143400,1.642143310546875,-0.1310720443725586,0.2923344373703003,-0.5635950565338135
1732873983522153000,1.652153076171875,-0.02415752410888672,0.3817631006240845,-0.6996086835861206
1732873983532162800,1.662162841796875,0.1217947006225586,0.3934311270713806,-0.6694114804267883
1732873983542142200,1.67214208984375,0.47286128997802734,0.5982896089553833,-0.6571471691131592
1732873983552151800,1.68215185546875,0.5062141418457031,0.49787604808807373,-0.659347414970398
1732873983562161700,1.69216162109375,0.42546749114990234,0.6168372631072998,-0.7025461196899414
1732873983572171300,1.702171142578125,0.2854576110839844,0.6509894132614136,-0.8132895827293396
1732873983582150700,1.712150634765625,0.14609146118164062,0.7191722393035889,-0.8046041131019592
1732873983592160500,1.722160400390625,0.10763168334960938,0.7219516038894653,-0.7863878011703491
1732873983602170000,1.732170166015625,0.13390350341796875,0.7722105979919434,-0.799805760383606
1732873983612149200,1.742149169921875,0.14101409912109375,0.8858418464660645,-0.9304797053337097
1732873983622159000,1.7521591796875,-0.18697166442871094,1.045564889907837,-0.892680823802948
1732873983632169000,1.7621689453125,-0.7324695587158203,0.9703212976455688,-0.733791708946228
1732873983642148400,1.7721484375,-0.5832929611206055,1.1034979820251465,-1.0800437927246094
1732873983652158000,1.782157958984375,-0.0032815933227539062,1.2761712074279785,-1.5703927278518677
1732873983662167800,1.792167724609375,0.3468790054321289,1.361933708190918,-1.726870059967041
1732873983672147000,1.80214697265625,0.44342517852783203,1.0772452354431152,-1.453631043434143
1732873983682156800,1.81215673828125,0.2485332489013672,1.121341347694397,-1.4667268991470337
1732873983692166400,1.82216650390625,-0.06227874755859375,1.2772685289382935,-1.5229953527450562
1732873983702145800,1.832145751953125,-0.2977018356323242,1.3736199140548706,-1.4846506118774414
1732873983712155400,1.8421552734375,-0.41503238677978516,1.4195088148117065,-1.3246663808822632
1732873983722165200,1.852165283203125,-0.522552490234375,1.433712363243103,-1.2160019874572754
1732873983732144400,1.862144287109375,-0.5439929962158203,1.4560960531234741,-1.1098344326019287
1732873983742154200,1.872154296875,-0.4771089553833008,1.4475966691970825,-1.1615142822265625
1732873983752164000,1.8821640625,-0.3794889450073242,1.4555312395095825,-1.2794346809387207
1732873983762143500,1.8921435546875,-0.2701549530029297,1.5393842458724976,-1.376610517501831
1732873983772153300,1.9021533203125,-0.2160177230834961,1.5740687847137451,-1.3950251340866089
1732873983782163000,1.912162841796875,-0.0827932357788086,1.585242748260498,-1.3431522846221924
1732873983792142000,1.92214208984375,0.01936054229736328,1.527522325515747,-1.2067853212356567
1732873983802151700,1.932151611328125,0.08791732788085938,1.4269609451293945,-0.9321190118789673
1732873983812161500,1.94216162109375,0.21128273010253906,1.2742352485656738,-0.6280496120452881
1732873983822171400,1.95217138671875,0.34621143341064453,1.1727725267410278,-0.3168262243270874
1732873983832150500,1.962150634765625,0.5118837356567383,1.0815279483795166,0.05897867679595947
1732873983842160400,1.972160400390625,0.5217103958129883,1.0420756340026855,0.33900904655456543
1732873983852170200,1.982170166015625,0.4213523864746094,1.0627632141113281,0.5308189392089844
1732873983862149400,1.9921494140625,0.24707508087158203,1.1514427661895752,0.695594310760498
1732873983872159200,2.0021591796875,-0.115814208984375,1.2062619924545288,0.6664135456085205
1732873983882169000,2.012169189453125,-0.31070995330810547,1.2966816425323486,1.1341716051101685
1732873983892148200,2.022148193359375,-0.4686098098754883,0.7469544410705566,1.2063369750976562
1732873983902157800,2.03215771484375,-0.6813297271728516,0.3770846128463745,1.2220876216888428
1732873983912167700,2.042167724609375,-0.7809629440307617,0.25281429290771484,1.162824273109436
1732873983922146800,2.052146728515625,-0.8165054321289062,0.18552732467651367,0.9959065914154053
1732873983932156700,2.06215673828125,-0.6814785003662109,0.15100502967834473,0.8023073673248291
1732873983942166500,2.07216650390625,-0.4177236557006836,0.11734843254089355,0.46834874153137207
1732873983952146000,2.08214599609375,-0.2316761016845703,0.003246784210205078,0.17400991916656494
1732873983962155500,2.092155517578125,0.04193305969238281,-0.21159625053405762,0.008877187967300415
1732873983972165400,2.102165283203125,0.3184366226196289,-0.5657222270965576,0.06977197527885437
1732873983982144500,2.11214453125,0.7382497787475586,-0.9449981451034546,0.2793723940849304
1732873983992154000,2.122154052734375,1.1455278396606445,-1.2158756256103516,0.24398931860923767
1732873984002164000,2.1321640625,1.5851001739501953,-1.4142742156982422,0.21158230304718018
1732873984012143400,2.142143310546875,1.643864631652832,-1.327085256576538,0.06864902377128601
1732873984022153000,2.152153076171875,1.5700368881225586,-0.6549687385559082,-0.2561410665512085
1732873984032162800,2.162162841796875,0.6127996444702148,-0.445841908454895,-0.4652116000652313
1732873984042142200,2.17214208984375,0.015241622924804688,0.03146207332611084,-0.5551351308822632
1732873984052151800,2.18215185546875,-1.0502519607543945,0.5176548957824707,-0.6358233690261841
1732873984062161700,2.19216162109375,-2.007718086242676,0.7765421867370605,-0.3759424388408661
1732873984072171300,2.202171142578125,-2.914027690887451,0.8356077671051025,0.10593326389789581
1732873984082150700,2.212150634765625,-3.1802778244018555,0.7584531307220459,0.5869978070259094
1732873984092160500,2.222160400390625,-2.8159561157226562,0.6191294193267822,0.974530816078186
1732873984102170000,2.232170166015625,-2.0118494033813477,0.3262925148010254,1.3997471332550049
1732873984112149200,2.242149169921875,-0.9263896942138672,-0.14156723022460938,1.090378761291504
1732873984122159000,2.2521591796875,0.06845951080322266,-0.23939406871795654,0.43650150299072266
1732873984132169000,2.2621689453125,1.0518741607666016,-0.4992479085922241,0.10634169727563858
1732873984142148000,2.272148193359375,1.7817659378051758,-0.36049163341522217,-0.36910632252693176
1732873984152158000,2.282157958984375,1.9701642990112305,-0.19122254848480225,-0.8636147975921631
1732873984162167800,2.292167724609375,1.2046928405761719,0.004479765892028809,-1.1304305791854858
1732873984172147000,2.30214697265625,0.5033760070800781,0.31481850147247314,-1.0924164056777954
1732873984182156800,2.31215673828125,-0.18713855743408203,0.5600447654724121,-0.834172248840332
1732873984192166400,2.32216650390625,-0.782719612121582,0.7857909202575684,-0.5782333016395569
1732873984202145800,2.332145751953125,-1.5855035781860352,0.8668023347854614,-0.3138282895088196
1732873984212155400,2.3421552734375,-2.15170955657959,1.0580090284347534,-0.3943840563297272
1732873984222165200,2.352165283203125,-2.415774345397949,1.0894967317581177,-0.7064958810806274
1732873984232144600,2.36214453125,-2.1340270042419434,1.179997444152832,-1.0492695569992065
1732873984242154200,2.372154296875,-1.5220155715942383,1.2207468748092651,-1.5351916551589966
1732873984252164000,2.3821640625,-0.8372249603271484,1.2544710636138916,-1.90736985206604
1732873984262143500,2.3921435546875,-0.24405479431152344,1.1694908142089844,-2.0647225379943848
1732873984272153000,2.402153076171875,0.024776458740234375,1.0496455430984497,-2.023404121398926
1732873984282163000,2.412162841796875,-0.1675739288330078,0.7720651626586914,-1.8624207973480225
1732873984292142000,2.42214208984375,-0.24763011932373047,0.632627010345459,-1.5024144649505615
1732873984302151700,2.432151611328125,-0.3644695281982422,0.46986544132232666,-1.2801414728164673
1732873984312161500,2.44216162109375,-0.3319988250732422,0.34245848655700684,-1.0303075313568115
1732873984322171400,2.45217138671875,-0.29915714263916016,0.27951574325561523,-0.8750604391098022
1732873984332150500,2.462150634765625,-0.16558837890625,0.22937285900115967,-0.750325083732605
1732873984342160400,2.472160400390625,0.0901021957397461,0.3319077491760254,-0.7080687284469604
1732873984352170200,2.482170166015625,0.3912620544433594,0.5519418716430664,-0.6094167232513428
1732873984362149400,2.4921494140625,0.5415735244750977,0.8388617038726807,-0.565406322479248
1732873984372159200,2.5021591796875,0.44767093658447266,0.8733170032501221,-0.06562638282775879
1732873984382169000,2.512169189453125,0.21418094635009766,0.8422080278396606,0.3171123266220093
1732873984392148200,2.522148193359375,0.19199180603027344,0.8063175678253174,0.46779096126556396
1732873984402157800,2.53215771484375,0.2682981491088867,0.7338852882385254,0.430612176656723
1732873984412167700,2.542167724609375,0.7336225509643555,0.5056846141815186,0.16146421432495117
1732873984422146800,2.552146728515625,1.717879295349121,0.22602009773254395,-0.3077511191368103
1732873984432156700,2.56215673828125,2.90317440032959,0.08250713348388672,-0.8911356925964355
1732873984442166500,2.57216650390625,4.275815963745117,-0.20006179809570312,-1.302358627319336
1732873984452146000,2.58214599609375,5.278964996337891,-0.29013848304748535,-1.1650911569595337
1732873984462155500,2.592155517578125,5.615269660949707,-0.41618597507476807,-1.0207912921905518
1732873984472165400,2.602165283203125,4.781275749206543,-0.6432688236236572,-0.5728022456169128
1732873984482144500,2.61214453125,3.7288894653320312,-0.4531841278076172,-0.3537883758544922
1732873984492154000,2.622154052734375,2.378345489501953,-0.19267749786376953,0.16043764352798462
1732873984502164000,2.6321640625,1.5933446884155273,-0.18696141242980957,0.8136939406394958
1732873984512143400,2.642143310546875,0.8805418014526367,-0.14313387870788574,1.333055019378662
1732873984522153000,2.652153076171875,0.5615262985229492,-0.1166987419128418,1.5382544994354248
1732873984532162800,2.662162841796875,0.30422210693359375,-0.023370981216430664,1.6821556091308594
1732873984542142200,2.67214208984375,0.1257648468017578,-0.027532577514648438,1.7158548831939697
1732873984552151800,2.68215185546875,-0.05423545837402344,-0.24414730072021484,1.4255459308624268
1732873984562161700,2.69216162109375,-0.16337108612060547,-0.7568051815032959,1.2058179378509521
1732873984572171300,2.702171142578125,0.13106441497802734,-1.5382661819458008,1.1993643045425415
1732873984582150700,2.712150634765625,1.0991601943969727,-2.4326834678649902,0.8539067506790161
1732873984592160500,2.722160400390625,2.4042396545410156,-2.9644458293914795,0.49097850918769836
1732873984602170000,2.732170166015625,3.915332794189453,-3.296349287033081,-0.1449597179889679
1732873984612149500,2.7421494140625,4.9181718826293945,-3.4775893688201904,-0.5644996166229248
1732873984622159000,2.7521591796875,5.238158226013184,-3.5986833572387695,-0.7157001495361328
1732873984632169000,2.7621689453125,4.613088607788086,-3.532233238220215,-0.41858547925949097
1732873984642148000,2.772148193359375,2.8783349990844727,-3.1229491233825684,0.5405723452568054
1732873984652158000,2.782157958984375,0.7489547729492188,-2.604280948638916,1.38672935962677
1732873984662167800,2.792167724609375,-1.4257383346557617,-2.1767690181732178,1.8590619564056396
1732873984672147200,2.802147216796875,-2.8476366996765137,-1.9183050394058228,2.163479804992676
1732873984682156800,2.81215673828125,-3.8180599212646484,-1.772140622138977,2.189476251602173
1732873984692166400,2.82216650390625,-3.942768096923828,-1.8975589275360107,2.0800747871398926
1732873984702145800,2.832145751953125,-3.4075303077697754,-2.139956474304199,1.7534879446029663
1732873984712155400,2.8421552734375,-2.194573402404785,-2.4105618000030518,1.3250641822814941
1732873984722165200,2.852165283203125,-1.1567249298095703,-2.578571319580078,1.0459359884262085
1732873984732144400,2.862144287109375,-0.17369365692138672,-2.667494058609009,0.7973275184631348
1732873984742154200,2.872154296875,0.2404308319091797,-2.661189079284668,0.6639701128005981
1732873984752164000,2.8821640625,0.11919403076171875,-2.554004192352295,0.5859342813491821
1732873984762143500,2.8921435546875,-0.4071083068847656,-2.374699354171753,0.6579111814498901
1732873984772153300,2.9021533203125,-1.2215166091918945,-2.1686902046203613,0.8264482021331787
1732873984782163000,2.912162841796875,-1.8824248313903809,-2.0141642093658447,0.9893858432769775
1732873984792141800,2.922141845703125,-2.3905277252197266,-1.7606985569000244,1.037691354751587
1732873984802151700,2.932151611328125,-2.575057029724121,-1.467368245124817,0.9341154098510742
1732873984812161500,2.94216162109375,-2.5780386924743652,-1.3011438846588135,0.7836695909500122
1732873984822171400,2.95217138671875,-2.239119052886963,-1.1274124383926392,0.556260883808136
1732873984832150500,2.962150634765625,-1.8593568801879883,-0.9836041927337646,0.40174567699432373
1732873984842160400,2.972160400390625,-1.4876389503479004,-0.8812626600265503,0.32318076491355896
1732873984852170200,2.982170166015625,-1.3135309219360352,-0.8143459558486938,0.41903021931648254
1732873984862149400,2.9921494140625,-1.2527265548706055,-0.8071130514144897,0.5857266187667847
1732873984872159200,3.0021591796875,-1.2483091354370117,-0.7700930833816528,0.7844520211219788
1732873984882169000,3.012169189453125,-1.2342138290405273,-0.7275077104568481,0.856033205986023
1732873984892148200,3.022148193359375,-1.2040815353393555,-0.6457643508911133,0.8354409337043762
1732873984902157800,3.03215771484375,-1.0724658966064453,-0.5921471118927002,0.7572973966598511
1732873984912167700,3.042167724609375,-0.7605409622192383,-0.5435218811035156,0.6911166906356812
1732873984922146800,3.052146728515625,-0.35484886169433594,-0.5243363380432129,0.6356616020202637
1732873984932156700,3.06215673828125,0.16045761108398438,-0.5365090370178223,0.6081250309944153
1732873984942166500,3.07216650390625,0.5824794769287109,-0.5770310163497925,0.6480215787887573
1732873984952146000,3.08214599609375,0.7488641738891602,-0.6024049520492554,0.6183762550354004
1732873984962155500,3.092155517578125,0.8157110214233398,-0.6773390769958496,0.7406814694404602
1732873984972165400,3.102165283203125,0.7649173736572266,-0.5383564233779907,0.7267464399337769
1732873984982144500,3.11214453125,0.7323455810546875,-0.41509056091308594,0.6914396286010742
1732873984992154000,3.122154052734375,0.645207405090332,-0.2734029293060303,0.6304616928100586
1732873985002164000,3.1321640625,0.5615568161010742,-0.25765109062194824,0.6327677965164185
1732873985012143400,3.142143310546875,0.4068717956542969,-0.27279651165008545,0.6343845129013062
1732873985022153000,3.152153076171875,0.3100414276123047,-0.25508666038513184,0.682151198387146
1732873985032162800,3.162162841796875,0.4381074905395508,-0.1633511781692505,0.670780599117279
1732873985042142200,3.17214208984375,0.7137603759765625,-0.14931929111480713,0.4558248519897461
1732873985052151800,3.18215185546875,1.2321548461914062,-0.2239375114440918,0.2061077207326889
1732873985062161700,3.19216162109375,2.0863847732543945,-0.3014029264450073,0.23086068034172058
1732873985072171300,3.202171142578125,2.8307275772094727,-0.3004354238510132,0.1918504536151886
1732873985082150700,3.212150634765625,3.3474855422973633,-0.26935529708862305,0.03454364836215973
1732873985092160500,3.222160400390625,3.436640739440918,-0.2926403284072876,-0.16297176480293274
1732873985102170000,3.232170166015625,3.2234315872192383,-0.2303546667098999,-0.23596253991127014
1732873985112149500,3.2421494140625,3.021578788757324,-0.31493163108825684,-0.30625778436660767
1732873985122159000,3.2521591796875,3.070075035095215,-0.352783203125,-0.20493194460868835
1732873985132169000,3.2621689453125,3.263154983520508,-0.06210339069366455,-0.256084144115448
1732873985142148400,3.2721484375,3.1728343963623047,0.16020596027374268,-0.3703857660293579
1732873985152158000,3.282157958984375,2.796783447265625,0.27486109733581543,-0.7474926710128784
1732873985162167800,3.292167724609375,2.54178524017334,0.19169330596923828,-0.30810844898223877
1732873985172147200,3.302147216796875,2.3566455841064453,-0.4964330196380615,-0.32102468609809875
1732873985182156800,3.31215673828125,2.446173667907715,-1.49343740940094,-0.48198166489601135
1732873985192166400,3.32216650390625,2.83349609375,-2.102484941482544,-0.7748093008995056
1732873985202145800,3.332145751953125,3.178424835205078,-2.202256202697754,-1.269364356994629
1732873985212155400,3.3421552734375,3.0991086959838867,-1.9676976203918457,-1.8968955278396606
1732873985222165200,3.352165283203125,2.5965728759765625,-1.6851569414138794,-2.2466988563537598
1732873985232144400,3.362144287109375,1.3497285842895508,-1.4991706609725952,-2.2493066787719727
1732873985242154200,3.372154296875,-0.6207036972045898,-1.1664552688598633,-2.273090362548828
1732873985252164000,3.3821640625,-2.5315780639648438,-1.1378545761108398,-2.135216474533081
1732873985262143500,3.3921435546875,-4.155528545379639,-1.2129241228103638,-1.9010790586471558
1732873985272153300,3.4021533203125,-5.192556381225586,-1.2715498208999634,-1.7363519668579102
1732873985282163000,3.412162841796875,-5.611667633056641,-1.385459542274475,-1.6375858783721924
1732873985292141800,3.422141845703125,-5.34847354888916,-1.4644378423690796,-1.6933573484420776
1732873985302151700,3.432151611328125,-4.1301093101501465,-1.741593360900879,-1.6836504936218262
1732873985312161500,3.44216162109375,-2.7312097549438477,-2.0042362213134766,-1.4223331212997437
1732873985322171400,3.45217138671875,-1.4469537734985352,-2.142771005630493,-1.2513422966003418
1732873985332150800,3.46215087890625,-0.6016025543212891,-2.2462046146392822,-1.1627545356750488
1732873985342160400,3.472160400390625,-0.04354381561279297,-2.276425361633301,-0.801832914352417
1732873985352170200,3.482170166015625,-0.03435993194580078,-2.1479129791259766,-0.5934832096099854
1732873985362149400,3.4921494140625,-0.2739906311035156,-1.9100974798202515,-0.45916637778282166
1732873985372159200,3.5021591796875,-0.856745719909668,-1.6726844310760498,-0.19300207495689392
1732873985382168800,3.5121689453125,-1.4356088638305664,-1.383439064025879,-0.022792905569076538
1732873985392148200,3.522148193359375,-1.9923186302185059,-1.158724308013916,0.12069515883922577
1732873985402157800,3.53215771484375,-2.393697738647461,-0.9203464388847351,0.21811893582344055
1732873985412167700,3.542167724609375,-2.5857410430908203,-0.5794931650161743,0.14831864833831787
1732873985422146800,3.552146728515625,-2.6053547859191895,-0.34886932373046875,0.04544045031070709
1732873985432156700,3.56215673828125,-2.2953343391418457,-0.16201651096343994,-0.07982389628887177
1732873985442166500,3.57216650390625,-1.8436179161071777,-0.019774913787841797,-0.3470273017883301
1732873985452146000,3.58214599609375,-1.187082290649414,0.028615117073059082,-0.46441763639450073
1732873985462155500,3.592155517578125,-0.6028642654418945,0.19124376773834229,-0.45973271131515503
1732873985472165400,3.602165283203125,-0.13358020782470703,0.15454697608947754,-0.6908218860626221
1732873985482144500,3.61214453125,0.5300540924072266,0.03137373924255371,-1.0725823640823364
1732873985492154000,3.622154052734375,1.0937814712524414,-0.05021345615386963,-1.1931798458099365
1732873985502164000,3.6321640625,1.567427635192871,-0.22847163677215576,-1.1569846868515015
1732873985512143400,3.642143310546875,1.77001953125,-0.18963205814361572,-0.6238823533058167
1732873985522153000,3.652153076171875,1.767411231994629,-0.24203085899353027,-0.22256886959075928
1732873985532162800,3.662162841796875,1.5633649826049805,-0.19836533069610596,-0.09897443652153015
1732873985542142200,3.67214208984375,1.3545856475830078,0.04535567760467529,-0.00478893518447876
1732873985552151800,3.68215185546875,0.7628326416015625,0.1563718318939209,0.22311413288116455
1732873985562161700,3.69216162109375,0.15185260772705078,0.35586321353912354,0.2874269187450409
1732873985572171500,3.702171630859375,-0.3639535903930664,0.5206246376037598,0.3684479296207428
1732873985582150700,3.712150634765625,-0.879878044128418,0.4337759017944336,0.6524045467376709
1732873985592160500,3.722160400390625,-0.9452619552612305,0.2628366947174072,0.8320961594581604
1732873985602170000,3.732170166015625,-0.6332120895385742,0.32166624069213867,0.26425284147262573
1732873985612149200,3.742149169921875,0.32614612579345703,0.26201891899108887,-0.18998530507087708
1732873985622159000,3.7521591796875,1.438145637512207,-0.16978585720062256,-0.20020067691802979
1732873985632169000,3.7621689453125,2.7279043197631836,-0.7380932569503784,0.012148141860961914
1732873985642148400,3.7721484375,3.8777732849121094,-1.0371179580688477,0.40589120984077454
1732873985652158000,3.782157958984375,4.78104305267334,-0.9319441318511963,0.5172173380851746
1732873985662167800,3.792167724609375,4.836204528808594,-0.7145518064498901,-0.022727012634277344
1732873985672147000,3.80214697265625,4.237070083618164,-0.4060695171356201,0.7520595192909241
1732873985682156800,3.81215673828125,3.0883913040161133,-0.7361699938774109,1.468822717666626
1732873985692166700,3.822166748046875,1.990279197692871,-1.46792733669281,1.923364281654358
1732873985702145800,3.832145751953125,1.4557609558105469,-2.412203073501587,1.8020570278167725
1732873985712155400,3.8421552734375,1.9189519882202148,-2.860726833343506,1.1254326105117798
1732873985722165200,3.852165283203125,2.828974723815918,-3.025735378265381,0.2502039074897766
1732873985732144600,3.86214453125,3.5222253799438477,-3.034613609313965,-0.1420314908027649
1732873985742154200,3.872154296875,3.3854055404663086,-2.7313008308410645,-0.8377859592437744
1732873985752164000,3.8821640625,2.35091495513916,-2.484966278076172,0.014666974544525146
1732873985762143500,3.8921435546875,0.5440330505371094,-2.238417625427246,1.4072548151016235
1732873985772153000,3.902153076171875,-1.2188911437988281,-2.03157901763916,1.5317049026489258
1732873985782163000,3.912162841796875,-2.991506576538086,-1.169204831123352,1.3691520690917969
1732873985792142000,3.92214208984375,-4.356861114501953,-0.8904546499252319,1.9542450904846191
1732873985802151700,3.932151611328125,-5.035156726837158,-0.6774694323539734,2.20623779296875
1732873985812161500,3.94216162109375,-5.145070552825928,-0.6345287561416626,2.218454360961914
1732873985822171400,3.95217138671875,-4.683207988739014,-0.7942198514938354,2.095594644546509
1732873985832150500,3.962150634765625,-3.8485584259033203,-1.214784026145935,1.3159223794937134
1732873985842160400,3.972160400390625,-2.3936362266540527,-1.659547209739685,0.6728605031967163
1732873985852170200,3.982170166015625,-0.7815237045288086,-1.703563928604126,0.42854344844818115
1732873985862149400,3.9921494140625,-0.07082080841064453,-2.0390353202819824,0.2690351903438568
1732873985872159200,4.0021591796875,0.38220882415771484,-2.1354780197143555,0.015852272510528564
1732873985882168800,4.0121689453125,0.3811159133911133,-2.050889253616333,0.17554309964179993
1732873985892148200,4.022148193359375,-0.07913684844970703,-1.8766361474990845,0.27161672711372375
1732873985902157800,4.03215771484375,-0.8406200408935547,-1.5609773397445679,0.23277497291564941
1732873985912167700,4.042167724609375,-1.451817512512207,-1.2195590734481812,0.49863481521606445
1732873985922146800,4.052146728515625,-2.0073704719543457,-0.9084910750389099,0.4198654294013977
1732873985932156700,4.06215673828125,-2.0798120498657227,-0.5084481239318848,0.34260913729667664
1732873985942166500,4.07216650390625,-1.8064384460449219,-0.15265226364135742,0.22406697273254395
1732873985952146000,4.08214599609375,-1.5612421035766602,0.16855859756469727,-0.062347352504730225
1732873985962155500,4.092155517578125,-1.3524341583251953,0.28699707984924316,-0.23277878761291504
1732873985972165000,4.1021650390625,-1.179408073425293,0.31409668922424316,-0.168207585811615
1732873985982144500,4.11214453125,-0.9483852386474609,0.2882516384124756,-0.09478759765625
1732873985992154000,4.122154052734375,-0.6278982162475586,0.23026132583618164,-0.2009028196334839
1732873986002164000,4.1321640625,-0.3495149612426758,0.2284458875656128,0.18703997135162354
1732873986012143400,4.142143310546875,-0.2309274673461914,0.022665977478027344,0.22993963956832886
1732873986022153200,4.1521533203125,0.0053863525390625,-0.10863852500915527,0.39806440472602844
1732873986032162800,4.162162841796875,0.3232097625732422,-0.27105069160461426,0.35583382844924927
1732873986042142200,4.17214208984375,0.5644311904907227,-0.43371254205703735,0.45621541142463684
1732873986052151800,4.18215185546875,0.7801790237426758,-0.3394779562950134,0.39909330010414124
1732873986062161700,4.19216162109375,0.9586286544799805,-0.20841097831726074,0.3935334384441376
1732873986072171500,4.202171630859375,1.0537395477294922,-0.02895820140838623,0.32461729645729065
1732873986082150700,4.212150634765625,1.023615837097168,-0.05016040802001953,0.6925138235092163
1732873986092160500,4.222160400390625,1.0079431533813477,-0.1822826862335205,1.5269675254821777
1732873986102170000,4.232170166015625,0.7706546783447266,-0.0639503002166748,1.4341399669647217
1732873986112149500,4.2421494140625,0.5459718704223633,0.06476092338562012,1.214874505996704
1732873986122159000,4.2521591796875,0.26664066314697266,0.1960679292678833,0.9222822785377502
1732873986132169000,4.2621689453125,0.38432788848876953,-0.012640595436096191,-0.01421964168548584
1732873986142148000,4.272148193359375,1.082244873046875,0.21632754802703857,0.6450334787368774
1732873986152158000,4.282157958984375,1.4740209579467773,0.010863184928894043,0.42226991057395935
1732873986162167800,4.292167724609375,2.103097915649414,-0.1381443738937378,-0.09976530075073242
1732873986172147000,4.30214697265625,2.894460678100586,-0.12281560897827148,-0.26359832286834717
1732873986182156800,4.31215673828125,3.754047393798828,-0.2615011930465698,-0.6230246424674988
1732873986192166400,4.32216650390625,4.318868637084961,-0.033742547035217285,-0.759796679019928
1732873986202145800,4.332145751953125,4.118483543395996,0.294580340385437,-1.0230188369750977
1732873986212155400,4.3421552734375,3.223217010498047,0.2030104398727417,-1.0371577739715576
1732873986222165200,4.352165283203125,2.2554121017456055,-0.5558393001556396,-0.4784207344055176
1732873986232144400,4.362144287109375,1.8650836944580078,-1.7698107957839966,0.1702694445848465
1732873986242154200,4.372154296875,2.5525245666503906,-2.689462661743164,0.041328489780426025
1732873986252164000,4.3821640625,3.9488515853881836,-2.8059728145599365,-1.1530940532684326
1732873986262143500,4.3921435546875,5.156996726989746,-3.152662754058838,-1.2529579401016235
1732873986272153000,4.402153076171875,4.917191505432129,-2.702511787414551,-1.747563123703003
1732873986282163000,4.412162841796875,3.435678482055664,-2.0660624504089355,-2.0212624073028564
1732873986292142000,4.42214208984375,0.9708461761474609,-0.9787932634353638,-2.3032217025756836
1732873986302151700,4.432151611328125,-1.9397268295288086,-0.18355298042297363,-2.371062994003296
1732873986312161500,4.44216162109375,-5.022972583770752,0.08915162086486816,-1.8564348220825195
1732873986322171400,4.45217138671875,-6.928049087524414,0.23216986656188965,-1.3599597215652466
1732873986332150800,4.46215087890625,-7.732048511505127,0.19120609760284424,-1.337968111038208
1732873986342160400,4.472160400390625,-7.393549919128418,-0.14924216270446777,-1.2964060306549072
1732873986352170200,4.482170166015625,-6.147753715515137,-0.6597795486450195,-1.3156116008758545
1732873986362149600,4.492149658203125,-3.938760280609131,-1.1952753067016602,-1.495031476020813
1732873986372159200,4.5021591796875,-1.9652061462402344,-1.6558778285980225,-1.827041745185852
1732873986382168800,4.5121689453125,-0.04727935791015625,-2.132996082305908,-1.9732924699783325
1732873986392148200,4.522148193359375,1.3604459762573242,-2.3134758472442627,-2.024928569793701
1732873986402157800,4.53215771484375,2.3940601348876953,-2.3469278812408447,-1.8552052974700928
1732873986412167700,4.542167724609375,2.8657121658325195,-2.231182098388672,-1.3457715511322021
1732873986422147000,4.55214697265625,2.3979177474975586,-1.8735498189926147,-0.9241329431533813
1732873986432156700,4.56215673828125,1.2642383575439453,-1.4725333452224731,-0.5625200271606445
1732873986442166500,4.57216650390625,-0.0627126693725586,-1.0298871994018555,-0.27439814805984497
1732873986452146000,4.58214599609375,-0.9968843460083008,-0.5157507061958313,-0.011838160455226898
1732873986462155500,4.592155517578125,-1.548670768737793,-0.14182496070861816,0.15543855726718903
1732873986472165400,4.602165283203125,-1.8821215629577637,0.20371830463409424,0.25931671261787415
1732873986482144500,4.61214453125,-2.004851818084717,0.49755728244781494,0.22964292764663696
1732873986492154400,4.622154296875,-2.1516542434692383,0.6929240226745605,0.18476343154907227
1732873986502164000,4.6321640625,-2.234091281890869,0.7499951124191284,0.2692795395851135
1732873986512143400,4.642143310546875,-2.151754856109619,0.7557944059371948,0.2952907681465149
1732873986522153000,4.652153076171875,-2.077387809753418,0.7337633371353149,0.24279366433620453
1732873986532162800,4.662162841796875,-1.927271842956543,0.595557689666748,0.007346168160438538
1732873986542142000,4.672141845703125,-1.6329355239868164,0.4590308666229248,-0.2339697927236557
1732873986552151800,4.68215185546875,-0.9115514755249023,0.24998807907104492,-0.500596284866333
1732873986562161700,4.69216162109375,0.12669086456298828,0.013684391975402832,-0.686262845993042
1732873986572171500,4.702171630859375,0.9940128326416016,-0.11022293567657471,-0.8847665786743164
1732873986582150700,4.712150634765625,1.576685905456543,-0.14060044288635254,-1.1108099222183228
1732873986592160500,4.722160400390625,1.674790382385254,-0.02675950527191162,-1.181409239768982
1732873986602170000,4.732170166015625,1.2483301162719727,0.23087728023529053,-1.0586564540863037
1732873986612149200,4.742149169921875,0.5196943283081055,0.4447653293609619,-0.9671842455863953
1732873986622159000,4.7521591796875,-0.33815765380859375,0.5414292812347412,-0.6430700421333313
1732873986632169000,4.7621689453125,-0.9432582855224609,0.49343156814575195,-0.3807604908943176
1732873986642148400,4.7721484375,-1.206315040588379,0.31465327739715576,-0.09891611337661743
1732873986652158000,4.782157958984375,-0.8416328430175781,0.05536937713623047,0.13500390946865082
1732873986662167800,4.792167724609375,-0.027916908264160156,-0.12632477283477783,0.1289561539888382
1732873986672147000,4.80214697265625,0.8778228759765625,-0.3422504663467407,-0.07393668591976166
1732873986682156800,4.81215673828125,1.6764631271362305,-0.6721553802490234,0.0578288733959198
1732873986692166700,4.822166748046875,2.5117874145507812,-1.0202245712280273,0.36945170164108276
1732873986702145800,4.832145751953125,3.4038171768188477,-1.143781065940857,0.6803047060966492
1732873986712155400,4.8421552734375,4.259870529174805,-0.8473893404006958,0.5472168922424316
1732873986722165200,4.852165283203125,4.494462013244629,-0.3593432903289795,0.23332442343235016
1732873986732144600,4.86214453125,3.8715696334838867,-0.14227581024169922,0.03585179150104523
1732873986742154200,4.872154296875,2.808420181274414,-0.34815001487731934,0.1853557676076889
1732873986752164000,4.8821640625,1.9460582733154297,-1.0864641666412354,0.5973618030548096
1732873986762143500,4.8921435546875,1.8255548477172852,-1.8130841255187988,0.6475419402122498
1732873986772153000,4.902153076171875,2.372927665710449,-2.2751917839050293,0.24419516324996948
1732873986782162700,4.91216259765625,3.20493221282959,-2.550875663757324,-0.3901917040348053
1732873986792142000,4.92214208984375,3.8777875900268555,-2.710298776626587,-0.3269535303115845
1732873986802151700,4.932151611328125,3.616067886352539,-2.8252274990081787,0.3078755736351013
1732873986812161500,4.94216162109375,2.365147590637207,-2.638197183609009,0.8970654010772705
1732873986822171400,4.95217138671875,0.11214828491210938,-2.077650785446167,1.3338744640350342
1732873986832150500,4.962150634765625,-2.1627187728881836,-1.5944159030914307,1.3605588674545288
1732873986842160400,4.972160400390625,-3.640011787414551,-1.258276104927063,1.4263110160827637
1732873986852170200,4.982170166015625,-4.074470043182373,-1.197624683380127,1.5744142532348633
1732873986862149400,4.9921494140625,-3.7727279663085938,-1.298781156539917,1.4003156423568726
1732873986872159200,5.0021591796875,-2.8600311279296875,-1.5041921138763428,1.0074692964553833
1732873986882168800,5.0121689453125,-1.4912214279174805,-1.6618162393569946,0.6292397975921631
1732873986892148200,5.022148193359375,-0.4328622817993164,-1.626908540725708,-0.05148477107286453
1732873986902157800,5.03215771484375,-0.041024208068847656,-1.6411389112472534,-0.4166719913482666
1732873986912167700,5.042167724609375,-0.00664520263671875,-1.6672370433807373,-0.5130098462104797
1732873986922146800,5.052146728515625,-0.25058555603027344,-1.5726546049118042,-0.55418860912323
1732873986932156700,5.06215673828125,-0.578394889831543,-1.473129391670227,-0.5174920558929443
1732873986942166500,5.07216650390625,-0.9542236328125,-1.2753591537475586,-0.3827396631240845
1732873986952146000,5.08214599609375,-1.46209716796875,-1.0071296691894531,-0.482829749584198
1732873986962155500,5.092155517578125,-1.9016270637512207,-0.7602978348731995,-0.3294419050216675
1732873986972165400,5.102165283203125,-2.1132125854492188,-0.3986930847167969,-0.39900147914886475
1732873986982144500,5.11214453125,-2.2385807037353516,-0.11126482486724854,-0.47644513845443726
1732873986992154400,5.122154296875,-2.3402318954467773,0.10810744762420654,-0.47535860538482666
1732873987002164000,5.1321640625,-2.413496971130371,0.23377716541290283,-0.40790626406669617
1732873987012143400,5.142143310546875,-2.3483705520629883,0.3239649534225464,-0.4598905146121979
1732873987022153000,5.152153076171875,-1.9437975883483887,0.38863837718963623,-0.6042899489402771
1732873987032162800,5.162162841796875,-1.2740507125854492,0.40185976028442383,-0.663745105266571
1732873987042142200,5.17214208984375,-0.5039901733398438,0.3928530216217041,-0.6920214295387268
1732873987052151800,5.18215185546875,0.010550498962402344,0.2892427444458008,-0.6030391454696655
1732873987062161700,5.19216162109375,0.32283782958984375,0.0993431806564331,-0.24182115495204926
1732873987072171500,5.202171630859375,0.3783254623413086,-0.12603747844696045,0.15972936153411865
1732873987082150700,5.212150634765625,0.4591827392578125,-0.3845263719558716,0.5911171436309814
1732873987092160500,5.222160400390625,0.600947380065918,-0.5988529920578003,0.9701574444770813
1732873987102170000,5.232170166015625,0.8196706771850586,-0.6573457717895508,1.1926162242889404
1732873987112149200,5.242149169921875,1.0051956176757812,-0.5360134840011597,1.2082465887069702
1732873987122159000,5.2521591796875,1.045969009399414,-0.2882118225097656,1.1026397943496704
1732873987132169000,5.2621689453125,0.8850116729736328,0.07217693328857422,0.9040572643280029
1732873987142148000,5.272148193359375,0.4653606414794922,0.36851465702056885,0.7727042436599731
1732873987152158000,5.282157958984375,-0.11939716339111328,0.5529880523681641,0.8085110187530518
1732873987162167800,5.292167724609375,-0.51788330078125,0.5960757732391357,1.0033797025680542
1732873987172147200,5.302147216796875,-0.7742481231689453,0.5203604698181152,1.202234148979187
1732873987182156800,5.31215673828125,-0.7061548233032227,0.30890679359436035,1.3638674020767212
1732873987192166400,5.32216650390625,-0.24835491180419922,-0.055201053619384766,1.3384933471679688
1732873987202145500,5.3321455078125,0.584691047668457,-0.3364219665527344,1.0137494802474976
1732873987212155400,5.3421552734375,1.910567283630371,-0.4334956407546997,0.44799256324768066
1732873987222165200,5.352165283203125,3.164862632751465,-0.32355260848999023,-0.5148051977157593
1732873987232144400,5.362144287109375,3.962068557739258,-0.21972191333770752,-1.1327946186065674
1732873987242154200,5.372154296875,4.4101409912109375,-0.08828818798065186,-1.4679110050201416
1732873987252164000,5.3821640625,4.391411781311035,0.10669875144958496,-1.5871944427490234
1732873987262143500,5.3921435546875,3.792398452758789,0.4656856060028076,-1.7090466022491455
1732873987272153000,5.402153076171875,2.780686378479004,0.6609299182891846,-1.8075960874557495
1732873987282163000,5.412162841796875,1.5541772842407227,0.5163652896881104,-1.8349300622940063
1732873987292142000,5.42214208984375,0.7669916152954102,-0.14556884765625,-1.5651897192001343
1732873987302151700,5.432151611328125,0.3112974166870117,-1.421401023864746,-1.1341543197631836
1732873987312161500,5.44216162109375,0.8788414001464844,-2.5054357051849365,-0.9769630432128906
1732873987322171400,5.45217138671875,1.9885883331298828,-3.041161060333252,-1.3505139350891113
1732873987332150500,5.462150634765625,2.9750661849975586,-2.9516687393188477,-1.6409106254577637
1732873987342160400,5.472160400390625,2.764270782470703,-2.385761260986328,-1.9987177848815918
1732873987352170200,5.482170166015625,1.130387306213379,-1.5879120826721191,-2.002483367919922
1732873987362149400,5.4921494140625,-0.8249521255493164,-1.0030169486999512,-1.819764494895935
1732873987372159200,5.5021591796875,-3.1636643409729004,-0.5375187397003174,-1.4202711582183838
1732873987382168800,5.5121689453125,-4.980328559875488,-0.3030956983566284,-1.2869455814361572
1732873987392148000,5.52214794921875,-5.921854019165039,-0.3408970832824707,-1.3345863819122314
1732873987402157800,5.53215771484375,-5.334389686584473,-0.6224678754806519,-1.2149211168289185
1732873987412167700,5.542167724609375,-3.752498149871826,-1.211287021636963,-1.1535948514938354
1732873987422146800,5.552146728515625,-2.166105270385742,-1.633482575416565,-1.008676290512085
1732873987432156700,5.56215673828125,-0.5525169372558594,-2.042238235473633,-0.9646496772766113
1732873987442166500,5.57216650390625,0.7551584243774414,-2.362321615219116,-0.6960157155990601
1732873987452145700,5.582145751953125,1.648477554321289,-2.533766746520996,-0.278415322303772
1732873987462155500,5.592155517578125,2.0332565307617188,-2.4903955459594727,0.09511074423789978
1732873987472165400,5.602165283203125,1.6471166610717773,-2.2162106037139893,0.16431665420532227
1732873987482144500,5.61214453125,0.9837608337402344,-1.743133783340454,0.16498860716819763
1732873987492154400,5.622154296875,0.6207675933837891,-1.2480027675628662,0.15632158517837524
1732873987502164000,5.6321640625,0.3700275421142578,-0.7417793273925781,0.09655103087425232
1732873987512143400,5.642143310546875,-0.13702011108398438,-0.3318800926208496,0.080698162317276
1732873987522153000,5.652153076171875,-0.8593931198120117,0.016377687454223633,0.056462377309799194
1732873987532162800,5.662162841796875,-1.3393440246582031,0.24121403694152832,-0.007545381784439087
1732873987542142000,5.672141845703125,-1.7082328796386719,0.4259779453277588,-0.034301817417144775
1732873987552151800,5.68215185546875,-1.9881281852722168,0.46516501903533936,-0.016061455011367798
1732873987562161700,5.69216162109375,-2.1314992904663086,0.44549381732940674,-0.0377655029296875
1732873987572171500,5.702171630859375,-2.117372512817383,0.4496723413467407,-0.2530084252357483
1732873987582150700,5.712150634765625,-1.8958415985107422,0.3742626905441284,-0.4088144898414612
1732873987592160500,5.722160400390625,-1.512521743774414,0.30565083026885986,-0.4563412368297577
1732873987602170000,5.732170166015625,-1.1301546096801758,0.24300730228424072,-0.5280868411064148
1732873987612149200,5.742149169921875,-0.7388410568237305,0.2033299207687378,-0.5101480484008789
1732873987622159000,5.7521591796875,-0.4674968719482422,0.14140856266021729,-0.5463612079620361
1732873987632169000,5.7621689453125,-0.2128133773803711,0.05525553226470947,-0.5123134851455688
1732873987642148400,5.7721484375,0.12119293212890625,0.027460455894470215,-0.5253897309303284
1732873987652158000,5.782157958984375,0.6081666946411133,0.06594574451446533,-0.5513442158699036
1732873987662167800,5.792167724609375,1.0527219772338867,0.17267298698425293,-0.45639026165008545
1732873987672147000,5.80214697265625,1.2706613540649414,0.3008800745010376,-0.30953025817871094
1732873987682156800,5.81215673828125,1.1942882537841797,0.4101482629776001,-0.22281208634376526
1732873987692166700,5.822166748046875,1.0538368225097656,0.36266350746154785,-0.061786964535713196
1732873987702145800,5.832145751953125,0.9497604370117188,0.3125861883163452,0.04440780729055405
1732873987712155400,5.8421552734375,1.110891342163086,0.14792251586914062,0.18961495161056519
1732873987722165200,5.852165283203125,1.5235185623168945,0.04034233093261719,0.2719707190990448
1732873987732144600,5.86214453125,2.0797557830810547,-0.026460647583007812,0.12593823671340942
1732873987742154200,5.872154296875,2.835102081298828,-0.21252238750457764,-0.06051139533519745
1732873987752164000,5.8821640625,3.5146408081054688,-0.5221750736236572,-0.11766784638166428
1732873987762143500,5.8921435546875,4.1002912521362305,-0.9079924821853638,0.08680303394794464
1732873987772153000,5.902153076171875,4.765398025512695,-0.9702000021934509,0.3573590815067291
1732873987782163000,5.912162841796875,4.920482635498047,-0.6441564559936523,0.3538574278354645
1732873987792142000,5.92214208984375,4.106407165527344,-0.2967170476913452,0.33477067947387695
1732873987802151700,5.932151611328125,2.8050079345703125,-0.36640870571136475,0.641323983669281
1732873987812161500,5.94216162109375,1.1856164932250977,-1.0122092962265015,1.269510269165039
1732873987822171400,5.95217138671875,0.5675373077392578,-1.9232367277145386,1.7105624675750732
1732873987832150500,5.962150634765625,0.9045953750610352,-2.426572799682617,1.1580226421356201
1732873987842160400,5.972160400390625,2.036571502685547,-2.83565092086792,0.639703094959259
1732873987852170200,5.982170166015625,2.753230094909668,-2.8067851066589355,0.2854512631893158
1732873987862149400,5.9921494140625,2.588688850402832,-2.4505720138549805,-0.053953930735588074
1732873987872159200,6.0021591796875,1.2072114944458008,-1.9730008840560913,0.07945523411035538
1732873987882169000,6.012169189453125,-1.135411262512207,-1.5991859436035156,0.8038161993026733
1732873987892148200,6.022148193359375,-3.515690326690674,-1.3756738901138306,1.3968573808670044
1732873987902157800,6.03215771484375,-5.544857978820801,-1.1395392417907715,1.7693225145339966
1732873987912167700,6.042167724609375,-6.387786865234375,-1.082126498222351,1.8740098476409912
1732873987922146800,6.052146728515625,-6.088670253753662,-1.2739222049713135,1.5169851779937744
1732873987932156700,6.06215673828125,-4.6937971115112305,-1.6241440773010254,1.1495798826217651
1732873987942166500,6.07216650390625,-2.5806212425231934,-2.0970630645751953,0.6038893461227417
1732873987952146000,6.08214599609375,-0.8112716674804688,-2.3008060455322266,0.22313693165779114
1732873987962155500,6.092155517578125,0.9710311889648438,-2.8236098289489746,-0.01290041208267212
1732873987972165000,6.1021650390625,1.7527761459350586,-2.880324125289917,-0.2272181212902069
1732873987982144500,6.11214453125,1.7404375076293945,-2.644895315170288,-0.2980268895626068
1732873987992154400,6.122154296875,1.2424259185791016,-2.351590394973755,-0.18053942918777466
1732873988002164000,6.1321640625,0.5276880264282227,-1.969477891921997,0.13814187049865723
1732873988012143400,6.142143310546875,-0.5015134811401367,-1.479306936264038,0.31247061491012573
1732873988022153200,6.1521533203125,-1.410414695739746,-1.058671236038208,0.40385669469833374
1732873988032162800,6.162162841796875,-2.272202968597412,-0.5792074203491211,0.395679235458374
1732873988042142200,6.17214208984375,-2.5948991775512695,-0.2740137577056885,0.311642050743103
1732873988052151800,6.18215185546875,-2.7650279998779297,0.0972449779510498,0.17097491025924683
1732873988062161700,6.19216162109375,-2.560732364654541,0.2388901710510254,-0.10610711574554443
1732873988072171500,6.202171630859375,-1.9870758056640625,0.16650569438934326,-0.15620660781860352
1732873988082150700,6.212150634765625,-1.4447145462036133,0.08362317085266113,-0.22140753269195557
1732873988092160500,6.222160400390625,-0.9630012512207031,0.08076322078704834,-0.3830607533454895
1732873988102170000,6.232170166015625,-0.36153507232666016,0.05877041816711426,-0.3758145570755005
1732873988112149500,6.2421494140625,0.08707904815673828,0.00877833366394043,-0.29530245065689087
1732873988122159000,6.2521591796875,0.4692258834838867,-0.11630070209503174,-0.0541834831237793
1732873988132169000,6.2621689453125,0.7751607894897461,-0.2709956169128418,0.2979508340358734
1732873988142148400,6.2721484375,0.9639701843261719,-0.37376832962036133,0.6898043751716614
1732873988152158000,6.282157958984375,0.8136520385742188,-0.38025546073913574,0.7179147601127625
1732873988162167800,6.292167724609375,0.6534843444824219,-0.46443605422973633,0.823165774345398
1732873988172147000,6.30214697265625,0.7143268585205078,-0.5890675783157349,1.0221071243286133
1732873988182156800,6.31215673828125,0.7755804061889648,-0.5561105012893677,1.0519015789031982
1732873988192166400,6.32216650390625,0.7706813812255859,-0.4611215591430664,1.0294864177703857
1732873988202145500,6.3321455078125,0.623443603515625,-0.2824547290802002,0.9556137323379517
1732873988212155400,6.3421552734375,0.27901268005371094,-0.09559798240661621,0.7578572630882263
1732873988222165200,6.352165283203125,-0.02972126007080078,-0.039772987365722656,0.685528039932251
1732873988232144600,6.36214453125,-0.39037036895751953,-0.001883864402770996,0.7093009948730469
1732873988242154200,6.372154296875,-0.6242332458496094,-0.015421509742736816,0.7352840900421143
1732873988252164000,6.3821640625,-0.6482963562011719,-0.10238790512084961,0.711542010307312
1732873988262143500,6.3921435546875,-0.2888965606689453,-0.2068486213684082,0.5924597382545471
1732873988272153000,6.402153076171875,0.5440435409545898,-0.34856855869293213,0.467555433511734
1732873988282163000,6.412162841796875,1.3819265365600586,-0.3672269582748413,0.20519615709781647
1732873988292141800,6.422141845703125,2.1052513122558594,-0.3461458683013916,-0.1080906093120575
1732873988302151700,6.432151611328125,2.543026924133301,-0.24947547912597656,-0.4674025774002075
1732873988312161500,6.44216162109375,2.931412696838379,-0.010732889175415039,-0.7189286947250366
1732873988322171400,6.45217138671875,2.998293876647949,0.430438756942749,-1.0923655033111572
1732873988332150500,6.462150634765625,2.7320432662963867,0.7272995710372925,-1.512708306312561
1732873988342160400,6.472160400390625,1.9962873458862305,0.6108372211456299,-1.6029317378997803
1732873988352170200,6.482170166015625,1.4678230285644531,-0.08533215522766113,-1.3091611862182617
1732873988362149600,6.492149658203125,1.5854616165161133,-1.3953971862792969,-0.5223544239997864
1732873988372159200,6.5021591796875,2.6876182556152344,-2.6833081245422363,-0.1619872748851776
1732873988382168800,6.5121689453125,4.305055618286133,-3.521622657775879,-0.6328769326210022
1732873988392148000,6.52214794921875,5.617958068847656,-3.579984188079834,-1.3094221353530884
1732873988402157800,6.53215771484375,5.607088088989258,-2.9825549125671387,-1.7130017280578613
1732873988412167700,6.542167724609375,3.677544593811035,-2.184081554412842,-2.2003400325775146
1732873988422147000,6.55214697265625,1.3985910415649414,-1.2195123434066772,-2.3036203384399414
1732873988432156700,6.56215673828125,-1.2068309783935547,-0.4819120168685913,-2.007171154022217
1732873988442166500,6.57216650390625,-3.8602075576782227,-0.22107386589050293,-1.3925628662109375
1732873988452146000,6.58214599609375,-6.218661308288574,0.05968141555786133,-0.9557087421417236
1732873988462155500,6.592155517578125,-7.089743614196777,0.1761484146118164,-0.6203681230545044
1732873988472165400,6.602165283203125,-7.370923042297363,-0.09848952293395996,-0.7334084510803223
1732873988482144500,6.61214453125,-7.035516262054443,-0.6233164072036743,-0.9216488003730774
1732873988492154400,6.622154296875,-5.239389896392822,-1.2231191396713257,-1.160454511642456
1732873988502164000,6.6321640625,-3.2729177474975586,-1.7079415321350098,-1.410294532775879
1732873988512143400,6.642143310546875,-0.5646505355834961,-2.39615797996521,-1.6818840503692627
1732873988522153000,6.652153076171875,1.6143779754638672,-2.746079206466675,-1.576350450515747
1732873988532162800,6.662162841796875,3.027928352355957,-2.669602632522583,-1.626831293106079
1732873988542142000,6.672141845703125,3.225489616394043,-2.435253858566284,-1.6048557758331299
1732873988552151800,6.68215185546875,2.682478904724121,-2.2244603633880615,-1.2049238681793213
1732873988562161700,6.69216162109375,1.4393434524536133,-1.9118101596832275,-0.5282225012779236
1732873988572171500,6.702171630859375,0.4860363006591797,-1.556517481803894,-0.25711512565612793
1732873988582150700,6.712150634765625,-0.32501983642578125,-1.0845754146575928,0.11680552363395691
1732873988592160500,6.722160400390625,-0.7956123352050781,-0.7645242214202881,0.3389083445072174
1732873988602170000,6.732170166015625,-1.2651453018188477,-0.396014928817749,0.36537638306617737
1732873988612149200,6.742149169921875,-1.5043058395385742,0.01466512680053711,0.23359175026416779
1732873988622159000,6.7521591796875,-1.4874591827392578,0.31651902198791504,0.003130994737148285
1732873988632169000,6.7621689453125,-1.3459844589233398,0.48840177059173584,-0.23190650343894958
1732873988642148400,6.7721484375,-1.2093610763549805,0.6006886959075928,-0.3628770709037781
1732873988652158000,6.782157958984375,-1.1040287017822266,0.560334324836731,-0.40475308895111084
1732873988662167800,6.792167724609375,-1.0061845779418945,0.4614548683166504,-0.38328927755355835
1732873988672147000,6.80214697265625,-0.6979055404663086,0.24913239479064941,-0.31420326232910156
1732873988682156800,6.81215673828125,-0.30137157440185547,0.05813157558441162,-0.3482828736305237
1732873988692166700,6.822166748046875,0.22176170349121094,-0.1562514305114746,-0.3978770971298218
1732873988702145800,6.832145751953125,0.5353507995605469,-0.29487180709838867,-0.441704660654068
1732873988712155400,6.8421552734375,0.8168058395385742,-0.2530643939971924,-0.5167266726493835
1732873988722165200,6.852165283203125,0.8914194107055664,-0.10027205944061279,-0.6009277105331421
1732873988732144600,6.86214453125,0.6400623321533203,-0.035793423652648926,-0.534457802772522
1732873988742154200,6.872154296875,0.3453788757324219,0.009383082389831543,-0.4019913673400879
1732873988752164000,6.8821640625,0.2049694061279297,0.0147475004196167,-0.34858351945877075
1732873988762143500,6.8921435546875,0.014775276184082031,-0.034621477127075195,-0.6608806848526001
1732873988772153000,6.902153076171875,0.2050333023071289,-0.18759047985076904,-0.5606138706207275
1732873988782162700,6.91216259765625,0.8421449661254883,-0.44496166706085205,-0.6313594579696655
1732873988792142000,6.92214208984375,1.543013572692871,-0.6960305571556091,-0.7322134971618652
1732873988802151700,6.932151611328125,2.178936004638672,-0.8587088584899902,-0.6558457612991333
1732873988812161500,6.94216162109375,2.33944034576416,-0.917090654373169,-0.42243635654449463
1732873988822171400,6.95217138671875,2.178678512573242,-0.9046992659568787,-0.22529524564743042
1732873988832150500,6.962150634765625,1.7094106674194336,-0.8796356916427612,0.001978278160095215
1732873988842160400,6.972160400390625,1.0609703063964844,-0.7361922264099121,0.343911737203598
1732873988852170200,6.982170166015625,0.21161174774169922,-0.49624931812286377,0.7779909372329712
1732873988862149400,6.9921494140625,-0.27697086334228516,-0.00004184246063232422,0.9223482608795166
1732873988872159200,7.0021591796875,-0.6316709518432617,0.3973722457885742,0.5418076515197754
1732873988882169000,7.012169189453125,-0.6260547637939453,0.5054519176483154,0.16468602418899536
1732873988892148200,7.022148193359375,-0.13100719451904297,0.16635966300964355,-0.030710339546203613
1732873988902157800,7.03215771484375,0.3798055648803711,-0.5305569171905518,-0.2852429151535034
1732873988912167700,7.042167724609375,2.0935239791870117,-1.8855029344558716,-0.4667413830757141
1732873988922146800,7.052146728515625,4.372234344482422,-3.29380202293396,-0.21034109592437744
1732873988932156700,7.06215673828125,6.707887649536133,-4.250563144683838,-0.7520679235458374
1732873988942166500,7.07216650390625,7.908066749572754,-4.268697261810303,-0.9599924087524414
1732873988952146000,7.08214599609375,7.3547563552856445,-3.950951099395752,-0.739885151386261
1732873988962155500,7.092155517578125,4.7906599044799805,-3.468820571899414,-0.1369139552116394
1732873988972165000,7.1021650390625,1.417947769165039,-2.822110414505005,0.4205557703971863
1732873988982144500,7.11214453125,-1.3585443496704102,-2.1601266860961914,1.0135819911956787
1732873988992154400,7.122154296875,-3.342388153076172,-1.4732446670532227,1.8216471672058105
1732873989002164000,7.1321640625,-5.343909740447998,-1.0375362634658813,1.728860855102539
1732873989012143400,7.142143310546875,-6.450932502746582,-0.5773565769195557,1.616538166999817
1732873989022153000,7.152153076171875,-7.017159461975098,-0.12007570266723633,1.3567304611206055
1732873989032162800,7.162162841796875,-7.138293266296387,0.04015946388244629,1.1599805355072021
1732873989042142200,7.17214208984375,-6.73896598815918,0.47034239768981934,0.13646000623703003
1732873989052151800,7.18215185546875,-5.914271831512451,0.14269185066223145,-0.18439245223999023
1732873989062161700,7.19216162109375,-4.302321434020996,-1.1822212934494019,0.4830681085586548
1732873989072171500,7.202171630859375,-1.6716876029968262,-2.2108712196350098,1.0026142597198486
1732873989082150700,7.212150634765625,1.0977001190185547,-3.0620169639587402,1.1527252197265625
1732873989092160500,7.222160400390625,3.3404054641723633,-3.509828567504883,0.9274426698684692
1732873989102170000,7.232170166015625,4.670978546142578,-3.5846738815307617,0.7282005548477173
1732873989112149200,7.242149169921875,5.444659233093262,-3.3770151138305664,0.6519033908843994
1732873989122159000,7.2521591796875,5.185173034667969,-2.9333014488220215,0.6982910633087158
1732873989132169000,7.2621689453125,3.984090805053711,-2.242488384246826,0.5998545289039612
1732873989142148400,7.2721484375,2.6600217819213867,-1.4989866018295288,0.5530312657356262
1732873989152158000,7.282157958984375,0.9479341506958008,-1.0337269306182861,0.6509292125701904
1732873989162167800,7.292167724609375,-0.3018836975097656,-0.7442956566810608,0.6722108125686646
1732873989172147000,7.30214697265625,-0.9625749588012695,-0.6478399038314819,0.47807711362838745
1732873989182156800,7.31215673828125,-1.015085220336914,-0.5881850719451904,-0.0183027982711792
1732873989192166400,7.32216650390625,-0.6853713989257812,-0.6149463653564453,-0.3952840566635132
1732873989202145800,7.332145751953125,-0.4904193878173828,-0.6245436668395996,-0.7547957301139832
1732873989212155400,7.3421552734375,-0.3797121047973633,-0.5911616086959839,-1.0647903680801392
1732873989222165200,7.352165283203125,-0.4624462127685547,-0.5005220174789429,-1.3896949291229248
1732873989232144600,7.36214453125,-0.7524995803833008,-0.5586810111999512,-1.4880201816558838
1732873989242154200,7.372154296875,-0.9559173583984375,-0.820670485496521,-1.291745901107788
1732873989252164000,7.3821640625,-0.8733129501342773,-0.9862331748008728,-1.209815263748169
1732873989262143500,7.3921435546875,-0.36635398864746094,-1.0634820461273193,-1.3120945692062378
1732873989272153300,7.4021533203125,0.1507253646850586,-1.0252528190612793,-1.533722162246704
1732873989282163000,7.412162841796875,0.46028995513916016,-0.9283496141433716,-1.8165724277496338
1732873989292141800,7.422141845703125,0.7374382019042969,-1.1150739192962646,-1.5886592864990234
1732873989302151700,7.432151611328125,0.8920021057128906,-1.183426856994629,-1.7366828918457031
1732873989312161500,7.44216162109375,0.9341592788696289,-1.0492136478424072,-2.056279420852661
1732873989322171400,7.45217138671875,0.9748439788818359,-1.0117450952529907,-2.304738759994507
1732873989332150800,7.46215087890625,0.8920974731445312,-1.0908488035202026,-2.4432199001312256
1732873989342160400,7.472160400390625,0.7435388565063477,-1.2033662796020508,-2.4661924839019775
1732873989352170200,7.482170166015625,0.6535844802856445,-1.2582563161849976,-2.439521312713623
1732873989362149400,7.4921494140625,0.6123800277709961,-1.312136173248291,-2.382097005844116
1732873989372159200,7.5021591796875,0.6794185638427734,-1.2661128044128418,-2.199469566345215
1732873989382168800,7.5121689453125,0.5360889434814453,-1.148366928100586,-2.0819740295410156
1732873989392148200,7.522148193359375,0.15859222412109375,-1.0524946451187134,-1.8748736381530762
1732873989402157800,7.53215771484375,-0.3240833282470703,-1.0467023849487305,-1.7444190979003906
1732873989412167700,7.542167724609375,-0.6922101974487305,-0.9883723855018616,-1.7185344696044922
1732873989422146800,7.552146728515625,-0.8551883697509766,-0.9372913837432861,-1.7929327487945557
1732873989432156700,7.56215673828125,-0.6862974166870117,-1.0119457244873047,-1.8778338432312012
1732873989442166500,7.57216650390625,-0.6139841079711914,-1.1289763450622559,-2.0232253074645996
1732873989452145700,7.582145751953125,-0.5398464202880859,-1.2523632049560547,-2.06254243850708
1732873989462155500,7.592155517578125,-0.45899009704589844,-1.5070900917053223,-1.888037919998169
1732873989472165400,7.602165283203125,-0.3454771041870117,-1.7776012420654297,-1.7549554109573364
1732873989482144500,7.61214453125,-0.10370826721191406,-2.034472703933716,-1.6134252548217773
1732873989492154400,7.622154296875,0.12460136413574219,-2.2371177673339844,-1.504503607749939
1732873989502164000,7.6321640625,0.3610343933105469,-2.4495859146118164,-1.3357596397399902
1732873989512143400,7.642143310546875,0.4841423034667969,-2.610778331756592,-1.175145149230957
1732873989522153000,7.652153076171875,0.5112600326538086,-2.730384111404419,-1.1078364849090576
1732873989532162800,7.662162841796875,0.4953889846801758,-2.824613571166992,-1.0286660194396973
1732873989542142200,7.67214208984375,0.41327571868896484,-2.805515766143799,-0.9594525694847107
1732873989552151800,7.68215185546875,0.2838726043701172,-2.791764736175537,-0.890388011932373
1732873989562161700,7.69216162109375,0.15983867645263672,-2.752336025238037,-0.7569133639335632
1732873989572171500,7.702171630859375,0.02202320098876953,-2.6464977264404297,-0.5155271291732788
1732873989582150700,7.712150634765625,-0.16321372985839844,-2.5934438705444336,-0.32685786485671997
1732873989592160500,7.722160400390625,-0.36032867431640625,-2.4407577514648438,0.035263895988464355
1732873989602170400,7.73217041015625,-0.5379848480224609,-2.4065895080566406,0.18452733755111694
1732873989612149200,7.742149169921875,-0.5194740295410156,-2.389995813369751,0.24054878950119019
1732873989622159000,7.7521591796875,-0.4977293014526367,-1.5142300128936768,0.3592502176761627
1732873989632169000,7.7621689453125,-0.33371639251708984,-0.9664405584335327,0.46187281608581543
1732873989642148400,7.7721484375,-0.062389373779296875,-0.6441850662231445,0.43161696195602417
1732873989652158000,7.782157958984375,0.29245853424072266,-0.4105767011642456,0.44608357548713684
1732873989662167800,7.792167724609375,0.6860761642456055,-0.2998940944671631,0.45668330788612366
1732873989672147000,7.80214697265625,1.0401506423950195,-0.20548588037490845,0.4660921096801758
1732873989682156800,7.81215673828125,1.2734127044677734,-0.05118900537490845,0.33171892166137695
1732873989692166400,7.82216650390625,1.43792724609375,0.027626097202301025,0.46515539288520813
1732873989702145800,7.832145751953125,1.3643627166748047,0.1791142225265503,0.49942678213119507
1732873989712155400,7.8421552734375,1.0219097137451172,0.3655042350292206,0.6573507785797119
1732873989722165200,7.852165283203125,-0.2454080581665039,0.6996368765830994,1.304862141609192
1732873989732144600,7.86214453125,-0.9740161895751953,0.3905954957008362,1.6512315273284912
1732873989742154200,7.872154296875,-0.9284524917602539,0.37374234199523926,1.8806207180023193
1732873989752164000,7.8821640625,-0.6544952392578125,0.7075088620185852,1.7238805294036865
1732873989762143500,7.8921435546875,-0.46512603759765625,0.7802562713623047,1.4471228122711182
1732873989772153000,7.902153076171875,-0.2969245910644531,0.7276315689086914,1.3431012630462646
1732873989782163000,7.912162841796875,-0.061356544494628906,0.7722740173339844,1.3010915517807007
1732873989792142000,7.92214208984375,0.0308685302734375,1.0283570289611816,1.0729864835739136
1732873989802151700,7.932151611328125,-0.07795238494873047,1.214197039604187,0.915588915348053
1732873989812161500,7.94216162109375,-0.25612354278564453,1.3576648235321045,1.0012739896774292
1732873989822171400,7.95217138671875,-0.4248180389404297,1.4415411949157715,1.2461410760879517
1732873989832150500,7.962150634765625,-0.6798810958862305,1.5016390085220337,1.4763697385787964
1732873989842160400,7.972160400390625,-0.62213134765625,1.5042330026626587,1.7862575054168701
1732873989852170200,7.982170166015625,-0.35188770294189453,1.5531666278839111,1.8256127834320068
1732873989862149400,7.9921494140625,0.3152017593383789,1.5734100341796875,1.8198740482330322
1732873989872159200,8.0021591796875,0.9553823471069336,1.5350406169891357,1.7674856185913086
1732873989882168800,8.0121689453125,1.5600204467773438,1.5226900577545166,1.66293203830719
1732873989892148200,8.022148193359374,1.8971014022827148,1.524148941040039,1.5949609279632568
1732873989902157800,8.03215771484375,1.9515495300292969,1.4833240509033203,1.6497089862823486
1732873989912167700,8.042167724609374,1.5096330642700195,1.5165504217147827,1.7492363452911377
1732873989922146800,8.052146728515625,0.7331295013427734,1.6144390106201172,1.7852245569229126
1732873989932156700,8.06215673828125,0.060821533203125,1.7771985530853271,1.7953321933746338
1732873989942166500,8.07216650390625,-0.5419731140136719,1.860911250114441,1.8787416219711304
1732873989952146000,8.08214599609375,-0.9152994155883789,1.9313721656799316,2.0986833572387695
1732873989962155500,8.092155517578124,-1.1974592208862305,1.8468509912490845,2.312586545944214
1732873989972165400,8.102165283203124,-1.214700698852539,1.782557725906372,2.4306302070617676
1732873989982144500,8.11214453125,-1.0327835083007812,1.7223953008651733,2.476337432861328
1732873989992154400,8.122154296875,-0.6006317138671875,1.7010217905044556,2.368929386138916
1732873990002164000,8.1321640625,-0.16455936431884766,1.6719207763671875,2.4239888191223145
1732873990012143400,8.142143310546874,0.25620269775390625,1.6854480504989624,2.5428764820098877
1732873990022153000,8.152153076171874,0.5466928482055664,1.7301543951034546,2.5382649898529053
1732873990032162800,8.162162841796874,0.7552318572998047,1.8252428770065308,2.436115264892578
1732873990042142200,8.17214208984375,0.8082847595214844,1.9489469528198242,2.340580940246582
1732873990052151800,8.18215185546875,0.7132530212402344,2.075274705886841,2.3290271759033203
1732873990062161700,8.19216162109375,0.6003942489624023,2.074289321899414,2.3849081993103027
1732873990072171500,8.202171630859375,0.6587791442871094,2.1615400314331055,2.4725143909454346
1732873990082151000,8.21215087890625,0.8927536010742188,2.281093120574951,2.659313917160034
1732873990092160500,8.222160400390624,1.0100088119506836,2.4942216873168945,2.559041976928711
1732873990102170000,8.232170166015624,1.300187110900879,2.740093231201172,2.672442674636841
1732873990112149500,8.2421494140625,1.5430145263671875,2.889545202255249,2.8873722553253174
1732873990122159000,8.2521591796875,1.6683769226074219,3.0460925102233887,2.9286909103393555
1732873990132169000,8.2621689453125,1.6205940246582031,3.0636649131774902,2.878782272338867
1732873990142148400,8.2721484375,1.6700353622436523,2.797133684158325,2.9284651279449463
1732873990152158000,8.282157958984374,1.921309471130371,2.536165714263916,2.7649669647216797
1732873990162167800,8.292167724609374,2.373957633972168,2.1207408905029297,2.568106174468994
1732873990172147200,8.302147216796875,2.8203001022338867,1.816321611404419,2.245623826980591
1732873990182156800,8.31215673828125,3.30010986328125,1.617943525314331,2.0409398078918457
1732873990192166400,8.32216650390625,3.3070974349975586,1.5460566282272339,1.9513399600982666
1732873990202145500,8.3321455078125,2.8194360733032227,1.5747113227844238,1.9650328159332275
1732873990212155400,8.3421552734375,1.9675235748291016,1.5995657444000244,1.9590494632720947
1732873990222165200,8.352165283203124,0.9996194839477539,1.4892876148223877,1.6777551174163818
1732873990232144400,8.362144287109375,-0.013388633728027344,0.9946130514144897,1.7132818698883057
1732873990242154200,8.372154296875,-0.6910800933837891,0.4999479055404663,1.7014412879943848
1732873990252164000,8.3821640625,-0.9548406600952148,0.12974148988723755,1.579355239868164
1732873990262143500,8.3921435546875,-0.8386964797973633,-0.21007895469665527,1.1190035343170166
1732873990272153000,8.402153076171874,-0.8220129013061523,-0.3137679696083069,0.7098381519317627
1732873990282163000,8.412162841796874,-0.9157772064208984,-0.19758391380310059,0.7519873976707458
1732873990292141800,8.422141845703125,-1.1856670379638672,0.03114497661590576,0.9959338307380676
1732873990302151700,8.432151611328125,-1.8241305351257324,0.315004825592041,1.244896650314331
1732873990312161500,8.44216162109375,-2.7323460578918457,0.6251305341720581,1.4253044128417969
1732873990322171400,8.45217138671875,-3.8706655502319336,0.8734872341156006,1.8299798965454102
1732873990332150500,8.462150634765624,-4.866243362426758,0.8915709257125854,2.31911563873291
1732873990342160400,8.472160400390624,-5.631889343261719,0.9644043445587158,2.713768482208252
1732873990352170200,8.482170166015624,-5.745134353637695,0.8792864084243774,2.6149191856384277
1732873990362149400,8.4921494140625,-5.0875020027160645,0.6930521726608276,2.133227825164795
1732873990372159200,8.5021591796875,-3.8278045654296875,0.2867460250854492,1.8172755241394043
1732873990382168800,8.5121689453125,-1.984665870666504,-0.2441803216934204,1.6930043697357178
1732873990392148200,8.522148193359374,-0.09461116790771484,-0.5115006566047668,1.5709797143936157
1732873990402157800,8.53215771484375,1.9795141220092773,-0.40106648206710815,1.342993140220642
1732873990412167700,8.542167724609374,3.315924644470215,-0.016116082668304443,1.011238932609558
1732873990422146800,8.552146728515625,3.6661195755004883,0.4474506974220276,0.7754702568054199
1732873990432156700,8.56215673828125,3.1248817443847656,1.1629548072814941,0.7688498497009277
1732873990442166500,8.57216650390625,1.9828834533691406,1.6064761877059937,0.8633712530136108
1732873990452146000,8.58214599609375,0.5054931640625,2.142528772354126,0.8919599056243896
1732873990462155500,8.592155517578124,-0.6552743911743164,2.4650180339813232,0.9083379507064819
1732873990472165400,8.602165283203124,-1.5569725036621094,2.7263808250427246,0.8032599091529846
1732873990482144500,8.61214453125,-2.041473865509033,2.8406500816345215,0.6666969060897827
1732873990492154400,8.622154296875,-2.240635395050049,2.8003101348876953,0.5108091235160828
1732873990502164200,8.632164306640625,-2.126229763031006,2.6965548992156982,0.49326640367507935
1732873990512143400,8.642143310546874,-1.9957003593444824,2.5480592250823975,0.586976170539856
1732873990522153000,8.652153076171874,-1.7798519134521484,2.3452534675598145,0.7913932204246521
1732873990532162800,8.662162841796874,-1.5072107315063477,2.156843423843384,0.9170786738395691
1732873990542142000,8.672141845703125,-1.199324607849121,1.9941904544830322,1.0964059829711914
1732873990552151800,8.68215185546875,-0.9353408813476562,1.921727180480957,1.2048197984695435
1732873990562161700,8.69216162109375,-0.8588180541992188,1.9401812553405762,1.2516361474990845
1732873990572171500,8.702171630859375,-0.9143638610839844,2.003722667694092,1.203989863395691
1732873990582150700,8.712150634765624,-0.9098196029663086,2.084991693496704,1.2130870819091797
1732873990592160500,8.722160400390624,-0.8713626861572266,2.105600357055664,1.2803654670715332
1732873990602170000,8.732170166015624,-0.7534341812133789,2.0614848136901855,1.3252947330474854
1732873990612149200,8.742149169921875,-0.5681247711181641,1.8701658248901367,1.3023332357406616
1732873990622159000,8.7521591796875,-0.17672443389892578,1.1308517456054688,0.9657490253448486
1732873990632169000,8.7621689453125,0.35590457916259766,0.5029962062835693,0.6529095768928528
1732873990642148400,8.7721484375,0.7240200042724609,0.1227412223815918,0.40550094842910767
1732873990652158000,8.782157958984374,0.8676919937133789,0.2256324291229248,0.382351815700531
1732873990662167800,8.792167724609374,0.6826295852661133,0.33423686027526855,0.35881486535072327
1732873990672147000,8.80214697265625,0.3654956817626953,0.5136868953704834,0.233824223279953
1732873990682156800,8.81215673828125,0.15528297424316406,0.6983065605163574,0.15543299913406372
1732873990692166400,8.82216650390625,0.09904098510742188,0.7313206195831299,0.015956223011016846
1732873990702145800,8.832145751953124,0.7433509826660156,0.672137975692749,0.004475831985473633
1732873990712155400,8.8421552734375,1.9740304946899414,0.6420600414276123,0.02589935064315796
1732873990722165200,8.852165283203124,3.489384651184082,0.5258018970489502,0.08362609148025513
1732873990732144600,8.86214453125,4.726532936096191,0.7025899887084961,-0.018985271453857422
1732873990742154200,8.872154296875,5.557191848754883,1.1872427463531494,-0.4921720027923584
1732873990752164000,8.8821640625,5.877971649169922,1.685575008392334,-0.8807787299156189
1732873990762143500,8.8921435546875,5.580982208251953,1.8306658267974854,-1.0564255714416504
1732873990772153000,8.902153076171874,4.624751091003418,1.5112559795379639,-0.9648539423942566
1732873990782163000,8.912162841796874,3.5120506286621094,0.7630062103271484,-0.8095607161521912
1732873990792142000,8.92214208984375,2.783665657043457,-0.3522031307220459,-0.6950826048851013
1732873990802151700,8.932151611328125,2.813505172729492,-1.6959468126296997,-0.49047160148620605
1732873990812161500,8.94216162109375,3.6257781982421875,-2.5638327598571777,-1.133984088897705
1732873990822171400,8.95217138671875,4.193361282348633,-2.9437389373779297,-1.8372396230697632
1732873990832150500,8.962150634765624,4.418756484985352,-2.8104608058929443,-1.6645379066467285
1732873990842160400,8.972160400390624,3.899658203125,-2.3365001678466797,-1.3328711986541748
1732873990852170200,8.982170166015624,2.2626218795776367,-1.888588547706604,-1.211376428604126
1732873990862149400,8.9921494140625,0.17575454711914062,-1.6116657257080078,-0.732308030128479
1732873990872159200,9.0021591796875,-2.6308741569519043,-1.1923141479492188,-0.4059382379055023
1732873990882169000,9.012169189453125,-4.9758195877075195,-0.7497944831848145,-0.0681988000869751
1732873990892148200,9.022148193359374,-7.568645477294922,-0.3983290195465088,0.46364328265190125
1732873990902157800,9.03215771484375,-9.536796569824219,-0.23941779136657715,0.7382220029830933
1732873990912167700,9.042167724609374,-10.394510269165039,-0.6021561622619629,0.5034294724464417
1732873990922146800,9.052146728515625,-9.571454048156738,-1.0743050575256348,0.06981408596038818
1732873990932156700,9.06215673828125,-7.009177207946777,-1.6907541751861572,-0.6847038865089417
1732873990942166500,9.07216650390625,-3.791402816772461,-2.104951858520508,-1.3011813163757324
1732873990952146000,9.08214599609375,-1.1034154891967773,-2.5284008979797363,-1.621216893196106
1732873990962155500,9.092155517578124,1.0824804306030273,-2.5779287815093994,-1.9513921737670898
1732873990972165400,9.102165283203124,2.6244516372680664,-2.3904812335968018,-1.6103715896606445
1732873990982144500,9.11214453125,3.3747406005859375,-2.100743055343628,-1.2199475765228271
1732873990992154400,9.122154296875,3.202521324157715,-1.8322194814682007,-0.6985913515090942
1732873991002164000,9.1321640625,2.0660762786865234,-1.3467190265655518,-0.6708022356033325
1732873991012143400,9.142143310546874,0.9985055923461914,-0.8849549293518066,-0.5823208093643188
1732873991022153200,9.1521533203125,-0.06550312042236328,-0.381011962890625,-0.3623988628387451
1732873991032162800,9.162162841796874,-0.8629074096679688,0.012116193771362305,-0.05406230688095093
1732873991042142200,9.17214208984375,-1.5254096984863281,0.20340323448181152,0.15083901584148407
1732873991052151800,9.18215185546875,-1.8828129768371582,0.29730701446533203,0.17247721552848816
1732873991062161700,9.19216162109375,-1.9417810440063477,0.39179348945617676,0.042179107666015625
1732873991072171500,9.202171630859375,-1.7801427841186523,0.32602906227111816,-0.0517253577709198
1732873991082150700,9.212150634765624,-1.554649829864502,0.21431684494018555,-0.011397510766983032
1732873991092160500,9.222160400390624,-1.289815902709961,0.0810704231262207,-0.01767978072166443
1732873991102170000,9.232170166015624,-1.0735139846801758,0.0026917457580566406,-0.09605321288108826
1732873991112149500,9.2421494140625,-0.7876386642456055,-0.0761871337890625,-0.114338219165802
1732873991122159000,9.2521591796875,-0.5249805450439453,-0.04974818229675293,-0.29846394062042236
1732873991132169000,9.2621689453125,-0.2301340103149414,-0.03169894218444824,-0.41080373525619507
1732873991142148000,9.272148193359374,-0.2212047576904297,0.009927749633789062,-0.42527639865875244
1732873991152158000,9.282157958984374,-0.25623512268066406,0.08861613273620605,-0.48968440294265747
1732873991162167800,9.292167724609374,-0.30106639862060547,0.23037934303283691,-0.5375307202339172
1732873991172147000,9.30214697265625,-0.3591146469116211,0.4035003185272217,-0.5825874209403992
1732873991182156800,9.31215673828125,-0.2847414016723633,0.5235230922698975,-0.5749353170394897
1732873991192166400,9.32216650390625,-0.13097763061523438,0.5871725082397461,-0.5555907487869263
1732873991202145500,9.3321455078125,0.2214527130126953,0.6201961040496826,-0.6535288691520691
1732873991212155400,9.3421552734375,0.7504568099975586,0.4691472053527832,-0.6383588314056396
1732873991222165200,9.352165283203124,1.4712419509887695,0.17366361618041992,-0.2812868654727936
1732873991232144600,9.36214453125,2.1878862380981445,0.04436182975769043,-0.06896132230758667
1732873991242154200,9.372154296875,2.947037696838379,0.00887441635131836,0.20220528542995453
1732873991252164000,9.3821640625,3.3423194885253906,0.18657279014587402,0.3172849118709564
1732873991262143500,9.3921435546875,3.479663848876953,0.211320161819458,0.41292834281921387
1732873991272153000,9.402153076171874,3.526948928833008,0.1537322998046875,0.5216261744499207
1732873991282163000,9.412162841796874,3.6896324157714844,-0.22714495658874512,1.1228703260421753
1732873991292142000,9.42214208984375,3.8645448684692383,-0.36316728591918945,1.7673438787460327
1732873991302151700,9.432151611328125,3.7858896255493164,0.054428815841674805,1.237473964691162
1732873991312161500,9.44216162109375,3.83182430267334,0.5145769119262695,1.1566662788391113
1732873991322171400,9.45217138671875,3.3594436645507812,0.6763584613800049,1.3073761463165283
1732873991332150500,9.462150634765624,2.5612258911132812,0.2180919647216797,1.5601874589920044
1732873991342160400,9.472160400390624,1.9755468368530273,-0.7943872213363647,1.7801923751831055
1732873991352170200,9.482170166015624,2.007659912109375,-1.9982967376708984,1.792901635169983
1732873991362149600,9.492149658203125,2.394102096557617,-2.635483503341675,1.5665881633758545
1732873991372159200,9.5021591796875,2.607478141784668,-3.0673317909240723,1.4527314901351929
1732873991382168800,9.5121689453125,2.2356510162353516,-3.2219316959381104,1.6140129566192627
1732873991392148200,9.522148193359374,1.335616111755371,-3.0811767578125,2.1545872688293457
1732873991402157800,9.53215771484375,-0.035488128662109375,-2.7429449558258057,2.7230522632598877
1732873991412167700,9.542167724609374,-1.3290786743164062,-2.272292375564575,2.9258880615234375
1732873991422147000,9.55214697265625,-2.7401113510131836,-1.7774766683578491,2.6868319511413574
1732873991432156700,9.56215673828125,-3.80863618850708,-1.4232738018035889,2.440441131591797
1732873991442166500,9.57216650390625,-4.466734886169434,-1.2927253246307373,1.7337507009506226
1732873991452146000,9.58214599609375,-4.091790676116943,-1.5702929496765137,1.2102140188217163
1732873991462155500,9.592155517578124,-2.8351478576660156,-1.8723950386047363,0.5761185884475708
1732873991472165400,9.602165283203124,-1.2427120208740234,-2.0548856258392334,-0.14163359999656677
1732873991482144500,9.61214453125,0.7004423141479492,-2.151684284210205,-0.7032070755958557
1732873991492154400,9.622154296875,1.8836345672607422,-2.2416372299194336,-1.029847502708435
1732873991502164200,9.632164306640625,1.8268346786499023,-2.214548349380493,-1.2571251392364502
1732873991512143400,9.642143310546874,0.814030647277832,-1.9457921981811523,-1.2647231817245483
1732873991522153000,9.652153076171874,-0.5586442947387695,-1.7077763080596924,-0.9683338403701782
1732873991532162800,9.662162841796874,-2.050722122192383,-1.3822802305221558,-0.4836089015007019
1732873991542142000,9.672141845703125,-3.0238561630249023,-1.1114321947097778,-0.08150225877761841
1732873991552151800,9.68215185546875,-3.6534276008605957,-0.9636185169219971,0.17800381779670715
1732873991562161700,9.69216162109375,-3.525298595428467,-0.6317493915557861,0.15818437933921814
1732873991572171500,9.702171630859375,-2.9640612602233887,-0.2792482376098633,0.002314627170562744
1732873991582150700,9.712150634765624,-2.454916477203369,-0.040303945541381836,-0.22938048839569092
1732873991592160500,9.722160400390624,-1.9957976341247559,0.268322229385376,-0.47243088483810425
1732873991602170400,9.73217041015625,-1.588879108428955,0.453838586807251,-0.5053232312202454
1732873991612149200,9.742149169921875,-1.378565788269043,0.477236270904541,-0.5307953357696533
1732873991622159000,9.7521591796875,-1.2038002014160156,0.3937346935272217,-0.4173181653022766
1732873991632169000,9.7621689453125,-0.9117012023925781,0.34104037284851074,-0.22157514095306396
1732873991642148400,9.7721484375,-0.6851930618286133,0.22426080703735352,-0.06700539588928223
1732873991652158000,9.782157958984374,-0.3023872375488281,0.06019711494445801,0.16873130202293396
1732873991662167800,9.792167724609374,0.20742130279541016,-0.14683961868286133,0.5419819951057434
1732873991672147000,9.80214697265625,0.6689233779907227,-0.29828596115112305,0.8909780979156494
1732873991682156800,9.81215673828125,1.1398391723632812,-0.38669848442077637,1.2289663553237915
1732873991692166400,9.82216650390625,1.3705472946166992,-0.3861815929412842,1.047472357749939
1732873991702145800,9.832145751953124,1.291560173034668,-0.3702127933502197,0.9028195142745972
1732873991712155400,9.8421552734375,1.1633262634277344,-0.3674628734588623,0.8798015117645264
1732873991722165200,9.852165283203124,1.0657453536987305,-0.2383708953857422,1.0134857892990112
1732873991732144600,9.86214453125,1.0067577362060547,-0.03256869316101074,1.2269394397735596
1732873991742154200,9.872154296875,0.8449440002441406,0.13943696022033691,1.2233750820159912
1732873991752164000,9.8821640625,0.6747245788574219,0.27039217948913574,1.2713671922683716
1732873991762143500,9.8921435546875,0.32797908782958984,0.654686689376831,1.2582025527954102
1732873991772153000,9.902153076171874,-0.35907649993896484,0.9824926853179932,1.3268102407455444
1732873991782162700,9.91216259765625,-0.7684736251831055,1.0407938957214355,1.5505928993225098
1732873991792142000,9.92214208984375,-1.0346965789794922,0.9419195652008057,1.2875556945800781
1732873991802151700,9.932151611328125,-0.641657829284668,0.5390994548797607,1.0559357404708862
1732873991812161500,9.94216162109375,0.5160303115844727,-0.16913819313049316,0.7591525316238403
1732873991822171400,9.95217138671875,2.0612564086914062,-0.5795226097106934,-0.0697488784790039
1732873991832150500,9.962150634765624,3.752366065979004,-0.8866457939147949,-1.0585498809814453
1732873991842160400,9.972160400390624,5.557344436645508,-0.9807206392288208,-1.4369101524353027
1732873991852170200,9.982170166015624,6.330431938171387,-0.6664291620254517,-1.6210275888442993
1732873991862149400,9.9921494140625,5.745301246643066,-0.13976812362670898,-1.6421291828155518
1732873991872159200,10.0021591796875,4.065155029296875,0.3406076431274414,-1.048539400100708
1732873991882169000,10.012169189453125,2.2776975631713867,0.4018583297729492,-0.3984105885028839
1732873991892148200,10.022148193359374,1.3198070526123047,-0.15685534477233887,-0.3840709328651428
1732873991902157800,10.03215771484375,1.484034538269043,-1.1670342683792114,-0.3962056636810303
1732873991912167700,10.042167724609374,2.2770872116088867,-1.8567482233047485,-0.6451443433761597
1732873991922146800,10.052146728515625,2.983743667602539,-2.130096197128296,-1.1414539813995361
1732873991932156700,10.06215673828125,2.8148488998413086,-1.9528148174285889,-1.912049651145935
1732873991942166500,10.07216650390625,1.7842912673950195,-1.584368348121643,-2.065706729888916
1732873991952146000,10.08214599609375,-0.2384471893310547,-1.265432357788086,-1.6623657941818237
1732873991962155500,10.092155517578124,-2.4322009086608887,-0.9201005697250366,-1.1675599813461304
1732873991972165400,10.102165283203124,-4.496493816375732,-0.5841672420501709,-0.7876612544059753
1732873991982144500,10.11214453125,-5.537969589233398,-0.5874288082122803,-0.6217682361602783
1732873991992154400,10.122154296875,-5.329348087310791,-0.8001489639282227,-0.5729919075965881
1732873992002164200,10.132164306640625,-4.269204616546631,-1.0817757844924927,-0.6771106719970703
1732873992012143400,10.142143310546874,-2.7031021118164062,-1.50002121925354,-0.912509560585022
1732873992022153000,10.152153076171874,-1.273961067199707,-1.7980742454528809,-1.202775478363037
1732873992032162800,10.162162841796874,0.2310953140258789,-2.2200722694396973,-1.1110622882843018
1732873992042142200,10.17214208984375,1.218043327331543,-2.409259080886841,-0.7241834402084351
1732873992052151800,10.18215185546875,1.4924259185791016,-2.418765068054199,-0.574095606803894
1732873992062161700,10.19216162109375,1.1063203811645508,-2.3420042991638184,-0.25748640298843384
1732873992072171500,10.202171630859375,0.5925531387329102,-2.095435380935669,0.2020850032567978
1732873992082151000,10.21215087890625,-0.3577136993408203,-1.6220428943634033,0.33325639367103577
1732873992092160500,10.222160400390624,-1.1375236511230469,-1.1644532680511475,0.46272778511047363
1732873992102170000,10.232170166015624,-1.85701322555542,-0.6411333084106445,0.5073596239089966
1732873992112149200,10.242149169921875,-2.4319515228271484,-0.23820042610168457,0.5893012285232544
1732873992122159000,10.2521591796875,-2.919121742248535,0.07975363731384277,0.5871642827987671
1732873992132169000,10.2621689453125,-3.070406436920166,0.23957037925720215,0.534717857837677
1732873992142148400,10.2721484375,-2.925210952758789,0.3412330150604248,0.3695114254951477
1732873992152158000,10.282157958984374,-2.683046817779541,0.41399049758911133,0.07698218524456024
1732873992162167800,10.292167724609374,-2.320441722869873,0.41405272483825684,-0.2076699584722519
1732873992172147000,10.30214697265625,-1.8494677543640137,0.15259575843811035,-0.4617187976837158
1732873992182156800,10.31215673828125,-1.210728645324707,0.03602957725524902,-0.5629534721374512
1732873992192166400,10.32216650390625,-0.7327146530151367,-0.033597469329833984,-0.5638778209686279
1732873992202145800,10.332145751953124,-0.5652589797973633,-0.11048030853271484,-0.38871169090270996
1732873992212155400,10.3421552734375,-0.4948568344116211,-0.19637107849121094,-0.4207618832588196
1732873992222165200,10.352165283203124,-0.28705692291259766,-0.1708846092224121,-0.5636885762214661
1732873992232144600,10.36214453125,-0.04273033142089844,-0.1668415069580078,-0.703711211681366
1732873992242154200,10.372154296875,0.17394638061523438,-0.22808074951171875,-0.7129863500595093
1732873992252164000,10.3821640625,0.33799171447753906,-0.08925771713256836,-0.6428853273391724
1732873992262143500,10.3921435546875,0.034313201904296875,-0.03399944305419922,-0.5675247311592102
1732873992272153300,10.4021533203125,0.09886646270751953,-0.007158756256103516,0.1739080548286438
1732873992282163000,10.412162841796874,0.4755830764770508,-0.05626654624938965,0.37892946600914
1732873992292141800,10.422141845703125,1.0328712463378906,-0.21175265312194824,0.5655970573425293
1732873992302151700,10.432151611328125,1.9087505340576172,-0.3346712589263916,0.8261945247650146
1732873992312161500,10.44216162109375,2.557858467102051,-0.2502305507659912,0.8064601421356201
1732873992322171400,10.45217138671875,3.02382755279541,0.10862302780151367,0.3516586124897003
1732873992332150800,10.46215087890625,3.148190498352051,0.1513841152191162,-0.019271016120910645
1732873992342160400,10.472160400390624,3.271728515625,-0.07925105094909668,0.00589752197265625
1732873992352170200,10.482170166015624,3.4396324157714844,-0.25951290130615234,0.2920549809932709
1732873992362149600,10.492149658203125,3.6439857482910156,-0.24366474151611328,0.4657006561756134
1732873992372159200,10.5021591796875,3.5756454467773438,0.04871249198913574,0.4059296250343323
1732873992382168800,10.5121689453125,3.3161916732788086,0.3660721778869629,0.560950756072998
1732873992392148200,10.522148193359374,2.702739715576172,0.20594286918640137,0.9713602066040039
1732873992402157800,10.53215771484375,2.1912918090820312,-0.5601074695587158,1.2055964469909668
1732873992412167700,10.542167724609374,2.1799755096435547,-1.815710186958313,0.9021468162536621
1732873992422147000,10.55214697265625,3.0149049758911133,-2.657935857772827,0.4928642511367798
1732873992432156700,10.56215673828125,4.146453857421875,-3.0641274452209473,-0.07041662931442261
1732873992442166500,10.57216650390625,4.438149452209473,-2.9067726135253906,-0.48903754353523254
1732873992452146000,10.58214599609375,3.5659141540527344,-2.5288777351379395,-0.5050088167190552
1732873992462155500,10.592155517578124,1.8180246353149414,-2.1290576457977295,-0.025256365537643433
1732873992472165400,10.602165283203124,-0.4307842254638672,-1.6375575065612793,1.5353519916534424
1732873992482144800,10.612144775390625,-2.772639274597168,-1.0762134790420532,2.0194571018218994
1732873992492154400,10.622154296875,-4.92037296295166,-0.5313137769699097,2.0671300888061523
1732873992502164200,10.632164306640625,-5.7247161865234375,-0.3275032043457031,2.266284465789795
1732873992512143400,10.642143310546874,-5.475000381469727,-0.6518441438674927,2.527069091796875
1732873992522153000,10.652153076171874,-4.30077600479126,-0.9348667860031128,2.08845853805542
1732873992532162800,10.662162841796874,-3.1507277488708496,-1.206002116203308,1.3913778066635132
1732873992542142200,10.67214208984375,-1.6977043151855469,-1.642782211303711,1.0513546466827393
1732873992552151800,10.68215185546875,-0.25973987579345703,-1.8396239280700684,1.0400803089141846
1732873992562161700,10.69216162109375,1.0263185501098633,-2.0133023262023926,0.5073112845420837
1732873992572171500,10.702171630859375,1.7851734161376953,-2.1613306999206543,0.26186603307724
1732873992582150700,10.712150634765624,2.1888809204101562,-2.2819266319274902,0.17071670293807983
1732873992592160500,10.722160400390624,2.092118263244629,-2.303719997406006,0.29749834537506104
1732873992602170400,10.73217041015625,1.5634632110595703,-2.14296555519104,0.5276772379875183
1732873992612149200,10.742149169921875,0.5677642822265625,-1.6967501640319824,0.6879103183746338
1732873992622159000,10.7521591796875,-0.3918142318725586,-1.2736303806304932,0.7230280637741089
1732873992632169000,10.7621689453125,-1.1326704025268555,-0.7986948490142822,0.7884485721588135
1732873992642148400,10.7721484375,-1.5458621978759766,-0.4553881883621216,0.7793370485305786
1732873992652158000,10.782157958984374,-1.7897720336914062,-0.2032376527786255,0.6260538697242737
1732873992662167800,10.792167724609374,-1.9482378959655762,-0.022483110427856445,0.48618003726005554
1732873992672147000,10.80214697265625,-2.034750461578369,0.1750495433807373,0.15242907404899597
1732873992682156800,10.81215673828125,-1.89121675491333,0.1192626953125,0.5168548226356506
1732873992692166400,10.82216650390625,-1.8145923614501953,0.06949710845947266,0.801018238067627
1732873992702145800,10.832145751953124,-1.563009262084961,0.06927776336669922,0.9548544883728027
1732873992712155400,10.8421552734375,-1.1344528198242188,0.011072874069213867,1.1047852039337158
1732873992722165200,10.852165283203124,-0.8331518173217773,-0.12219047546386719,1.1695433855056763
1732873992732144600,10.86214453125,-0.6659059524536133,-0.16749095916748047,1.200141429901123
1732873992742154200,10.872154296875,-0.5630826950073242,-0.17144489288330078,1.2247133255004883
1732873992752164000,10.8821640625,-0.4671440124511719,-0.15380597114562988,1.2640783786773682
1732873992762143500,10.8921435546875,-0.3471384048461914,-0.12850022315979004,1.3793686628341675
1732873992772153000,10.902153076171874,-0.2759075164794922,-0.017678022384643555,1.2293158769607544
1732873992782163000,10.912162841796874,-0.13863849639892578,0.17184710502624512,1.1090785264968872
1732873992792142000,10.92214208984375,0.03152656555175781,0.3835890293121338,0.8520389795303345
1732873992802151700,10.932151611328125,-0.02534961700439453,0.5350852012634277,0.5206078290939331
1732873992812161500,10.94216162109375,-0.2586812973022461,0.5533757209777832,0.281185507774353
1732873992822171400,10.95217138671875,-0.36232948303222656,0.6421012878417969,0.17719027400016785
1732873992832150500,10.962150634765624,-0.21404266357421875,0.48146653175354004,-0.056884944438934326
1732873992842160400,10.972160400390624,0.19817352294921875,0.36885881423950195,-0.2750385105609894
1732873992852170200,10.982170166015624,0.9644184112548828,0.08712959289550781,-0.39763393998146057
1732873992862149400,10.9921494140625,1.7140493392944336,-0.30601000785827637,-0.47187191247940063
1732873992872159200,11.0021591796875,2.5726728439331055,-0.5343921184539795,-0.721733808517456
1732873992882169000,11.012169189453125,3.44992733001709,-0.7560348510742188,-0.8463941812515259
1732873992892148200,11.022148193359374,4.122064590454102,-0.8875890970230103,-1.573246955871582
1732873992902157800,11.03215771484375,4.535926818847656,-0.8166056871414185,-1.7817063331604004
1732873992912167700,11.042167724609374,4.403358459472656,-0.6282141208648682,-1.723469853401184
1732873992922146800,11.052146728515625,3.794452667236328,-0.4721405506134033,-1.475649356842041
1732873992932156700,11.06215673828125,2.822765350341797,-0.7469253540039062,-1.1618151664733887
1732873992942166500,11.07216650390625,1.8873577117919922,-1.2994738817214966,-0.7843434810638428
1732873992952146000,11.08214599609375,1.5756378173828125,-1.7675676345825195,-0.8680315017700195
1732873992962155500,11.092155517578124,1.6245288848876953,-2.039872884750366,-1.3623473644256592
1732873992972165400,11.102165283203124,1.7768573760986328,-2.087219715118408,-1.830641508102417
1732873992982144800,11.112144775390625,1.5329132080078125,-1.9018614292144775,-2.04018235206604
1732873992992154400,11.122154296875,0.8620271682739258,-1.6835663318634033,-2.188765525817871
1732873993002164200,11.132164306640625,-0.2584104537963867,-1.4072750806808472,-2.067281484603882
1732873993012143400,11.142143310546874,-1.574460506439209,-1.1253869533538818,-1.8100476264953613
1732873993022153000,11.152153076171874,-3.03525972366333,-1.178702473640442,-1.555116057395935
1732873993032162800,11.162162841796874,-3.731846332550049,-1.4881762266159058,-1.477902889251709
1732873993042142200,11.17214208984375,-3.2396202087402344,-1.7962738275527954,-1.5428528785705566
1732873993052151800,11.18215185546875,-2.1426591873168945,-2.0186147689819336,-1.6489330530166626
1732873993062161700,11.19216162109375,-1.185826301574707,-2.1798086166381836,-1.9124469757080078
1732873993072171500,11.202171630859375,-0.14994049072265625,-2.2900469303131104,-2.0919172763824463
1732873993082151000,11.21215087890625,0.7975606918334961,-2.4270365238189697,-2.007319211959839
1732873993092160500,11.222160400390624,1.5368852615356445,-2.318443536758423,-1.8204485177993774
1732873993102170000,11.232170166015624,1.6108331680297852,-2.0051045417785645,-1.7771402597427368
1732873993112149500,11.2421494140625,1.104701042175293,-1.5821919441223145,-1.5536081790924072
1732873993122159000,11.2521591796875,0.1774921417236328,-1.2103089094161987,-1.2435880899429321
1732873993132169000,11.2621689453125,-1.0404653549194336,-0.8936856985092163,-1.076220989227295
1732873993142148400,11.2721484375,-1.9091014862060547,-0.6140668392181396,-0.7769389152526855
1732873993152158000,11.282157958984374,-2.551396369934082,-0.3223855495452881,-0.4982921779155731
1732873993162167800,11.292167724609374,-2.894256114959717,-0.14732611179351807,-0.2812567949295044
1732873993172147200,11.302147216796875,-2.8259267807006836,-0.07773256301879883,-0.3231799602508545
1732873993182156800,11.31215673828125,-2.4592299461364746,-0.041745901107788086,-0.5099467635154724
1732873993192166400,11.32216650390625,-1.8491649627685547,-0.031857967376708984,-0.747766375541687
1732873993202145800,11.332145751953124,-1.2276039123535156,-0.04954695701599121,-0.9774038791656494
1732873993212155400,11.3421552734375,-0.8617534637451172,-0.04351234436035156,-1.2130719423294067
1732873993222165200,11.352165283203124,-0.6336164474487305,0.001311659812927246,-1.3254027366638184
1732873993232144400,11.362144287109375,-0.5597724914550781,-0.05281233787536621,-1.3205113410949707
1732873993242154200,11.372154296875,-0.420013427734375,-0.05953848361968994,-1.3085283041000366
1732873993252564700,11.382564697265625,-0.23508644104003906,-0.0792837142944336,-1.3032002449035645
1732873993262516700,11.392516845703126,-0.1768808364868164,-0.1926935911178589,-1.1883939504623413
1732873993272526600,11.402526611328126,0.02022552490234375,-0.3174351453781128,-1.0607702732086182
1732873993282536200,11.4125361328125,0.3030710220336914,-0.33730077743530273,-1.068833589553833
1732873993292515300,11.422515380859375,0.4234170913696289,-0.36855483055114746,-1.1036643981933594
1732873993302525200,11.432525146484375,0.4533195495605469,-0.32375049591064453,-1.0860676765441895
1732873993312535000,11.44253515625,0.40018367767333984,-0.06201016902923584,-0.5932813882827759
1732873993322545000,11.452544921875,0.3263883590698242,0.1260775327682495,-0.23741868138313293
1732873993332524000,11.46252392578125,0.26992321014404297,0.28131580352783203,-0.027217090129852295
1732873993342534000,11.472533935546876,0.37865447998046875,0.4088689088821411,0.02459895610809326
1732873993352543500,11.48254345703125,0.6231069564819336,0.4272031784057617,-0.015456199645996094
1732873993362522600,11.492522705078125,1.0387077331542969,0.279025673866272,0.09417423605918884
1732873993372532500,11.502532470703125,1.4142379760742188,0.7189748287200928,-0.3299487233161926
1732873993382542300,11.512542236328125,1.6933574676513672,0.5813676118850708,-0.4306883215904236
1732873993392521700,11.522521728515626,1.7448091506958008,0.0032538175582885742,-0.1098405122756958
1732873993402531300,11.53253125,2.176694869995117,-0.656889796257019,0.5228371620178223
1732873993412541200,11.542541259765626,2.86165714263916,-1.1123762130737305,0.8942782878875732
1732873993422520600,11.5525205078125,3.562514305114746,-1.1110870838165283,0.7164318561553955
1732873993432530200,11.5625302734375,4.02806282043457,-0.8118090629577637,0.26991721987724304
1732873993442539800,11.572539794921875,3.8169679641723633,-0.5913645029067993,0.08869308233261108
1732873993452519200,11.582519287109376,2.885171890258789,-0.7230830192565918,0.1582503765821457
1732873993462528800,11.59252880859375,1.7741727828979492,-1.268924355506897,0.2513464689254761
1732873993472538600,11.60253857421875,1.2274742126464844,-2.0071887969970703,0.44910168647766113
1732873993482517800,11.612517822265625,1.5040283203125,-2.457834243774414,0.5214468240737915
1732873993492527600,11.622527587890625,2.219315528869629,-2.503371238708496,0.6797857284545898
1732873993502537500,11.632537353515625,2.388080596923828,-2.4023852348327637,1.0179880857467651
1732873993512516900,11.642516845703126,1.5633735656738281,-1.9996068477630615,1.3465449810028076
1732873993522526500,11.6525263671875,0.054892539978027344,-1.7438292503356934,1.727830410003662
1732873993532536300,11.662536376953126,-1.8264102935791016,-1.3846501111984253,2.010148048400879
1732873993542515500,11.672515380859375,-3.0748019218444824,-0.9801148176193237,2.0904226303100586
1732873993552525000,11.682525146484375,-3.5786304473876953,-0.8666777610778809,2.053689956665039
1732873993562535000,11.692534912109375,-3.1470680236816406,-0.901087760925293,1.8141390085220337
1732873993572544800,11.702544677734375,-1.9375848770141602,-1.218825340270996,1.581437110900879
1732873993582524000,11.71252392578125,-0.2349109649658203,-1.5683176517486572,1.322751760482788
1732873993592533800,11.72253369140625,1.2325000762939453,-1.7345964908599854,1.0134835243225098
1732873993602543600,11.732543701171876,2.218693733215332,-1.7933118343353271,0.5821751356124878
1732873993612522800,11.742522705078125,2.2977523803710938,-1.80326247215271,0.5021582841873169
1732873993622532600,11.75253271484375,1.667989730834961,-1.735530972480774,0.5097869634628296
1732873993632542200,11.762542236328125,0.883976936340332,-1.3530104160308838,0.5227136611938477
1732873993642521600,11.772521484375,-0.4613161087036133,-1.004328727722168,0.7247605323791504
1732873993652531200,11.78253125,-1.722367286682129,-0.6390230655670166,0.6698253154754639
1732873993662541000,11.792541015625,-2.8594436645507812,-0.20712578296661377,0.2768341600894928
1732873993672520200,11.802520263671875,-3.6250624656677246,0.07201933860778809,-0.017686903476715088
1732873993682530000,11.812530029296875,-4.219175815582275,0.3292466402053833,-0.1373496949672699
1732873993692540000,11.822539794921875,-4.462764263153076,0.49116063117980957,-0.08839157223701477
1732873993702519300,11.832519287109376,-4.351475715637207,0.6489486694335938,-0.011525094509124756
1732873993712529000,11.84252880859375,-3.911975860595703,0.6268647909164429,0.26075828075408936
1732873993722538800,11.852538818359376,-3.2366132736206055,0.5157219171524048,0.49395981431007385
1732873993732518000,11.862517822265625,-2.2617859840393066,0.32571375370025635,0.6711138486862183
1732873993742527700,11.87252783203125,-1.3532514572143555,0.20494866371154785,0.8842765092849731
1732873993752537300,11.882537353515625,-0.44557952880859375,0.048982977867126465,0.8262404203414917
1732873993762516700,11.892516845703126,0.20873355865478516,-0.03857827186584473,0.7444632053375244
1732873993772526300,11.9025263671875,0.770787239074707,-0.10518240928649902,0.788763701915741
1732873993782536200,11.9125361328125,0.9731636047363281,-0.14301073551177979,0.9030114412307739
1732873993792515600,11.922515625,0.792292594909668,-0.1887277364730835,1.085852861404419
1732873993802525200,11.932525146484375,0.3558530807495117,-0.20551276206970215,1.372171401977539
1732873993812535000,11.94253515625,-0.18204402923583984,-0.15122592449188232,1.5365043878555298
1732873993822545000,11.952544921875,-0.7762947082519531,-0.05419921875,1.6732250452041626
1732873993832524000,11.96252392578125,-1.3001136779785156,0.0910872220993042,1.9510853290557861
1732873993842534000,11.972533935546876,-1.7952494621276855,0.2718989849090576,2.079963445663452
1732873993852543700,11.982543701171876,-1.9032917022705078,0.41789698600769043,2.08135724067688
1732873993862522600,11.992522705078125,-1.6323614120483398,0.4434880018234253,2.07392954826355
1732873993872532500,12.002532470703125,-1.0588569641113281,0.5215581655502319,2.0299644470214844
1732873993882542300,12.012542236328125,-0.04765510559082031,0.5291924476623535,1.7002580165863037
1732873993892521700,12.022521728515626,1.1979084014892578,0.36992573738098145,1.2414889335632324
1732873993902531300,12.03253125,2.5966663360595703,0.17051994800567627,0.8898584842681885
1732873993912541200,12.042541259765626,3.890852928161621,0.09663224220275879,0.3223349153995514
1732873993922520300,12.052520263671875,4.794828414916992,0.33259475231170654,-0.3004686236381531
1732873993932530200,12.0625302734375,5.345822334289551,0.5508404970169067,-0.7042890787124634
1732873993942539800,12.072539794921875,5.328478813171387,0.4979351758956909,-0.5384986996650696
1732873993952519200,12.082519287109376,5.108249664306641,0.4213348627090454,-0.14070671796798706
1732873993962528800,12.09252880859375,4.9120283126831055,0.5406625270843506,0.17878136038780212
1732873993972538600,12.10253857421875,4.442138671875,0.5476983785629272,0.1957966685295105
1732873993982518000,12.11251806640625,3.9997119903564453,0.4348791837692261,0.4722273349761963
1732873993992527600,12.122527587890625,3.7061548233032227,-0.10115587711334229,0.24468548595905304
1732873994002537500,12.132537353515625,3.4963159561157227,-1.052065134048462,0.40030336380004883
1732873994012516900,12.142516845703126,3.3508338928222656,-2.4466023445129395,0.4868769645690918
1732873994022526700,12.152526611328126,3.171553611755371,-3.2802019119262695,-0.04687979817390442
1732873994032536300,12.162536376953126,2.8565187454223633,-3.2950658798217773,-1.3630551099777222
1732873994042515500,12.172515380859375,2.2574195861816406,-2.8466854095458984,-2.283088207244873
1732873994052525000,12.182525146484375,1.4804134368896484,-2.2053170204162598,-1.6419516801834106
1732873994062535000,12.192534912109375,0.06495475769042969,-1.6153900623321533,-0.9240309596061707
1732873994072544800,12.202544677734375,-1.7313055992126465,-1.103100299835205,-0.7486237287521362
1732873994082524000,12.21252392578125,-4.197414398193359,-0.7361979484558105,-0.48382148146629333
1732873994092533800,12.22253369140625,-5.9868059158325195,-0.5697038173675537,-0.3554384708404541
1732873994102543600,12.232543701171876,-7.057478427886963,-0.618911862373352,-0.3072417378425598
1732873994112523000,12.24252294921875,-6.906254768371582,-0.9077059030532837,-0.34430408477783203
1732873994122532600,12.25253271484375,-5.575164318084717,-1.2651605606079102,-0.48753821849823
1732873994132542200,12.262542236328125,-3.151510715484619,-1.5393409729003906,-0.6495063900947571
1732873994142521300,12.272521240234376,-0.8641576766967773,-1.9276378154754639,-0.7024437785148621
1732873994152531200,12.28253125,1.099593162536621,-2.1436924934387207,-0.5026270151138306
1732873994162541000,12.292541015625,1.9696483612060547,-2.1392934322357178,-0.2514088451862335
1732873994172520400,12.3025205078125,2.0033445358276367,-2.0303728580474854,0.14100085198879242
1732873994182530000,12.312530029296875,1.4337186813354492,-1.887923240661621,0.5424076914787292
1732873994192540000,12.322539794921875,0.6249790191650391,-1.566364049911499,0.6791807413101196
1732873994202519000,12.33251904296875,-0.138397216796875,-1.2356281280517578,0.7312960028648376
1732873994212529000,12.34252880859375,-0.8373584747314453,-0.7895927429199219,0.6110024452209473
1732873994222538800,12.352538818359376,-1.2620840072631836,-0.4773176908493042,0.660629153251648
1732873994232518000,12.362517822265625,-1.6286096572875977,-0.23091351985931396,0.6359191536903381
1732873994242527700,12.37252783203125,-1.7863554954528809,-0.05818331241607666,0.6965485215187073
1732873994252537300,12.382537353515625,-1.9009661674499512,0.047957539558410645,0.7230308651924133
1732873994262516700,12.392516845703126,-1.9511737823486328,0.218025803565979,0.591794490814209
1732873994272526300,12.4025263671875,-1.965998649597168,0.38136982917785645,0.395743191242218
1732873994282536200,12.4125361328125,-1.892941951751709,0.473797082901001,0.21371527016162872
1732873994292515600,12.422515625,-1.9116039276123047,0.4857977628707886,0.04114179313182831
1732873994302525200,12.432525146484375,-1.5478734970092773,0.371684193611145,-0.20199289917945862
1732873994312535000,12.44253515625,-1.1875982284545898,0.30434679985046387,-0.2094975858926773
1732873994322545000,12.452544921875,-0.8681735992431641,0.3171272277832031,-0.35148656368255615
1732873994332524000,12.46252392578125,-0.555607795715332,0.32623112201690674,-0.5679062008857727
1732873994342534000,12.472533935546876,-0.26154518127441406,0.2174009084701538,-0.5793344378471375
1732873994352543500,12.48254345703125,0.18896770477294922,0.1564253568649292,-0.46361008286476135
1732873994362523000,12.49252294921875,0.5587148666381836,-0.12122738361358643,-0.15101590752601624
1732873994372532500,12.502532470703125,0.6512031555175781,0.07226896286010742,-0.31211885809898376
1732873994382542300,12.512542236328125,0.9812507629394531,0.08735275268554688,0.06609958410263062
1732873994392521700,12.522521728515626,1.0770721435546875,-0.07316923141479492,0.3854256570339203
1732873994402531300,12.53253125,1.2951021194458008,-0.18588721752166748,0.4466589391231537
1732873994412541200,12.542541259765626,1.7449378967285156,-0.22098946571350098,0.3259449899196625
1732873994422520600,12.5525205078125,2.2153053283691406,-0.2539559602737427,0.16334423422813416
1732873994432530200,12.5625302734375,2.840458869934082,0.002188563346862793,0.0026637017726898193
1732873994442539800,12.572539794921875,3.259550094604492,0.26693403720855713,-0.06032663583755493
1732873994452519200,12.582519287109376,3.3492345809936523,0.25966477394104004,0.07879595458507538
1732873994462528800,12.59252880859375,3.082892417907715,-0.22817230224609375,0.5225673317909241
1732873994472538600,12.60253857421875,2.971817970275879,-0.7804018259048462,0.9679915308952332
1732873994482517800,12.612517822265625,3.0984935760498047,-0.8356881141662598,1.5601282119750977
1732873994492527600,12.622527587890625,3.33963680267334,-0.6234979629516602,1.5898808240890503
1732873994502537500,12.632537353515625,3.335651397705078,-0.2850557565689087,1.190293788909912
1732873994512516900,12.642516845703126,2.9838314056396484,-0.3292548656463623,1.1759648323059082
1732873994522526500,12.6525263671875,2.370960235595703,-1.0055094957351685,1.3204398155212402
1732873994532536300,12.662536376953126,2.093123435974121,-1.9068740606307983,1.1567533016204834
1732873994542515200,12.67251513671875,2.5083913803100586,-2.5847628116607666,0.8193594813346863
1732873994552525000,12.682525146484375,3.051791191101074,-2.7825562953948975,0.6941285729408264
1732873994562535000,12.692534912109375,2.8802452087402344,-2.815495491027832,1.064270257949829
