time,seconds_elapsed,z,y,x
1732873982082732000,0.21273193359375,-0.12828169763088226,0.06475171446800232,0.0708603709936142
1732873982092720400,0.222720458984375,-0.12400564551353455,0.05497787147760391,-0.02871066704392433
1732873982102751700,0.232751708984375,-0.09896016865968704,0.033597588539123535,-0.10934487730264664
1732873982112709000,0.242709228515625,-0.07147123664617538,0.03237585723400116,-0.16554448008537292
1732873982122740200,0.252740234375,-0.048258353024721146,0.03726277872920036,-0.1966986060142517
1732873982132728800,0.262728759765625,-0.02626720629632473,0.04703662544488907,-0.2119702398777008
1732873982142729200,0.272729248046875,-0.029932396486401558,0.028099801391363144,-0.20952677726745605
1732873982152717800,0.2827177734375,-0.04214970022439957,-0.012828170321881771,-0.20586158335208893
1732873982162749400,0.29274951171875,-0.06352998316287994,-0.06719517707824707,-0.20525072515010834
1732873982172706800,0.302706787109375,-0.09651670604944229,-0.11789698898792267,-0.2125810980796814
1732873982182738700,0.31273876953125,-0.13439035415649414,-0.16982053220272064,-0.2217440903186798
1732873982192726300,0.322726318359375,-0.17531833052635193,-0.2119702398777008,-0.2223549485206604
1732873982202726700,0.3327265625,-0.18936823308467865,-0.22968533635139465,-0.20097467303276062
1732873982212715300,0.34271533203125,-0.1569923609495163,-0.21380282938480377,-0.16737708449363708
1732873982222747100,0.3527470703125,-0.10873401165008545,-0.18875735998153687,-0.12217304855585098
1732873982232704500,0.36270458984375,-0.06169738993048668,-0.16004669666290283,-0.0708603709936142
1732873982242736000,0.372736083984375,-0.024434609338641167,-0.12828169763088226,-0.021380282938480377
1732873982252724000,0.382723876953125,0.0024434609804302454,-0.09896016865968704,0.022602014243602753
1732873982262724900,0.392724853515625,0.02076941914856434,-0.07819075137376785,0.04764748737215996
1732873982272713000,0.402712890625,0.0403171069920063,-0.05497787147760391,0.05803219974040985
1732873982282744000,0.412744140625,0.04764748737215996,-0.04092797264456749,0.06352998316287994
1732873982292702000,0.422701904296875,0.05314527451992035,-0.027488935738801956,0.06841690838336945
1732873982302733000,0.432733154296875,0.05314527451992035,-0.021380282938480377,0.07819075137376785
1732873982312721400,0.442721435546875,0.04948008432984352,-0.02321287989616394,0.09162978827953339
1732873982322752500,0.45275244140625,0.042760565876960754,-0.031154127791523933,0.09773843735456467
1732873982332710400,0.46271044921875,0.03298672288656235,-0.04459316283464432,0.09162978827953339
1732873982342741500,0.472741455078125,0.02076941914856434,-0.05009094998240471,0.07513642311096191
1732873982352730000,0.482730224609375,0.01771509274840355,-0.036041051149368286,0.0507018156349659
1732873982362730500,0.49273046875,0.018936822190880775,-0.025656340643763542,0.04459316283464432
1732873982372719000,0.502718994140625,0.02015855349600315,-0.025656340643763542,0.04092797264456749
1732873982382750200,0.512750244140625,0.02015855349600315,-0.030543262138962746,0.04337143152952194
1732873982392708000,0.5227080078125,0.016493361443281174,-0.025656340643763542,0.0403171069920063
1732873982402739200,0.5327392578125,0.01038470957428217,-0.02626720629632473,0.039095375686883926
1732873982412727600,0.5427275390625,0.007941247895359993,-0.029932396486401558,0.03420845419168472
1732873982422728000,0.55272802734375,0.021380282938480377,-0.009773843921720982,0.033597588539123535
1732873982432716500,0.562716552734375,0.03237585723400116,0.003054326167330146,0.036041051149368286
1732873982442747600,0.57274755859375,0.04153883829712868,0.007941247895359993,0.04153883829712868
1732873982452705500,0.58270556640625,0.04703662544488907,0.01160643994808197,0.048258353024721146
1732873982462736600,0.592736572265625,0.0507018156349659,0.01710422709584236,0.0507018156349659
1732873982472725200,0.602725341796875,0.04703662544488907,0.016493361443281174,0.04948008432984352
1732873982482726000,0.612725830078125,0.03481931984424591,0.007941247895359993,0.04337143152952194
1732873982492714200,0.62271435546875,0.007941247895359993,0.0024434609804302454,0.033597588539123535
1732873982502744800,0.632744873046875,-0.00427605677396059,0.0024434609804302454,0.02932153269648552
1732873982512703500,0.642703369140625,-0.013439035043120384,0.003054326167330146,0.030543262138962746
1732873982522734300,0.652734375,-0.02076941914856434,0.00855211354792118,0.03787364438176155
1732873982532722700,0.66272265625,-0.02626720629632473,0.018936822190880775,0.04642575979232788
1732873982542723300,0.672723388671875,-0.025045474991202354,0.03176499158143997,0.05742133408784866
1732873982552712000,0.6827119140625,-0.018936822190880775,0.04703662544488907,0.06536258012056351
1732873982562742800,0.69274267578125,-0.009773843921720982,0.05864306539297104,0.07208210229873657
1732873982572731400,0.7027314453125,0.00366519158706069,0.060475658625364304,0.08185594528913498
1732873982582731800,0.712731689453125,0.009162978269159794,0.04642575979232788,0.0806342139840126
1732873982592718600,0.722718505859375,0.00855211354792118,0.021991148591041565,0.07024950534105301
1732873982602750500,0.73275048828125,0.006719517521560192,0,0.05009094998240471
1732873982612708400,0.742708251953125,0.0006108652451075613,-0.022602014243602753,0.02626720629632473
1732873982622739200,0.7527392578125,-0.009162978269159794,-0.04153883829712868,0.004886921960860491
1732873982632728000,0.76272802734375,-0.016493361443281174,-0.051312681287527084,-0.007941247895359993
1732873982642728400,0.772728515625,-0.028099801391363144,-0.054367005825042725,-0.018325956538319588
1732873982652716800,0.782716796875,-0.03298672288656235,-0.05192354694008827,-0.02382374368607998
1732873982662748000,0.792747802734375,-0.030543262138962746,-0.04214970022439957,-0.018936822190880775
1732873982672705800,0.802705810546875,-0.015882495790719986,-0.018936822190880775,0.0012217304902151227
1732873982682737000,0.81273681640625,0.003054326167330146,-0.00366519158706069,0.03237585723400116
1732873982692726300,0.822726318359375,0.01710422709584236,-0.009773843921720982,0.05253441259264946
1732873982702726700,0.8327265625,0.02687807008624077,-0.015882495790719986,0.060475658625364304
1732873982712715300,0.84271533203125,0.059864792972803116,-0.005497787147760391,0.051312681287527084
1732873982722746400,0.852746337890625,0.09040805697441101,0.007941247895359993,0.03481931984424591
1732873982732704300,0.862704345703125,0.12461651116609573,0.025045474991202354,0.027488935738801956
1732873982742735400,0.8727353515625,0.1612684279680252,0.039706241339445114,0.033597588539123535
1732873982752724000,0.882723876953125,0.18997909128665924,0.0507018156349659,0.04703662544488907
1732873982762724600,0.892724609375,0.21135938167572021,0.05497787147760391,0.05925392732024193
1732873982772713000,0.902712890625,0.2278527319431305,0.05314527451992035,0.06780604273080826
1732873982782744300,0.912744384765625,0.2382374405860901,0.04886921867728233,0.07391469180583954
1732873982792702200,0.9227021484375,0.2223549485206604,0.01466076634824276,0.06658431142568588
1732873982802733000,0.932733154296875,0.18936823308467865,-0.014049900695681572,0.04703662544488907
1732873982812721400,0.942721435546875,0.1368338167667389,-0.05864306539297104,0.018325956538319588
1732873982822752500,0.95275244140625,0.07024950534105301,-0.09529497474431992,-0.00855211354792118
1732873982832710400,0.96271044921875,0.004886921960860491,-0.11301007121801376,-0.03176499158143997
1732873982842741500,0.972741455078125,-0.05619960278272629,-0.10812314599752426,-0.05742133408784866
1732873982852730000,0.982730224609375,-0.11789698898792267,-0.09957103431224823,-0.09529497474431992
1732873982862730800,0.992730712890625,-0.2223549485206604,-0.09040805697441101,-0.16920967400074005
1732873982872719000,1.002718994140625,-0.3023782968521118,-0.1111774742603302,-0.22907446324825287
1732873982882750500,1.01275048828125,-0.3995058834552765,-0.14905111491680145,-0.29138273000717163
1732873982892707800,1.022707763671875,-0.5070181488990784,-0.18020524084568024,-0.3341432809829712
1732873982902740000,1.032739990234375,-0.616973876953125,-0.2076941877603531,-0.35063666105270386
1732873982912727600,1.0427275390625,-0.7293730974197388,-0.22418753802776337,-0.3225368559360504
1732873982922727400,1.0527275390625,-0.8448266386985779,-0.23640485107898712,-0.2474004179239273
1732873982932716500,1.062716552734375,-0.9865473508834839,-0.24434609711170197,-0.06291911751031876
1732873982942747100,1.0727470703125,-1.0555751323699951,-0.24556782841682434,0.09162978827953339
1732873982952705500,1.08270556640625,-1.1270463466644287,-0.25045475363731384,0.24617868661880493
1732873982962736000,1.092736083984375,-1.2113457918167114,-0.2681698501110077,0.3634648323059082
1732873982972725000,1.10272509765625,-1.3078625202178955,-0.2981022298336029,0.4202753007411957
1732873982982725000,1.11272509765625,-1.4141530990600586,-0.33719760179519653,0.4129449129104614
1732873982992714200,1.12271435546875,-1.5308283567428589,-0.3634648323059082,0.3640756905078888
1732873983002744600,1.13274462890625,-1.6603317260742188,-0.3903428912162781,0.27550023794174194
1732873983012703000,1.142702880859375,-1.860695481300354,-0.4691445231437683,0.05925392732024193
1732873983022733800,1.15273388671875,-1.9987510442733765,-0.5338962078094482,-0.10445795953273773
1732873983032722700,1.16272265625,-2.1252002716064453,-0.5736024379730225,-0.24495697021484375
1732873983042722600,1.17272265625,-2.213775634765625,-0.6029239892959595,-0.323147714138031
1732873983052712000,1.1827119140625,-2.2369885444641113,-0.5681046843528748,-0.313373863697052
1732873983062743300,1.192743408203125,-2.2040019035339355,-0.45875978469848633,-0.21868975460529327
1732873983072731100,1.202731201171875,-2.122145891189575,-0.31154128909111023,-0.06169738993048668
1732873983082732500,1.212732666015625,-1.9504927396774292,-0.09224065393209457,0.23335053026676178
1732873983092720000,1.22272021484375,-1.8484781980514526,-0.024434609338641167,0.41722095012664795
1732873983102752000,1.232751953125,-1.7886134386062622,-0.028099801391363144,0.5558874011039734
1732873983112709000,1.242709228515625,-1.7794504165649414,-0.0910189226269722,0.6304129362106323
1732873983122741000,1.252740966796875,-1.82404363155365,-0.2028072625398636,0.6151412725448608
1732873983132728600,1.262728515625,-1.9071213006973267,-0.34513887763023376,0.5192354321479797
1732873983142730200,1.272730224609375,-2.010357618331909,-0.4899139404296875,0.3500257730484009
1732873983152717800,1.2827177734375,-2.1453588008880615,-0.6475171446800232,0.036651913076639175
1732873983162749400,1.29274951171875,-2.20278000831604,-0.6921103000640869,-0.1508837193250656
1732873983172706800,1.302706787109375,-2.246762275695801,-0.6872233748435974,-0.2730567753314972
1732873983182738700,1.31273876953125,-2.2821924686431885,-0.6609562039375305,-0.3084869384765625
1732873983192726500,1.3227265625,-2.310903310775757,-0.6414085030555725,-0.2583959996700287
1732873983202727700,1.332727783203125,-2.3328943252563477,-0.6359107494354248,-0.14905111491680145
1732873983212715300,1.34271533203125,-2.353052854537964,-0.6450737118721008,-0.018325956538319588
1732873983222747400,1.352747314453125,-2.3695461750030518,-0.6603453159332275,0.09346238523721695
1732873983232704300,1.362704345703125,-2.3909265995025635,-0.6664539575576782,0.2070833146572113
1732873983242736000,1.372736083984375,-2.3970351219177246,-0.6585127115249634,0.24495697021484375
1732873983252307700,1.3823076171875,-2.3933699131011963,-0.646906316280365,0.2565633952617645
1732873983262308600,1.39230859375,-2.389704942703247,-0.6352998614311218,0.24862214922904968
1732873983272296700,1.402296630859375,-2.3768765926361084,-0.6126978397369385,0.22052235901355743
1732873983282328600,1.41232861328125,-2.359161615371704,-0.5949827432632446,0.17287486791610718
1732873983292285700,1.42228564453125,-2.3359487056732178,-0.5699372887611389,0.10934487730264664
1732873983302317600,1.432317626953125,-2.308459758758545,-0.5345070958137512,0.015271631069481373
1732873983312305200,1.44230517578125,-2.3011293411254883,-0.5149593949317932,-0.029932396486401558
1732873983322337000,1.4523369140625,-2.2968533039093018,-0.5021312236785889,-0.04642575979232788
1732873983332294100,1.462294189453125,-2.2992968559265137,-0.504574716091156,-0.033597588539123535
1732873983342326000,1.472325927734375,-2.3072381019592285,-0.50335294008255,-0.00427605677396059
1732873983352313900,1.48231396484375,-2.3243422508239746,-0.50335294008255,0.03237585723400116
1732873983362315000,1.49231494140625,-2.342057466506958,-0.5002986192703247,0.06291911751031876
1732873983372302800,1.502302734375,-2.361604928970337,-0.45814892649650574,0.08552113175392151
1732873983382334700,1.512334716796875,-2.362215995788574,-0.413555771112442,0.08674286305904388
1732873983392291800,1.522291748046875,-2.355496406555176,-0.3536909818649292,0.07696902006864548
1732873983402323700,1.53232373046875,-2.3414463996887207,-0.2938261926174164,0.06230825558304787
1732873983412311300,1.542311279296875,-2.3237314224243164,-0.25045475363731384,0.056810468435287476
1732873983422312700,1.552312744140625,-2.309070587158203,-0.23396138846874237,0.04703662544488907
1732873983432300300,1.56230029296875,-2.283414363861084,-0.23029619455337524,0.02382374368607998
1732873983442332200,1.572332275390625,-2.241875410079956,-0.23090706765651703,-0.012828170321881771
1732873983452289500,1.58228955078125,-2.194227933883667,-0.26572638750076294,-0.08002334833145142
1732873983462321200,1.592321044921875,-2.1710150241851807,-0.3017674386501312,-0.13316862285137177
1732873983472309000,1.60230908203125,-2.149634838104248,-0.3170390725135803,-0.18448130786418915
1732873983482310400,1.612310302734375,-2.138028383255005,-0.32681289315223694,-0.21319197118282318
1732873983492298000,1.622298095703125,-2.1056525707244873,-0.38667771220207214,-0.21807889640331268
1732873983502329600,1.63232958984375,-2.0665571689605713,-0.43676865100860596,-0.22602014243602753
1732873983512287000,1.642286865234375,-2.0360138416290283,-0.4612032473087311,-0.2321287989616394
1732873983522319000,1.652319091796875,-1.9737056493759155,-0.46670106053352356,-0.25106561183929443
1732873983532306400,1.662306396484375,-1.9144517183303833,-0.44104471802711487,-0.26083946228027344
1732873983542307800,1.672307861328125,-1.8374826908111572,-0.3988949954509735,-0.2632829248905182
1732873983552295700,1.682295654296875,-1.750128984451294,-0.34025195240974426,-0.24373523890972137
1732873983562327300,1.692327392578125,-1.6725490093231201,-0.31093040108680725,-0.21868975460529327
1732873983572315100,1.702315185546875,-1.606575608253479,-0.2822197377681732,-0.1869247704744339
1732873983582316300,1.71231640625,-1.5522085428237915,-0.2767219543457031,-0.16310101747512817
1732873983592302600,1.722302490234375,-1.5082262754440308,-0.3017674386501312,-0.14233160018920898
1732873983602335000,1.7323349609375,-1.4953981637954712,-0.3237585723400116,-0.13377949595451355
1732873983612320500,1.742320556640625,-1.4789047241210938,-0.34208452701568604,-0.12828169763088226
1732873983622323500,1.752323486328125,-1.4453071355819702,-0.3335324227809906,-0.11911872029304504
1732873983632311800,1.762311767578125,-1.3927727937698364,-0.28955012559890747,-0.13805554807186127
1732873983642311700,1.772311767578125,-1.36955988407135,-0.2474004179239273,-0.20402899384498596
1732873983652300500,1.782300537109375,-1.3377948999404907,-0.20525072515010834,-0.24373523890972137
1732873983662331400,1.792331298828125,-1.264491081237793,-0.1771509200334549,-0.23090706765651703
1732873983672289500,1.80228955078125,-1.1172724962234497,-0.09896016865968704,-0.12522737681865692
1732873983682320400,1.8123203125,-1.0152580738067627,-0.04337143152952194,-0.056810468435287476
1732873983692310300,1.822310302734375,-0.9150761365890503,-0.0012217304902151227,-0.00366519158706069
1732873983702310000,1.832309814453125,-0.8258898258209229,0.02076941914856434,0.02932153269648552
1732873983712299000,1.842299072265625,-0.7519751191139221,0.01038470957428217,0.04153883829712868
1732873983722329900,1.852329833984375,-0.6969972252845764,-0.015882495790719986,0.0403171069920063
1732873983732288000,1.8622880859375,-0.6591235995292664,-0.039095375686883926,0.025656340643763542
1732873983742318800,1.87231884765625,-0.626747727394104,-0.0555887371301651,-0.0024434609804302454
1732873983752307700,1.8823076171875,-0.6047565937042236,-0.06169738993048668,-0.02321287989616394
1732873983762307600,1.8923076171875,-0.5681046843528748,-0.059864792972803116,-0.03848451003432274
1732873983772296700,1.902296630859375,-0.5192354321479797,-0.04153883829712868,-0.045204028487205505
1732873983782327000,1.9123271484375,-0.46364670991897583,-0.021991148591041565,-0.051312681287527084
1732873983792286000,1.922285888671875,-0.3982841372489929,-0.012828170321881771,-0.05803219974040985
1732873983802316300,1.93231640625,-0.33475416898727417,-0.01466076634824276,-0.06414084881544113
1732873983812305200,1.94230517578125,-0.2535090744495392,-0.019547687843441963,-0.07819075137376785
1732873983822336300,1.952336181640625,-0.2076941877603531,-0.02687807008624077,-0.08185594528913498
1732873983832294400,1.96229443359375,-0.17409659922122955,-0.036041051149368286,-0.07208210229873657
1732873983842325200,1.9723251953125,-0.1508837193250656,-0.04459316283464432,-0.05009094998240471
1732873983852313900,1.98231396484375,-0.13377949595451355,-0.04092797264456749,-0.01466076634824276
1732873983862314500,1.992314453125,-0.11850785464048386,-0.03237585723400116,0.027488935738801956
1732873983872302800,2.002302734375,-0.10384709388017654,-0.02871066704392433,0.06536258012056351
1732873983882334200,2.012334228515625,-0.07330382615327835,-0.02932153269648552,0.0910189226269722
1732873983892291800,2.022291748046875,-0.05925392732024193,-0.016493361443281174,0.11362093687057495
1732873983902323000,2.032322998046875,-0.06658431142568588,-0.0354301854968071,0.10323622822761536
1732873983912311300,2.042311279296875,-0.08674286305904388,-0.060475658625364304,0.07147123664617538
1732873983922312200,2.052312255859375,-0.10506882518529892,-0.08307767659425735,0.02871066704392433
1732873983932300300,2.06230029296875,-0.1160643994808197,-0.09896016865968704,-0.014049900695681572
1732873983942331400,2.072331298828125,-0.11728613078594208,-0.10506882518529892,-0.04886921867728233
1732873983952289300,2.082289306640625,-0.10323622822761536,-0.10934487730264664,-0.0757472887635231
1732873983962320400,2.0923203125,-0.04153883829712868,-0.09834930300712585,-0.13316862285137177
1732873983972309000,2.10230908203125,0.01160643994808197,-0.07819075137376785,-0.1875356286764145
1732873983982310000,2.112309814453125,0.0555887371301651,-0.07513642311096191,-0.24923302233219147
1732873983992298000,2.122298095703125,0.08429940044879913,-0.08979719132184982,-0.3017674386501312
1732873984002329600,2.13232958984375,0.10751228034496307,-0.11728613078594208,-0.31093040108680725
1732873984012287000,2.142286865234375,0.11056660860776901,-0.1466076523065567,-0.25595253705978394
1732873984022318600,2.152318603515625,0.10873401165008545,-0.1459967941045761,-0.1362229436635971
1732873984032306400,2.162306396484375,0.11423180252313614,-0.10323622822761536,0.1007927656173706
1732873984042307000,2.17230712890625,0.11239920556545258,-0.07635815441608429,0.26022860407829285
1732873984052295400,2.18229541015625,0.0959058403968811,-0.048258353024721146,0.384845107793808
1732873984062326500,2.192326416015625,0.0708603709936142,-0.059864792972803116,0.42088615894317627
1732873984072315000,2.20231494140625,0.021991148591041565,-0.10384709388017654,0.34697145223617554
1732873984082315500,2.2123154296875,-0.05742133408784866,-0.19792033731937408,0.17348572611808777
1732873984092304100,2.22230419921875,-0.17287486791610718,-0.33047810196876526,-0.07024950534105301
1732873984102335200,2.232335205078125,-0.29504790902137756,-0.4758640229701996,-0.3384193480014801
1732873984112292900,2.24229296875,-0.4709770977497101,-0.6120869517326355,-0.6774495840072632
1732873984122324000,2.252323974609375,-0.5216789245605469,-0.6096435189247131,-0.8045095205307007
1732873984132312600,2.2623125,-0.5051855444908142,-0.5705481171607971,-0.8460483551025391
1732873984142313700,2.272313720703125,-0.4538728892803192,-0.4801400899887085,-0.7898487448692322
1732873984152301600,2.282301513671875,-0.3732386529445648,-0.32681289315223694,-0.627358615398407
1732873984162333200,2.292333251953125,-0.26511552929878235,-0.1362229436635971,-0.4043927788734436
1732873984172290600,2.30229052734375,-0.152105450630188,0.08552113175392151,-0.19058994948863983
1732873984182321700,2.31232177734375,-0.0659734457731247,0.2730567753314972,0.036041051149368286
1732873984192310300,2.322310302734375,-0.07819075137376785,0.26083946228027344,0.09712757170200348
1732873984202310400,2.332310302734375,-0.14355333149433136,0.17287486791610718,0.07269296050071716
1732873984212299000,2.342299072265625,-0.24617868661880493,0.03848451003432274,-0.03176499158143997
1732873984222330400,2.352330322265625,-0.33536502718925476,-0.07941248267889023,-0.18325957655906677
1732873984232288300,2.362288330078125,-0.3903428912162781,-0.1319468915462494,-0.33597588539123535
1732873984242318600,2.372318603515625,-0.3933972120285034,-0.12889257073402405,-0.4447098970413208
1732873984252307700,2.3823076171875,-0.294437050819397,-0.05009094998240471,-0.485027015209198
1732873984262307600,2.3923076171875,-0.17959438264369965,0.01771509274840355,-0.42271876335144043
1732873984272296700,2.402296630859375,-0.05253441259264946,0.09651670604944229,-0.30604347586631775
1732873984282327000,2.4123271484375,0.060475658625364304,0.1814269721508026,-0.17837265133857727
1732873984292285700,2.42228564453125,0.14416420459747314,0.23090706765651703,-0.08552113175392151
1732873984302317000,2.432317138671875,0.18997909128665924,0.2272418737411499,-0.025656340643763542
1732873984312305200,2.44230517578125,0.2168571650981903,0.19975294172763824,0.005497787147760391
1732873984322336300,2.452336181640625,0.2174680233001709,0.16004669666290283,0.02626720629632473
1732873984332294100,2.462294189453125,0.20830504596233368,0.12339477986097336,0.03298672288656235
1732873984342325200,2.4723251953125,0.2021963894367218,0.10812314599752426,0.02687807008624077
1732873984352313900,2.48231396484375,0.20463985204696655,0.09773843735456467,0.027488935738801956
1732873984362314500,2.492314453125,0.2119702398777008,0.10018189996480942,0.029932396486401558
1732873984372302800,2.502302734375,0.23029619455337524,0.1270599663257599,0.03848451003432274
1732873984382334000,2.512333984375,0.24129177629947662,0.1411098688840866,0.036041051149368286
1732873984392291800,2.522291748046875,0.2321287989616394,0.1618792861700058,0.015271631069481373
1732873984402323200,2.5323232421875,0.1661553531885147,0.0708603709936142,-0.04153883829712868
1732873984412311600,2.5423115234375,0.10873401165008545,-0.01038470957428217,-0.08307767659425735
1732873984422312200,2.552312255859375,0.07147123664617538,-0.005497787147760391,-0.09529497474431992
1732873984432300300,2.56230029296875,0.06108652427792549,-0.01038470957428217,-0.06719517707824707
1732873984442332200,2.572332275390625,0.0910189226269722,-0.051312681287527084,0.02076941914856434
1732873984452289500,2.58228955078125,0.152105450630188,-0.08918632566928864,0.19303341209888458
1732873984462321000,2.59232080078125,0.20463985204696655,-0.15454891324043274,0.4434881806373596
1732873984472309000,2.60230908203125,0.2638937830924988,-0.2816088795661926,0.8649851679801941
1732873984482310100,2.61231005859375,0.29565876722335815,-0.313373863697052,1.0812314748764038
1732873984492298000,2.622298095703125,0.32131510972976685,-0.25106561183929443,1.2223412990570068
1732873984502329000,2.6323291015625,0.3237585723400116,-0.192422553896904,1.2492194175720215
1732873984512287000,2.642286865234375,0.2981022298336029,-0.22907446324825287,1.169806957244873
1732873984522318000,2.652318115234375,0.23396138846874237,-0.23335053026676178,1.018923282623291
1732873984532306400,2.662306396484375,0.14294247329235077,-0.21074850857257843,0.8203920125961304
1732873984542307000,2.67230712890625,0.0354301854968071,-0.2015855312347412,0.5907067060470581
1732873984552295700,2.682295654296875,-0.13072516024112701,-0.2938261926174164,0.18387043476104736
1732873984562326800,2.692326904296875,-0.21868975460529327,-0.4056145250797272,-0.11972958594560623
1732873984572315100,2.702315185546875,-0.30115658044815063,-0.5186246037483215,-0.4147774875164032
1732873984582316300,2.71231640625,-0.3781255781650543,-0.5736024379730225,-0.6786713004112244
1732873984592302600,2.722302490234375,-0.4282165467739105,-0.5607742667198181,-0.8680394887924194
1732873984602335000,2.7323349609375,-0.44104471802711487,-0.4715879559516907,-0.9364564418792725
1732873984612292000,2.7422919921875,-0.4129449129104614,-0.33108896017074585,-0.8442157506942749
1732873984622323700,2.75232373046875,-0.32498031854629517,-0.14355333149433136,-0.4184426963329315
1732873984632311800,2.762311767578125,-0.2742784917354584,-0.11545353382825851,-0.02076941914856434
1732873984642313000,2.77231298828125,-0.25595253705978394,-0.1918116807937622,0.36713001132011414
1732873984652300500,2.782300537109375,-0.303600013256073,-0.3121521472930908,0.6517932415008545
1732873984662331000,2.792330810546875,-0.38728857040405273,-0.4178318381309509,0.770301103591919
1732873984672289800,2.802289794921875,-0.4709770977497101,-0.4813618063926697,0.7257078886032104
1732873984682320100,2.812320068359375,-0.5393940210342407,-0.46670106053352356,0.5558874011039734
1732873984692310300,2.822310302734375,-0.5754350423812866,-0.2687807083129883,0.17104226350784302
1732873984702310100,2.83231005859375,-0.5595525503158569,-0.07269296050071716,-0.0910189226269722
1732873984712299000,2.842299072265625,-0.5174028873443604,0.13011430203914642,-0.2926044464111328
1732873984722331000,2.852330810546875,-0.46364670991897583,0.2932153046131134,-0.394008070230484
1732873984732288000,2.8622880859375,-0.40622538328170776,0.39584067463874817,-0.39156460762023926
1732873984742320000,2.872320068359375,-0.36102136969566345,0.4343251883983612,-0.29016098380088806
1732873984752307700,2.8823076171875,-0.32681289315223694,0.41599923372268677,-0.1362229436635971
1732873984762308600,2.89230859375,-0.30054569244384766,0.35246923565864563,0.00733038317412138
1732873984772296700,2.902296630859375,-0.2834414839744568,0.2474004179239273,0.12217304855585098
1732873984782328600,2.91232861328125,-0.2816088795661926,0.19853121042251587,0.11423180252313614
1732873984792286000,2.922285888671875,-0.29077184200286865,0.1612684279680252,0.048258353024721146
1732873984802317000,2.932317138671875,-0.2987131178379059,0.14233160018920898,-0.05009094998240471
1732873984812305200,2.94230517578125,-0.29504790902137756,0.1411098688840866,-0.15577064454555511
1732873984822336500,2.95233642578125,-0.2816088795661926,0.15577064454555511,-0.24434609711170197
1732873984832294100,2.962294189453125,-0.24862214922904968,0.18631389737129211,-0.29138273000717163
1732873984842325200,2.9723251953125,-0.182648703455925,0.25045475363731384,-0.2736676335334778
1732873984852313600,2.982313720703125,-0.1466076523065567,0.2773328125476837,-0.22846360504627228
1732873984862314200,2.992314208984375,-0.13255776464939117,0.26511552929878235,-0.18936823308467865
1732873984872302800,3.002302734375,-0.14355333149433136,0.20891591906547546,-0.17104226350784302
1732873984882334000,3.012333984375,-0.18020524084568024,0.13439035415649414,-0.17531833052635193
1732873984892291600,3.02229150390625,-0.22479841113090515,0.04642575979232788,-0.20402899384498596
1732873984902323200,3.0323232421875,-0.26083946228027344,-0.01466076634824276,-0.24678955972194672
1732873984912311300,3.042311279296875,-0.28466320037841797,-0.05864306539297104,-0.3139847218990326
1732873984922311700,3.052311767578125,-0.28527405858039856,-0.06658431142568588,-0.33597588539123535
1732873984932300300,3.06230029296875,-0.26511552929878235,-0.048258353024721146,-0.33719760179519653
1732873984942331400,3.072331298828125,-0.23396138846874237,-0.02321287989616394,-0.30970868468284607
1732873984952289300,3.082289306640625,-0.18875735998153687,-0.007941247895359993,-0.26145032048225403
1732873984962321000,3.09232080078125,-0.13255776464939117,0.02076941914856434,-0.2028072625398636
1732873984972309000,3.10230908203125,-0.0708603709936142,0.07330382615327835,-0.1368338167667389
1732873984982310000,3.112309814453125,-0.02932153269648552,0.1270599663257599,-0.07208210229873657
1732873984992297700,3.122297607421875,-0.021991148591041565,0.14049901068210602,0.019547687843441963
1732873985002329300,3.132329345703125,-0.06169738993048668,0.10445795953273773,0.06963863968849182
1732873985012287000,3.142286865234375,-0.11667526513338089,0.031154127791523933,0.10506882518529892
1732873985022318600,3.152318603515625,-0.1820378452539444,-0.04764748737215996,0.10812314599752426
1732873985032306400,3.162306396484375,-0.25473082065582275,-0.11667526513338089,0.0708603709936142
1732873985042308000,3.17230810546875,-0.33169981837272644,-0.17898350954055786,-0.003054326167330146
1732873985052295400,3.18229541015625,-0.39156460762023926,-0.21135938167572021,-0.10201449692249298
1732873985062327000,3.1923271484375,-0.40744712948799133,-0.24129177629947662,-0.22968533635139465
1732873985072315100,3.202315185546875,-0.3805690407752991,-0.22113321721553802,-0.24617868661880493
1732873985082316300,3.21231640625,-0.31520646810531616,-0.15332718193531036,-0.20525072515010834
1732873985092304100,3.22230419921875,-0.21380282938480377,-0.03481931984424591,-0.1270599663257599
1732873985102336000,3.2323359375,-0.10384709388017654,0.11178833991289139,-0.04642575979232788
1732873985112293000,3.242293212890625,-0.02321287989616394,0.21930062770843506,0.012828170321881771
1732873985122324700,3.25232470703125,0.01710422709584236,0.2571742534637451,0.0555887371301651
1732873985132312600,3.2623125,-0.024434609338641167,0.2168571650981903,0.14538592100143433
1732873985142313700,3.272313720703125,-0.09529497474431992,0.13500121235847473,0.24617868661880493
1732873985152301300,3.28230126953125,-0.16982053220272064,0.022602014243602753,0.3396410644054413
1732873985162333200,3.292333251953125,-0.21624629199504852,-0.10873401165008545,0.38179078698158264
1732873985172290600,3.30229052734375,-0.2822197377681732,-0.21807889640331268,0.36224308609962463
1732873985182322200,3.312322265625,-0.33169981837272644,-0.2791654169559479,0.28588494658470154
1732873985192310300,3.322310302734375,-0.35674530267715454,-0.2919935882091522,0.19486601650714874
1732873985202311400,3.3323115234375,-0.35552358627319336,-0.20586158335208893,0.15332718193531036
1732873985212299300,3.34229931640625,-0.2632829248905182,-0.013439035043120384,0.2742784917354584
1732873985222329600,3.35232958984375,-0.13927727937698364,0.13561208546161652,0.5015203952789307
1732873985232288000,3.3622880859375,-0.001832595793530345,0.27000242471694946,0.7947356700897217
1732873985242318600,3.372318603515625,0.11362093687057495,0.35735616087913513,1.0610729455947876
1732873985252307700,3.3823076171875,0.20830504596233368,0.4141666293144226,1.1966849565505981
1732873985262307600,3.3923076171875,0.26145032048225403,0.40622538328170776,1.1484266519546509
1732873985272296700,3.402296630859375,0.2730567753314972,0.3243694305419922,0.9260717034339905
1732873985282327000,3.4123271484375,0.23029619455337524,0.14966198801994324,0.35613444447517395
1732873985292285700,3.42228564453125,0.18936823308467865,0.021991148591041565,-0.10201449692249298
1732873985302316300,3.43231640625,0.17837265133857727,-0.05497787147760391,-0.5302310585975647
1732873985312305400,3.442305419921875,0.19058994948863983,-0.07208210229873657,-0.8307767510414124
1732873985322335500,3.45233544921875,0.21074850857257843,-0.07941248267889023,-0.9932668805122375
1732873985332294100,3.462294189453125,0.24495697021484375,-0.1062905490398407,-1.0390818119049072
1732873985342325800,3.47232568359375,0.2932153046131134,-0.14049901068210602,-0.988379955291748
1732873985352313600,3.482313720703125,0.3494149148464203,-0.18020524084568024,-0.7837401032447815
1732873985362314800,3.492314697265625,0.3781255781650543,-0.19975294172763824,-0.6029239892959595
1732873985372302800,3.502302734375,0.3903428912162781,-0.2015855312347412,-0.4190535545349121
1732873985382334500,3.51233447265625,0.3781255781650543,-0.20830504596233368,-0.2675589919090271
1732873985392291800,3.522291748046875,0.35063666105270386,-0.2223549485206604,-0.16004669666290283
1732873985402323700,3.53232373046875,0.31581732630729675,-0.24862214922904968,-0.10201449692249298
1732873985412311300,3.542311279296875,0.2675589919090271,-0.27977627515792847,-0.09896016865968704
1732873985422311700,3.552311767578125,0.2223549485206604,-0.3219259977340698,-0.13927727937698364
1732873985432300300,3.56230029296875,0.15882496535778046,-0.39156460762023926,-0.24556782841682434
1732873985442331400,3.572331298828125,0.12522737681865692,-0.43188172578811646,-0.3121521472930908
1732873985452289300,3.582289306640625,0.11484266817569733,-0.46242499351501465,-0.35613444447517395
1732873985462320400,3.5923203125,0.1111774742603302,-0.4966334402561188,-0.37079519033432007
1732873985472309000,3.60230908203125,0.09957103431224823,-0.5241223573684692,-0.3683517575263977
1732873985482310100,3.61231005859375,0.11056660860776901,-0.5198463201522827,-0.35124751925468445
1732873985492298000,3.622298095703125,0.14782938361167908,-0.47769662737846375,-0.31642818450927734
1732873985502329600,3.63232958984375,0.21074850857257843,-0.40622538328170776,-0.2028072625398636
1732873985512287000,3.642286865234375,0.242513507604599,-0.3384193480014801,-0.08674286305904388
1732873985522318800,3.65231884765625,0.25473082065582275,-0.242513507604599,0.05314527451992035
1732873985532306400,3.662306396484375,0.23518311977386475,-0.14782938361167908,0.1875356286764145
1732873985542307800,3.672307861328125,0.18875735998153687,-0.05497787147760391,0.3225368559360504
1732873985552295400,3.68229541015625,0.12889257073402405,0.004886921960860491,0.4495968222618103
1732873985562326300,3.692326171875,0.060475658625364304,0.045204028487205505,0.5357288122177124
1732873985572315100,3.702315185546875,-0.045204028487205505,0.022602014243602753,0.5210680365562439
1732873985582315800,3.712315673828125,-0.1160643994808197,-0.015882495790719986,0.40133845806121826
1732873985592302300,3.72230224609375,-0.18997909128665924,-0.03298672288656235,0.20463985204696655
1732873985602334000,3.732333984375,-0.26450464129447937,-0.0403171069920063,-0.028099801391363144
1732873985612320800,3.74232080078125,-0.2834414839744568,0.05925392732024193,-0.23396138846874237
1732873985622323700,3.75232373046875,-0.2528982162475586,0.16310101747512817,-0.3830125033855438
1732873985632311800,3.762311767578125,-0.20830504596233368,0.19058994948863983,-0.4715879559516907
1732873985642312700,3.772312744140625,-0.17837265133857727,0.1966986060142517,-0.49235737323760986
1732873985652300800,3.78230078125,-0.20402899384498596,0.19303341209888458,-0.3885102868080139
1732873985662332400,3.79233251953125,-0.23396138846874237,0.1417207419872284,-0.2620611786842346
1732873985672289500,3.80228955078125,-0.23396138846874237,0.03848451003432274,-0.1466076523065567
1732873985682321700,3.81232177734375,-0.2816088795661926,-0.0806342139840126,-0.07391469180583954
1732873985692310000,3.82231005859375,-0.3579670190811157,-0.2528982162475586,-0.10018189996480942
1732873985702311400,3.8323115234375,-0.43737950921058655,-0.4349360466003418,-0.24556782841682434
1732873985712299000,3.842299072265625,-0.484416127204895,-0.5626068711280823,-0.45265114307403564
1732873985722331000,3.852330810546875,-0.44837507605552673,-0.5100724697113037,-0.6065891981124878
1732873985732288000,3.8622880859375,-0.3640756905078888,-0.32070425152778625,-0.47769662737846375
1732873985742319900,3.87231982421875,-0.2730567753314972,-0.11850785464048386,-0.16432274878025055
1732873985752307700,3.8823076171875,-0.14477506279945374,0.0354301854968071,0.24556782841682434
1732873985762308600,3.89230859375,-0.11911872029304504,0.12034045159816742,0.6530149579048157
1732873985772296700,3.902296630859375,-0.20952677726745605,0.13561208546161652,0.9608910083770752
1732873985782328000,3.912328125,-0.3023782968521118,0.05253441259264946,1.1056660413742065
1732873985792285700,3.92228564453125,-0.40622538328170776,-0.24190263450145721,0.9834930300712585
1732873985802316000,3.93231591796875,-0.48808133602142334,-0.384845107793808,0.7348709106445312
1732873985812305200,3.94230517578125,-0.5461135506629944,-0.4337143301963806,0.4080579876899719
1732873985822335700,3.952335693359375,-0.5595525503158569,-0.394618958234787,0.05864306539297104
1732873985832294100,3.962294189453125,-0.5320636034011841,-0.24007004499435425,-0.26450464129447937
1732873985842326000,3.972325927734375,-0.423329621553421,-0.03237585723400116,-0.523511528968811
1732873985852313900,3.98231396484375,-0.2785545587539673,0.10323622822761536,-0.6621779203414917
1732873985862314800,3.992314697265625,-0.16493362188339233,0.19303341209888458,-0.6615670323371887
1732873985872302800,4.002302734375,-0.04948008432984352,0.29626965522766113,-0.5094616413116455
1732873985882334200,4.012334228515625,-0.00366519158706069,0.36102136969566345,-0.3481931984424591
1732873985892291800,4.022291748046875,0.00733038317412138,0.40622538328170776,-0.17959438264369965
1732873985902323500,4.032323486328125,-0.01038470957428217,0.38240164518356323,-0.048258353024721146
1732873985912311300,4.042311279296875,-0.04092797264456749,0.3072652220726013,0.019547687843441963
1732873985922312400,4.0523125,-0.08979719132184982,0.2168571650981903,0.018936822190880775
1732873985932300300,4.06230029296875,-0.13927727937698364,0.13011430203914642,-0.039706241339445114
1732873985942332200,4.072332275390625,-0.16371189057826996,0.07391469180583954,-0.14966198801994324
1732873985952289300,4.082289306640625,-0.1472185254096985,0.06352998316287994,-0.18448130786418915
1732873985962320100,4.092320068359375,-0.09285151958465576,0.07391469180583954,-0.18325957655906677
1732873985972308700,4.102308837890625,-0.02382374368607998,0.1007927656173706,-0.1618792861700058
1732873985982309400,4.112309326171875,0.03726277872920036,0.15821409225463867,-0.1313360333442688
1732873985992298000,4.122298095703125,0.08674286305904388,0.22296582162380219,-0.09773843735456467
1732873986002329600,4.13232958984375,0.13866640627384186,0.25045475363731384,-0.07269296050071716
1732873986012287000,4.142286865234375,0.1667662113904953,0.26633724570274353,-0.05375614017248154
1732873986022318600,4.152318603515625,0.16859880089759827,0.2736676335334778,-0.05253441259264946
1732873986032306400,4.162306396484375,0.15760323405265808,0.2724458873271942,-0.04459316283464432
1732873986042307300,4.172307373046875,0.14538592100143433,0.27122417092323303,-0.02321287989616394
1732873986052295400,4.18229541015625,0.1264491081237793,0.26572638750076294,0.012217304669320583
1732873986062327000,4.1923271484375,0.11423180252313614,0.26083946228027344,0.06536258012056351
1732873986072315100,4.202315185546875,0.11301007121801376,0.25045475363731384,0.14294247329235077
1732873986082316000,4.21231591796875,0.1264491081237793,0.21380282938480377,0.24190263450145721
1732873986092304100,4.22230419921875,0.06291911751031876,0.08429940044879913,0.4043927788734436
1732873986102335500,4.23233544921875,-0.04886921867728233,-0.01771509274840355,0.4996877610683441
1732873986112292900,4.24229296875,-0.15760323405265808,-0.09162978827953339,0.5571091175079346
1732873986122324700,4.25232470703125,-0.24373523890972137,-0.1820378452539444,0.5357288122177124
1732873986132312300,4.262312255859375,-0.30115658044815063,-0.25961771607398987,0.4196644127368927
1732873986142313500,4.2723134765625,-0.2938261926174164,-0.304210901260376,0.25473082065582275
1732873986152301600,4.282301513671875,-0.33108896017074585,-0.3481931984424591,0.08979719132184982
1732873986162333400,4.29233349609375,-0.3341432809829712,-0.33658674359321594,-0.15027284622192383
1732873986172290600,4.30229052734375,-0.24495697021484375,-0.2938261926174164,-0.2718350291252136
1732873986182322200,4.312322265625,-0.13500121235847473,-0.22846360504627228,-0.32498031854629517
1732873986192310300,4.322310302734375,-0.013439035043120384,-0.16004669666290283,-0.2822197377681732
1732873986202311200,4.332311279296875,0.08674286305904388,-0.09773843735456467,-0.15332718193531036
1732873986212299000,4.342299072265625,0.16432274878025055,-0.08185594528913498,-0.015882495790719986
1732873986222331000,4.352330810546875,0.20463985204696655,-0.11178833991289139,0.03420845419168472
1732873986232288000,4.3622880859375,0.12278391420841217,-0.21624629199504852,-0.10873401165008545
1732873986242319600,4.372319580078125,0,-0.2791654169559479,-0.28588494658470154
1732873986252307700,4.3823076171875,-0.08552113175392151,-0.3842342495918274,-0.403781920671463
1732873986262308900,4.392308837890625,-0.07024950534105301,-0.5015203952789307,-0.3500257730484009
1732873986272296700,4.402296630859375,-0.02076941914856434,-0.5638286471366882,-0.05192354694008827
1732873986282328300,4.412328369140625,0.09712757170200348,-0.4862487316131592,0.4288274049758911
1732873986292286000,4.422285888671875,0.242513507604599,-0.313373863697052,0.9731083512306213
1732873986302316000,4.43231591796875,0.41111230850219727,-0.1814269721508026,1.4141530990600586
1732873986312305200,4.44230517578125,0.6126978397369385,-0.06230825558304787,1.623068928718567
1732873986322335700,4.452335693359375,0.6499606370925903,-0.025656340643763542,1.4440854787826538
1732873986332294100,4.462294189453125,0.6200281977653503,-0.018325956538319588,1.0873401165008545
1732873986342326800,4.472326904296875,0.5491678714752197,-0.03420845419168472,0.6133087277412415
1732873986352313900,4.48231396484375,0.44837507605552673,-0.07391469180583954,0.1062905490398407
1732873986362313700,4.492313720703125,0.3433062732219696,-0.11178833991289139,-0.34636059403419495
1732873986372302800,4.502302734375,0.26022860407829285,-0.16371189057826996,-0.6707300543785095
1732873986382333000,4.5123330078125,0.23640485107898712,-0.20586158335208893,-0.8613200187683105
1732873986392291800,4.522291748046875,0.28038713335990906,-0.19120082259178162,-0.8014551997184753
1732873986402323500,4.532323486328125,0.3543018400669098,-0.15882496535778046,-0.6291912198066711
1732873986412311300,4.542311279296875,0.4282165467739105,-0.11789698898792267,-0.3842342495918274
1732873986422312700,4.552312744140625,0.47769662737846375,-0.0959058403968811,-0.10262536257505417
1732873986432300500,4.562300537109375,0.5076290369033813,-0.10262536257505417,0.14782938361167908
1732873986442332200,4.572332275390625,0.5204572081565857,-0.0910189226269722,0.3237585723400116
1732873986452289300,4.582289306640625,0.5119050741195679,-0.036651913076639175,0.4398229718208313
1732873986462321200,4.592321044921875,0.48747047781944275,0,0.45814892649650574
1732873986472309000,4.60230908203125,0.44715335965156555,0.0012217304902151227,0.4502076804637909
1732873986482309400,4.612309326171875,0.3988949954509735,-0.03787364438176155,0.4282165467739105
1732873986492298000,4.622298095703125,0.35674530267715454,-0.09162978827953339,0.3982841372489929
1732873986502329000,4.6323291015625,0.3219259977340698,-0.15577064454555511,0.3579670190811157
1732873986512287000,4.642286865234375,0.2877175211906433,-0.2064724564552307,0.3017674386501312
1732873986522318600,4.652318603515625,0.25045475363731384,-0.24556782841682434,0.23884831368923187
1732873986532306400,4.662306396484375,0.18875735998153687,-0.2932153046131134,0.12278391420841217
1732873986542307000,4.67230712890625,0.15393804013729095,-0.2883284091949463,0.030543262138962746
1732873986552295400,4.68229541015625,0.12950342893600464,-0.2480112910270691,-0.05925392732024193
1732873986562327300,4.692327392578125,0.11850785464048386,-0.18387043476104736,-0.10690141469240189
1732873986572315100,4.702315185546875,0.10812314599752426,-0.12461651116609573,-0.08429940044879913
1732873986582316300,4.71231640625,0.10384709388017654,-0.07757988572120667,0.009162978269159794
1732873986592302600,4.722302490234375,0.09712757170200348,-0.028099801391363144,0.15332718193531036
1732873986602334500,4.73233447265625,0.07635815441608429,0.02076941914856434,0.4050036668777466
1732873986612292400,4.742292236328125,0.04398229718208313,0.033597588539123535,0.5351179838180542
1732873986622323200,4.7523232421875,0.0024434609804302454,0.030543262138962746,0.5907067060470581
1732873986632311800,4.762311767578125,-0.06230825558304787,0.022602014243602753,0.5577199459075928
1732873986642312200,4.772312255859375,-0.14782938361167908,0.021380282938480377,0.43676865100860596
1732873986652300500,4.782300537109375,-0.2431243658065796,0.027488935738801956,0.25473082065582275
1732873986662331400,4.792331298828125,-0.3481931984424591,0.05192354694008827,0.0659734457731247
1732873986672289800,4.802289794921875,-0.4862487316131592,0.06963863968849182,-0.1459967941045761
1732873986682321700,4.81232177734375,-0.5455026626586914,0.08491026610136032,-0.22968533635139465
1732873986692310300,4.822310302734375,-0.5864306092262268,0.0959058403968811,-0.2742784917354584
1732873986702311400,4.8323115234375,-0.6188064813613892,0.10506882518529892,-0.2828305959701538
1732873986712298800,4.842298828125,-0.6524040699005127,0.11239920556545258,-0.23335053026676178
1732873986722331000,4.852330810546875,-0.6609562039375305,0.1014036312699318,-0.1270599663257599
1732873986732288000,4.8622880859375,-0.6224716901779175,0.05925392732024193,0.01466076634824276
1732873986742319900,4.87231982421875,-0.5510004758834839,-0.012217304669320583,0.12461651116609573
1732873986752307700,4.8823076171875,-0.4306600093841553,-0.11667526513338089,0.10384709388017654
1732873986762309000,4.89230908203125,-0.3854559659957886,-0.14355333149433136,-0.03237585723400116
1732873986772296700,4.902296630859375,-0.3597996234893799,-0.1258382350206375,-0.17837265133857727
1732873986782328300,4.912328369140625,-0.3335324227809906,-0.06108652427792549,-0.24068090319633484
1732873986792285700,4.92228564453125,-0.29504790902137756,0.015271631069481373,-0.1569923609495163
1732873986802317300,4.9323173828125,-0.2767219543457031,0.0659734457731247,0.08918632566928864
1732873986812305200,4.94230517578125,-0.31581732630729675,0.042760565876960754,0.4129449129104614
1732873986822337000,4.9523369140625,-0.46242499351501465,-0.16859880089759827,0.7660250067710876
1732873986832294100,4.962294189453125,-0.5485569834709167,-0.3066543638706207,0.7580837607383728
1732873986842324700,4.97232470703125,-0.5931501388549805,-0.3830125033855438,0.5552765130996704
1732873986852313600,4.982313720703125,-0.6139195561408997,-0.4550946056842804,0.24617868661880493
1732873986862314000,4.99231396484375,-0.6194173693656921,-0.46547931432724,-0.09162978827953339
1732873986872302800,5.002302734375,-0.5852088928222656,-0.4043927788734436,-0.39156460762023926
1732873986882334500,5.01233447265625,-0.5149593949317932,-0.29504790902137756,-0.598647952079773
1732873986892291800,5.022291748046875,-0.3781255781650543,-0.1459967941045761,-0.6627888083457947
1732873986902323500,5.032323486328125,-0.27488934993743896,-0.04214970022439957,-0.5821545720100403
1732873986912311000,5.04231103515625,-0.18997909128665924,0.0806342139840126,-0.46303585171699524
1732873986922312400,5.0523125,-0.1411098688840866,0.15027284622192383,-0.3384193480014801
1732873986932300300,5.06230029296875,-0.11911872029304504,0.1765400618314743,-0.22357667982578278
1732873986942332000,5.072331787109375,-0.12278391420841217,0.1716531366109848,-0.1270599663257599
1732873986952289300,5.082289306640625,-0.15393804013729095,0.13988813757896423,-0.05925392732024193
1732873986962321200,5.092321044921875,-0.18875735998153687,0.08002334833145142,-0.03237585723400116
1732873986972309000,5.10230908203125,-0.2382374405860901,0.015271631069481373,-0.03298672288656235
1732873986982309400,5.112309326171875,-0.2535090744495392,-0.01710422709584236,-0.04703662544488907
1732873986992298000,5.122298095703125,-0.2583959996700287,-0.04948008432984352,-0.06841690838336945
1732873987002329000,5.1323291015625,-0.25961771607398987,-0.07147123664617538,-0.09712757170200348
1732873987012286700,5.14228662109375,-0.2626720666885376,-0.06169738993048668,-0.1313360333442688
1732873987022317800,5.15231787109375,-0.252287358045578,-0.02321287989616394,-0.16737708449363708
1732873987032306400,5.162306396484375,-0.22296582162380219,0.03237585723400116,-0.18570303916931152
1732873987042307000,5.17230712890625,-0.15515977144241333,0.11728613078594208,-0.14782938361167908
1732873987052295400,5.18229541015625,-0.1014036312699318,0.16859880089759827,-0.07269296050071716
1732873987062327000,5.1923271484375,-0.05619960278272629,0.20341812074184418,0.025656340643763542
1732873987072315000,5.20231494140625,-0.033597588539123535,0.21074850857257843,0.1160643994808197
1732873987082316000,5.21231591796875,-0.0354301854968071,0.192422553896904,0.1820378452539444
1732873987092304100,5.22230419921875,-0.06108652427792549,0.14905111491680145,0.22052235901355743
1732873987102335700,5.232335693359375,-0.10445795953273773,0.10262536257505417,0.25534167885780334
1732873987112293000,5.242293212890625,-0.16737708449363708,0.059864792972803116,0.3396410644054413
1732873987122324700,5.25232470703125,-0.18509216606616974,0.056810468435287476,0.4300491213798523
1732873987132312600,5.2623125,-0.18081611394882202,0.08368854224681854,0.5442809462547302
1732873987142313000,5.27231298828125,-0.14905111491680145,0.14049901068210602,0.656069278717041
1732873987152301600,5.282301513671875,-0.09896016865968704,0.19914206862449646,0.7275404930114746
1732873987162332700,5.292332763671875,-0.05497787147760391,0.242513507604599,0.7348709106445312
1732873987172290600,5.30229052734375,-0.04214970022439957,0.2382374405860901,0.6548475623130798
1732873987182321700,5.31232177734375,-0.05619960278272629,0.18631389737129211,0.4990769028663635
1732873987192310300,5.322310302734375,-0.13988813757896423,0.028099801391363144,0.1459967941045761
1732873987202311200,5.332311279296875,-0.21930062770843506,-0.11178833991289139,-0.11301007121801376
1732873987212299300,5.34229931640625,-0.2816088795661926,-0.22052235901355743,-0.323147714138031
1732873987222330600,5.35233056640625,-0.29626965522766113,-0.27122417092323303,-0.43188172578811646
1732873987232288300,5.362288330078125,-0.23090706765651703,-0.2791654169559479,-0.4251621961593628
1732873987242319600,5.372319580078125,-0.10934487730264664,-0.19914206862449646,-0.3139847218990326
1732873987252307700,5.3823076171875,0.022602014243602753,-0.0507018156349659,-0.1313360333442688
1732873987262308600,5.39230859375,0.15821409225463867,0.16859880089759827,0.17409659922122955
1732873987272296700,5.402296630859375,0.2028072625398636,0.24678955972194672,0.32070425152778625
1732873987282327000,5.4123271484375,0.21074850857257843,0.25045475363731384,0.37079519033432007
1732873987292285700,5.42228564453125,0.1820378452539444,0.1814269721508026,0.3090978264808655
1732873987302317600,5.432317626953125,0.09773843735456467,0.02932153269648552,0.13255776464939117
1732873987312305200,5.44230517578125,-0.014049900695681572,-0.18570303916931152,-0.13866640627384186
1732873987322337000,5.4523369140625,-0.11972958594560623,-0.41233405470848083,-0.41172316670417786
1732873987332294100,5.462294189453125,-0.15332718193531036,-0.675006091594696,-0.5387831330299377
1732873987342324700,5.47232470703125,-0.08552113175392151,-0.7336491346359253,-0.3591887652873993
1732873987352313600,5.482313720703125,0.039706241339445114,-0.6896668672561646,-0.039706241339445114
1732873987362313700,5.492313720703125,0.16493362188339233,-0.5516113042831421,0.30543261766433716
1732873987372302800,5.502302734375,0.2480112910270691,-0.4398229718208313,0.5442809462547302
1732873987382333000,5.5123330078125,0.2871066629886627,-0.3439171314239502,0.5864306092262268
1732873987392291800,5.522291748046875,0.29626965522766113,-0.24617868661880493,0.41233405470848083
1732873987402322200,5.532322265625,0.294437050819397,-0.17837265133857727,0.09529497474431992
1732873987412311300,5.542311279296875,0.2767219543457031,-0.16065755486488342,-0.3933972120285034
1732873987422312400,5.5523125,0.27000242471694946,-0.1918116807937622,-0.6065891981124878
1732873987432300300,5.56230029296875,0.2767219543457031,-0.2223549485206604,-0.7312057018280029
1732873987442332200,5.572332275390625,0.3017674386501312,-0.2877175211906433,-0.7770205736160278
1732873987452289300,5.582289306640625,0.32559117674827576,-0.3481931984424591,-0.7483099102973938
1732873987462321000,5.59232080078125,0.3292563557624817,-0.4239404797554016,-0.6511823534965515
1732873987472309000,5.60230908203125,0.3188716471195221,-0.4612032473087311,-0.5125159621238708
1732873987482310000,5.612309814453125,0.2987131178379059,-0.33475416898727417,-0.28588494658470154
1732873987492298000,5.622298095703125,0.2834414839744568,-0.18936823308467865,-0.14049901068210602
1732873987502329600,5.63232958984375,0.2718350291252136,-0.04948008432984352,0.019547687843441963
1732873987512287000,5.642286865234375,0.2687807083129883,0.04948008432984352,0.17776179313659668
1732873987522318800,5.65231884765625,0.2687807083129883,0.1368338167667389,0.303600013256073
1732873987532306400,5.662306396484375,0.2632829248905182,0.20097467303276062,0.37201693654060364
1732873987542307000,5.67230712890625,0.2535090744495392,0.2168571650981903,0.3988949954509735
1732873987552295400,5.68229541015625,0.22113321721553802,0.19914206862449646,0.3793473243713379
1732873987562326800,5.692326904296875,0.18509216606616974,0.14782938361167908,0.3280346393585205
1732873987572315100,5.702315185546875,0.1466076523065567,0.08857546001672745,0.25961771607398987
1732873987582315500,5.7123154296875,0.12034045159816742,0.0403171069920063,0.18814650177955627
1732873987592302300,5.72230224609375,0.09896016865968704,0.009162978269159794,0.1258382350206375
1732873987602334200,5.732334228515625,0.08124507963657379,-0.00733038317412138,0.08552113175392151
1732873987612320500,5.742320556640625,0.06719517707824707,-0.025045474991202354,0.06780604273080826
1732873987622323200,5.7523232421875,0.04948008432984352,-0.04703662544488907,0.06902777403593063
1732873987632311800,5.762311767578125,0.027488935738801956,-0.07513642311096191,0.08185594528913498
1732873987642312200,5.772312255859375,0.007941247895359993,-0.0757472887635231,0.08735372871160507
1732873987652300800,5.78230078125,-0.013439035043120384,-0.06902777403593063,0.10018189996480942
1732873987662331600,5.79233154296875,-0.039095375686883926,-0.06352998316287994,0.1411098688840866
1732873987672289500,5.80228955078125,-0.07269296050071716,-0.07147123664617538,0.20830504596233368
1732873987682320600,5.812320556640625,-0.10995574295520782,-0.09712757170200348,0.2822197377681732
1732873987692310000,5.82231005859375,-0.1411098688840866,-0.12400564551353455,0.3335324227809906
1732873987702310400,5.832310302734375,-0.19425514340400696,-0.15515977144241333,0.313373863697052
1732873987712299000,5.842299072265625,-0.2321287989616394,-0.19608774781227112,0.21991148591041565
1732873987722330000,5.852330078125,-0.28099802136421204,-0.2376265823841095,0.08796459436416626
1732873987732288000,5.8622880859375,-0.323147714138031,-0.24495697021484375,-0.036651913076639175
1732873987742320000,5.872320068359375,-0.34147366881370544,-0.2223549485206604,-0.12034045159816742
1732873987752307700,5.8823076171875,-0.3323107063770294,-0.18875735998153687,-0.1508837193250656
1732873987762308900,5.892308837890625,-0.3084869384765625,-0.14355333149433136,-0.13011430203914642
1732873987772296700,5.902296630859375,-0.3127630054950714,-0.05619960278272629,-0.009773843921720982
1732873987782328000,5.912328125,-0.34697145223617554,-0.02626720629632473,0.1411098688840866
1732873987792285700,5.92228564453125,-0.3787364661693573,-0.03237585723400116,0.323147714138031
1732873987802317600,5.932317626953125,-0.40133845806121826,-0.08002334833145142,0.4612032473087311
1732873987812305400,5.942305419921875,-0.4288274049758911,-0.1661553531885147,0.48319441080093384
1732873987822337000,5.9523369140625,-0.4648684561252594,-0.24984388053417206,0.3500257730484009
1732873987832294100,5.962294189453125,-0.5100724697113037,-0.304210901260376,0.11728613078594208
1732873987842326300,5.972326171875,-0.5210680365562439,-0.242513507604599,-0.05619960278272629
1732873987852313600,5.982313720703125,-0.44165557622909546,-0.02076941914856434,0.05009094998240471
1732873987862315000,5.99231494140625,-0.37262779474258423,0.18020524084568024,0.3579670190811157
1732873987872302800,6.002302734375,-0.30970868468284607,0.2889392673969269,0.7434229850769043
1732873987882334500,6.01233447265625,-0.29077184200286865,0.2687807083129883,1.0616837739944458
1732873987892291600,6.02229150390625,-0.32986724376678467,0.2064724564552307,1.1930198669433594
1732873987902322200,6.032322265625,-0.3982841372489929,0.16310101747512817,1.0806206464767456
1732873987912311300,6.042311279296875,-0.4691445231437683,0.1215621829032898,0.7635815739631653
1732873987922311200,6.052311279296875,-0.5448917746543884,0.0910189226269722,0.06291911751031876
1732873987932300300,6.06230029296875,-0.5351179838180542,0.08307767659425735,-0.4105014503002167
1732873987942332200,6.072332275390625,-0.49357911944389343,0.09285151958465576,-0.7709119319915771
1732873987952289300,6.082289306640625,-0.4239404797554016,0.1270599663257599,-0.9718865752220154
1732873987962321000,6.09232080078125,-0.33536502718925476,0.1765400618314743,-1.006095051765442
1732873987972309000,6.10230908203125,-0.2535090744495392,0.1722639948129654,-0.9108000993728638
1732873987982310000,6.112309814453125,-0.17592918872833252,0.23151792585849762,-0.7147123217582703
1732873987992298000,6.122298095703125,-0.09285151958465576,0.3494149148464203,-0.3701843321323395
1732873988002329600,6.13232958984375,-0.07757988572120667,0.34513887763023376,-0.17287486791610718
1732873988012287000,6.142286865234375,-0.10201449692249298,0.3017674386501312,-0.021380282938480377
1732873988022318600,6.152318603515625,-0.14049901068210602,0.251676470041275,0.06658431142568588
1732873988032306400,6.162306396484375,-0.1820378452539444,0.2272418737411499,0.08918632566928864
1732873988042307000,6.17230712890625,-0.21868975460529327,0.2278527319431305,0.05192354694008827
1732873988052295400,6.18229541015625,-0.24678955972194672,0.22296582162380219,-0.02321287989616394
1732873988062326800,6.192326904296875,-0.2620611786842346,0.21380282938480377,-0.1111774742603302
1732873988072315000,6.20231494140625,-0.24495697021484375,0.1612684279680252,-0.2278527319431305
1732873988082315800,6.212315673828125,-0.22602014243602753,0.13316862285137177,-0.2638937830924988
1732873988092304100,6.22230419921875,-0.19425514340400696,0.12889257073402405,-0.26633724570274353
1732873988102335000,6.2323349609375,-0.15393804013729095,0.1264491081237793,-0.25045475363731384
1732873988112293000,6.242293212890625,-0.11301007121801376,0.11301007121801376,-0.22113321721553802
1732873988122324500,6.252324462890625,-0.07513642311096191,0.07941248267889023,-0.1869247704744339
1732873988132312300,6.262312255859375,-0.04948008432984352,0.03176499158143997,-0.1514945775270462
1732873988142313700,6.272313720703125,-0.051312681287527084,-0.05009094998240471,-0.09040805697441101
1732873988152301600,6.282301513671875,-0.06963863968849182,-0.10384709388017654,-0.04581489413976669
1732873988162333000,6.2923330078125,-0.08368854224681854,-0.13927727937698364,-0.00733038317412138
1732873988172290600,6.30229052734375,-0.1014036312699318,-0.152105450630188,0.02687807008624077
1732873988182322200,6.312322265625,-0.12095131725072861,-0.1466076523065567,0.0806342139840126
1732873988192310300,6.322310302734375,-0.1368338167667389,-0.13561208546161652,0.1563815027475357
1732873988202311000,6.332310791015625,-0.13500121235847473,-0.1270599663257599,0.24373523890972137
1732873988212299000,6.342299072265625,-0.09712757170200348,-0.08246681094169617,0.3597996234893799
1732873988222331000,6.352330810546875,-0.056810468435287476,-0.06475171446800232,0.394008070230484
1732873988232288000,6.3622880859375,-0.027488935738801956,-0.05253441259264946,0.3830125033855438
1732873988242319000,6.372319091796875,-0.02076941914856434,-0.051312681287527084,0.3182607889175415
1732873988252307700,6.3823076171875,-0.036041051149368286,-0.05314527451992035,0.2028072625398636
1732873988262308900,6.392308837890625,-0.0659734457731247,-0.0659734457731247,0.04948008432984352
1732873988272296700,6.402296630859375,-0.09468411654233932,-0.09040805697441101,-0.10934487730264664
1732873988282328300,6.412328369140625,-0.1160643994808197,-0.1007927656173706,-0.2217440903186798
1732873988292285700,6.42228564453125,-0.1014036312699318,-0.10384709388017654,-0.2632829248905182
1732873988302317300,6.4323173828125,-0.04398229718208313,-0.06780604273080826,-0.2223549485206604
1732873988312305200,6.44230517578125,0.04092797264456749,-0.0012217304902151227,-0.1411098688840866
1732873988322337000,6.4523369140625,0.13072516024112701,0.07391469180583954,-0.03848451003432274
1732873988332294100,6.462294189453125,0.21807889640331268,0.1368338167667389,0.07269296050071716
1732873988342325500,6.472325439453125,0.30604347586631775,0.1612684279680252,0.14538592100143433
1732873988352313900,6.48231396484375,0.37690386176109314,0.14844025671482086,0.12767083942890167
1732873988362315000,6.49231494140625,0.3927863538265228,0.07391469180583954,-0.10323622822761536
1732873988372302800,6.502302734375,0.3090978264808655,-0.0708603709936142,-0.3176499307155609
1732873988382334500,6.51233447265625,0.18936823308467865,-0.2382374405860901,-0.45265114307403564
1732873988392291800,6.522291748046875,0.1258382350206375,-0.37568211555480957,-0.4251621961593628
1732873988402323500,6.532323486328125,0.14477506279945374,-0.46853363513946533,-0.17409659922122955
1732873988412311300,6.542311279296875,0.22357667982578278,-0.39767327904701233,0.26022860407829285
1732873988422311400,6.5523115234375,0.35246923565864563,-0.22663100063800812,0.7476990818977356
1732873988432300300,6.56230029296875,0.5418374538421631,0.056810468435287476,1.3445143699645996
1732873988442331000,6.572330810546875,0.6035348773002625,0.1459967941045761,1.5063936710357666
1732873988452289500,6.58228955078125,0.5772676467895508,0.1661553531885147,1.4373658895492554
1732873988462322000,6.592322021484375,0.4899139404296875,0.14782938361167908,1.1673635244369507
1732873988472308700,6.602308837890625,0.3500257730484009,0.060475658625364304,0.7648032903671265
1732873988482311000,6.612310791015625,0.19914206862449646,-0.05192354694008827,0.24984388053417206
1732873988492298000,6.622298095703125,0.07635815441608429,-0.1722639948129654,-0.3500257730484009
1732873988502328300,6.632328369140625,0.004886921960860491,-0.34086281061172485,-0.8967501521110535
1732873988512287000,6.642286865234375,-0.012828170321881771,-0.4343251883983612,-1.4098769426345825
1732873988522318600,6.652318603515625,0.04214970022439957,-0.44837507605552673,-1.472796082496643
1732873988532306400,6.662306396484375,0.11789698898792267,-0.4294382631778717,-1.3249666690826416
1732873988542307600,6.6723076171875,0.2223549485206604,-0.36529740691185,-1.0519099235534668
1732873988552295700,6.682295654296875,0.3384193480014801,-0.2590068578720093,-0.7428121566772461
1732873988562327300,6.692327392578125,0.4184426963329315,-0.13377949595451355,-0.46242499351501465
1732873988572315100,6.702315185546875,0.4349360466003418,0.013439035043120384,-0.2590068578720093
1732873988582316300,6.71231640625,0.3597996234893799,0.11423180252313614,-0.07452555745840073
1732873988592302300,6.72230224609375,0.24190263450145721,0.12767083942890167,-0.006108652334660292
1732873988602335000,6.7323349609375,0.11178833991289139,0.10445795953273773,0.02871066704392433
1732873988612292000,6.7422919921875,0.013439035043120384,0.09712757170200348,0.03848451003432274
1732873988622323200,6.7523232421875,-0.036651913076639175,0.09529497474431992,0.033597588539123535
1732873988632311800,6.762311767578125,-0.04581489413976669,0.05864306539297104,0.025045474991202354
1732873988642312200,6.772312255859375,-0.028099801391363144,-0.006719517521560192,0.015882495790719986
1732873988652300500,6.782300537109375,0.02382374368607998,-0.0861319974064827,0
1732873988662331400,6.792331298828125,0.06230825558304787,-0.10873401165008545,-0.016493361443281174
1732873988672289500,6.80228955078125,0.08918632566928864,-0.1111774742603302,-0.0403171069920063
1732873988682321400,6.8123212890625,0.10018189996480942,-0.10690141469240189,-0.05803219974040985
1732873988692310300,6.822310302734375,0.08918632566928864,-0.09773843735456467,-0.0507018156349659
1732873988702311200,6.832311279296875,0.06536258012056351,-0.08491026610136032,-0.006719517521560192
1732873988712298800,6.842298828125,0.039095375686883926,-0.05375614017248154,0.07330382615327835
1732873988722330600,6.85233056640625,0.01466076634824276,-0.009773843921720982,0.16982053220272064
1732873988732288000,6.8622880859375,-0.010995574295520782,0.010995574295520782,0.32131510972976685
1732873988742319600,6.872319580078125,-0.02871066704392433,0.005497787147760391,0.38667771220207214
1732873988752307700,6.8823076171875,-0.059864792972803116,-0.001832595793530345,0.4153883755207062
1732873988762308600,6.89230859375,-0.08124507963657379,-0.02871066704392433,0.403781920671463
1732873988772296700,6.902296630859375,-0.07269296050071716,-0.03726277872920036,0.3494149148464203
1732873988782328300,6.912328369140625,-0.056810468435287476,-0.018936822190880775,0.2834414839744568
1732873988792285700,6.92228564453125,-0.03298672288656235,0.00733038317412138,0.24007004499435425
1732873988802317300,6.9323173828125,0.012217304669320583,0.07880161702632904,0.27122417092323303
1732873988812305200,6.94230517578125,0.039706241339445114,0.15515977144241333,0.35613444447517395
1732873988822336800,6.952336669921875,0.05375614017248154,0.24617868661880493,0.4703662395477295
1732873988832294100,6.962294189453125,0.06414084881544113,0.323147714138031,0.5870414972305298
1732873988842325800,6.97232568359375,0.0708603709936142,0.384845107793808,0.6743952035903931
1732873988852313600,6.982313720703125,0.05619960278272629,0.4599815309047699,0.7031059265136719
1732873988862314200,6.992314208984375,-0.012828170321881771,0.44104471802711487,0.665232241153717
1732873988872302800,7.002302734375,-0.16249015927314758,0.4184426963329315,0.5082398653030396
1732873988882333700,7.012333740234375,-0.21319197118282318,0.3543018400669098,0.3292563557624817
1732873988892291800,7.022291748046875,-0.22663100063800812,0.23151792585849762,0.09529497474431992
1732873988902323500,7.032323486328125,-0.20036379992961884,0.10506882518529892,-0.19364428520202637
1732873988912311300,7.042311279296875,-0.13500121235847473,0.01710422709584236,-0.5198463201522827
1732873988922312400,7.0523125,-0.07147123664617538,-0.02871066704392433,-0.7898487448692322
1732873988932300300,7.06230029296875,-0.04153883829712868,-0.012217304669320583,-0.8686503767967224
1732873988942332000,7.072331787109375,0.01710422709584236,0.01771509274840355,-0.7024950385093689
1732873988952289300,7.082289306640625,0.15393804013729095,0.06536258012056351,-0.036651913076639175
1732873988962321000,7.09232080078125,0.2376265823841095,0.0806342139840126,0.53328537940979
1732873988972308700,7.102308837890625,0.28099802136421204,0.11301007121801376,1.0225883722305298
1732873988982310000,7.112309814453125,0.2620611786842346,0.15882496535778046,1.3158037662506104
1732873988992298000,7.122298095703125,0.17470745742321014,0.08796459436416626,1.4538593292236328
1732873989002328800,7.132328857421875,0.021380282938480377,0.0012217304902151227,1.463022232055664
1732873989012286700,7.14228662109375,-0.13866640627384186,-0.10323622822761536,1.3231340646743774
1732873989022320000,7.152320068359375,-0.3280346393585205,-0.22052235901355743,0.9089674949645996
1732873989032306400,7.162306396484375,-0.41233405470848083,-0.22846360504627228,0.5479460954666138
1732873989042308400,7.172308349609375,-0.43188172578811646,-0.2223549485206604,0.13072516024112701
1732873989052295400,7.18229541015625,-0.35246923565864563,-0.2565633952617645,-0.34758231043815613
1732873989062326500,7.192326416015625,-0.23090706765651703,-0.342695415019989,-0.8570439219474792
1732873989072315000,7.20231494140625,-0.15393804013729095,-0.3799581825733185,-1.2999212741851807
1732873989082316000,7.21231591796875,-0.12095131725072861,-0.4141666293144226,-1.5851953029632568
1732873989092304100,7.22230419921875,-0.10384709388017654,-0.5619960427284241,-1.652390480041504
1732873989102335700,7.232335693359375,-0.08002334833145142,-0.618195652961731,-1.4666874408721924
1732873989112293000,7.242293212890625,-0.04214970022439957,-0.607200026512146,-1.1410962343215942
1732873989122324700,7.25232470703125,0.0012217304902151227,-0.5320636034011841,-0.7171558141708374
1732873989132312600,7.2623125,0.042760565876960754,-0.413555771112442,-0.27488934993743896
1732873989142313700,7.272313720703125,0.10201449692249298,-0.2926044464111328,0.09957103431224823
1732873989152301600,7.282301513671875,0.17470745742321014,-0.18081611394882202,0.3549126982688904
1732873989162333200,7.292333251953125,0.23273965716362,-0.09407325088977814,0.4642575979232788
1732873989172290600,7.30229052734375,0.2822197377681732,0.009162978269159794,0.4245513379573822
1732873989182322200,7.312322265625,0.30482175946235657,0.06108652427792549,0.3481931984424591
1732873989192310300,7.322310302734375,0.33108896017074585,0.08735372871160507,0.2822197377681732
1732873989202311400,7.3323115234375,0.3701843321323395,0.06902777403593063,0.2577851414680481
1732873989212299300,7.34229931640625,0.423329621553421,0.05314527451992035,0.2681698501110077
1732873989222329600,7.35232958984375,0.4911356568336487,0.04337143152952194,0.2987131178379059
1732873989232288300,7.362288330078125,0.5674937963485718,0.030543262138962746,0.31093040108680725
1732873989242318600,7.372318603515625,0.6597344875335693,0.005497787147760391,0.2376265823841095
1732873989252307700,7.3823076171875,0.6866125464439392,0.006108652334660292,0.1417207419872284
1732873989262307600,7.3923076171875,0.6969972252845764,0.02076941914856434,0.04581489413976669
1732873989272296700,7.402296630859375,0.7134906053543091,0.009162978269159794,-0.02932153269648552
1732873989282327300,7.412327392578125,0.7544185519218445,-0.02321287989616394,-0.07757988572120667
1732873989292285700,7.42228564453125,0.8210029006004333,-0.051312681287527084,-0.10567969083786011
1732873989302316300,7.43231640625,0.8845328688621521,-0.04398229718208313,-0.11423180252313614
1732873989312305200,7.44230517578125,0.99876469373703,0.03176499158143997,-0.1007927656173706
1732873989322335700,7.452335693359375,1.1001683473587036,0.11056660860776901,-0.0757472887635231
1732873989332294100,7.462294189453125,1.2095131874084473,0.19425514340400696,-0.0403171069920063
1732873989342324700,7.47232470703125,1.3139711618423462,0.2626720666885376,-0.00366519158706069
1732873989352313900,7.48231396484375,1.4086552858352661,0.3066543638706207,0.02626720629632473
1732873989362313700,7.492313720703125,1.4844025373458862,0.30970868468284607,0.04886921867728233
1732873989372302600,7.502302490234375,1.5436564683914185,0.2926044464111328,0.07024950534105301
1732873989382333400,7.51233349609375,1.5845844745635986,0.27611109614372253,0.10201449692249298
1732873989392291600,7.52229150390625,1.6291775703430176,0.23579397797584534,0.1319468915462494
1732873989402322400,7.532322509765625,1.6560556888580322,0.21868975460529327,0.12400564551353455
1732873989412311300,7.542311279296875,1.6908750534057617,0.2217440903186798,0.08918632566928864
1732873989422311400,7.5523115234375,1.7360789775848389,0.2480112910270691,0.033597588539123535
1732873989432300300,7.56230029296875,1.7922786474227905,0.28466320037841797,-0.021991148591041565
1732873989442331000,7.572330810546875,1.8600846529006958,0.313373863697052,-0.06841690838336945
1732873989452289300,7.582289306640625,1.93766450881958,0.3433062732219696,-0.10506882518529892
1732873989462320000,7.592320068359375,2.0580050945281982,0.34025195240974426,-0.1472185254096985
1732873989472309000,7.60230908203125,2.1148154735565186,0.31459560990333557,-0.18509216606616974
1732873989482309000,7.61230908203125,2.161241292953491,0.2767219543457031,-0.2382374405860901
1732873989492298000,7.622298095703125,2.2033908367156982,0.24984388053417206,-0.29077184200286865
1732873989502328300,7.632328369140625,2.241875410079956,0.23640485107898712,-0.32620203495025635
1732873989512287000,7.642286865234375,2.283414363861084,0.23151792585849762,-0.34147366881370544
1732873989522317600,7.652317626953125,2.328618288040161,0.22479841113090515,-0.33597588539123535
1732873989532306400,7.662306396484375,2.4086415767669678,0.24007004499435425,-0.3017674386501312
1732873989542307800,7.672307861328125,2.4636194705963135,0.24923302233219147,-0.27061331272125244
1732873989552295400,7.68229541015625,2.517986536026001,0.25473082065582275,-0.23457226157188416
1732873989562327600,7.69232763671875,2.568077564239502,0.2632829248905182,-0.192422553896904
1732873989572315100,7.702315185546875,2.602285861968994,0.26511552929878235,-0.14905111491680145
1732873989582316300,7.71231640625,2.623666286468506,0.2535090744495392,-0.11178833991289139
1732873989592302300,7.72230224609375,2.629774808883667,0.2223549485206604,-0.09040805697441101
1732873989602335000,7.7323349609375,2.609616279602051,0.18448130786418915,-0.09651670604944229
1732873989612320800,7.74232080078125,2.568077564239502,0.13377949595451355,-0.1514945775270462
1732873989622323700,7.75232373046875,2.5411994457244873,0.11972958594560623,-0.19975294172763824
1732873989632311800,7.762311767578125,2.521040916442871,0.1258382350206375,-0.24190263450145721
1732873989642313000,7.77231298828125,2.510045289993286,0.1466076523065567,-0.2767219543457031
1732873989652300500,7.782300537109375,2.512488842010498,0.16249015927314758,-0.2919935882091522
1732873989662332400,7.79233251953125,2.5173757076263428,0.18509216606616974,-0.2828305959701538
1732873989672289800,7.802289794921875,2.5228734016418457,0.21135938167572021,-0.24495697021484375
1732873989682321400,7.8123212890625,2.5332581996917725,0.23884831368923187,-0.13561208546161652
1732873989692310000,7.82231005859375,2.5473079681396484,0.27611109614372253,-0.0354301854968071
1732873989702311400,7.8323115234375,2.557692766189575,0.294437050819397,0.06963863968849182
1732873989712299000,7.842299072265625,2.56868839263916,0.28099802136421204,0.15760323405265808
1732873989722331000,7.852330810546875,2.5723536014556885,0.2675589919090271,0.21319197118282318
1732873989732288000,7.8622880859375,2.548529863357544,0.3121521472930908,0.18020524084568024
1732873989742320000,7.872320068359375,2.4666738510131836,0.31581732630729675,0.06352998316287994
1732873989752307500,7.882307373046875,2.3164010047912598,0.2632829248905182,-0.09957103431224823
1732873989762308900,7.892308837890625,2.258979558944702,0.2724458873271942,-0.1459967941045761
1732873989772296700,7.902296630859375,2.22782564163208,0.303600013256073,-0.1466076523065567
1732873989782328300,7.912328369140625,2.208277940750122,0.3390302062034607,-0.12034045159816742
1732873989792285700,7.92228564453125,2.188730239868164,0.3591887652873993,-0.07696902006864548
1732873989802317600,7.932317626953125,2.168571710586548,0.37079519033432007,-0.025656340643763542
1732873989812305200,7.94230517578125,2.141693592071533,0.3646865487098694,0.012217304669320583
1732873989822337000,7.9523369140625,2.1001546382904053,0.3378084897994995,0.031154127791523933
1732873989832294100,7.962294189453125,1.9993619918823242,0.2583959996700287,-0.009162978269159794
1732873989842326000,7.972325927734375,1.9046778678894043,0.19547687470912933,-0.09040805697441101
1732873989852313600,7.982313720703125,1.795332908630371,0.15454891324043274,-0.19364428520202637
1732873989862314800,7.992314697265625,1.6963727474212646,0.13255776464939117,-0.29626965522766113
1732873989872302800,8.002302734375,1.6279559135437012,0.13561208546161652,-0.37079519033432007
1732873989882334500,8.01233447265625,1.587027907371521,0.16493362188339233,-0.38728857040405273
1732873989892291600,8.02229150390625,1.5680910348892212,0.22602014243602753,-0.34147366881370544
1732873989902323700,8.03232373046875,1.5497651100158691,0.3445279896259308,-0.15271630883216858
1732873989912311300,8.042311279296875,1.5265522003173828,0.4153883755207062,0.01466076634824276
1732873989922312700,8.052312744140625,1.4966198205947876,0.46303585171699524,0.16065755486488342
1732873989932300300,8.06230029296875,1.4618005752563477,0.46242499351501465,0.2583959996700287
1732873989942331400,8.072331298828125,1.4202617406845093,0.4202753007411957,0.2938261926174164
1732873989952289300,8.082289306640625,1.3671164512634277,0.3390302062034607,0.2742784917354584
1732873989962320400,8.0923203125,1.2950342893600464,0.24129177629947662,0.21991148591041565
1732873989972309000,8.10230908203125,1.1649199724197388,0.09346238523721695,0.09834930300712585
1732873989982309400,8.112309326171875,1.086118459701538,0.015882495790719986,0.01466076634824276
1732873989992298000,8.122298095703124,1.0231993198394775,-0.027488935738801956,-0.04581489413976669
1732873990002328800,8.132328857421875,0.9847147464752197,-0.06352998316287994,-0.07024950534105301
1732873990012287000,8.142286865234375,0.9529497623443604,-0.09834930300712585,-0.0555887371301651
1732873990022317800,8.15231787109375,0.9224064946174622,-0.1313360333442688,-0.005497787147760391
1732873990032306200,8.16230615234375,0.8967501521110535,-0.16371189057826996,0.07147123664617538
1732873990042307000,8.17230712890625,0.8759807348251343,-0.18020524084568024,0.16249015927314758
1732873990052295400,8.18229541015625,0.8521569967269897,-0.13805554807186127,0.2828305959701538
1732873990062326500,8.192326416015625,0.827722430229187,-0.09346238523721695,0.32620203495025635
1732873990072315000,8.20231494140625,0.788627028465271,-0.07696902006864548,0.34025195240974426
1732873990082315800,8.212315673828124,0.7336491346359253,-0.07147123664617538,0.3396410644054413
1732873990092304000,8.222303955078125,0.6640105247497559,-0.07147123664617538,0.3341432809829712
1732873990102335200,8.232335205078124,0.5907067060470581,-0.06780604273080826,0.32620203495025635
1732873990112293000,8.242293212890624,0.5106833577156067,-0.08246681094169617,0.3182607889175415
1732873990122324200,8.25232421875,0.37262779474258423,-0.13927727937698364,0.3139847218990326
1732873990132312300,8.262312255859374,0.2871066629886627,-0.2028072625398636,0.29626965522766113
1732873990142313000,8.27231298828125,0.2125810980796814,-0.30604347586631775,0.25045475363731384
1732873990152301600,8.282301513671875,0.14905111491680145,-0.43188172578811646,0.17470745742321014
1732873990162332700,8.292332763671874,0.09529497474431992,-0.5186246037483215,0.09957103431224823
1732873990172290600,8.30229052734375,0.048258353024721146,-0.5198463201522827,0.0507018156349659
1732873990182322200,8.312322265625,0.0024434609804302454,-0.4434881806373596,0.06108652427792549
1732873990192310300,8.322310302734374,-0.07391469180583954,-0.2736676335334778,0.21991148591041565
1732873990202310100,8.33231005859375,-0.1417207419872284,-0.20952677726745605,0.39095374941825867
1732873990212299000,8.342299072265625,-0.2272418737411499,-0.21624629199504852,0.5613851547241211
1732873990222329900,8.352329833984374,-0.3170390725135803,-0.28955012559890747,0.6823364496231079
1732873990232288000,8.3622880859375,-0.3805690407752991,-0.342695415019989,0.7189884185791016
1732873990242319600,8.372319580078125,-0.43676865100860596,-0.3738495409488678,0.6713408827781677
1732873990252307700,8.3823076171875,-0.485027015209198,-0.3891211748123169,0.5626068711280823
1732873990262308600,8.39230859375,-0.5229006409645081,-0.37751471996307373,0.4434881806373596
1732873990272296700,8.402296630859375,-0.5186246037483215,-0.31520646810531616,0.34208452701568604
1732873990282328300,8.412328369140624,-0.484416127204895,-0.23151792585849762,0.35613444447517395
1732873990292285700,8.42228564453125,-0.45142942667007446,-0.11911872029304504,0.4398229718208313
1732873990302317000,8.432317138671875,-0.4331034719944,-0.029932396486401558,0.5632177591323853
1732873990312305200,8.44230517578125,-0.43127086758613586,0.009773843921720982,0.684779942035675
1732873990322336000,8.4523359375,-0.43799036741256714,0.012828170321881771,0.7623597979545593
1732873990332294100,8.462294189453125,-0.4605923891067505,-0.00366519158706069,0.749531626701355
1732873990342324700,8.47232470703125,-0.5253441333770752,-0.06841690838336945,0.504574716091156
1732873990352313600,8.482313720703125,-0.5742133259773254,-0.12400564551353455,0.19486601650714874
1732873990362314000,8.49231396484375,-0.5894849896430969,-0.16982053220272064,-0.2028072625398636
1732873990372302800,8.502302734375,-0.5583308339118958,-0.1612684279680252,-0.627358615398407
1732873990382334500,8.51233447265625,-0.5149593949317932,-0.07819075137376785,-1.0012081861495972
1732873990392291800,8.522291748046875,-0.4856378734111786,0.04886921867728233,-1.253495454788208
1732873990402323500,8.532323486328124,-0.46547931432724,0.17043140530586243,-1.3335188627243042
1732873990412311300,8.542311279296875,-0.4239404797554016,0.2816088795661926,-1.1154398918151855
1732873990422312400,8.5523125,-0.37079519033432007,0.3066543638706207,-0.8032878041267395
1732873990432300500,8.562300537109374,-0.2981022298336029,0.29138273000717163,-0.44287729263305664
1732873990442331100,8.5723310546875,-0.23884831368923187,0.2125810980796814,-0.10323622822761536
1732873990452289300,8.582289306640625,-0.1973094791173935,0.1160643994808197,0.14355333149433136
1732873990462320600,8.592320556640624,-0.16432274878025055,0.07452555745840073,0.27488934993743896
1732873990472309000,8.60230908203125,-0.13927727937698364,0.09773843735456467,0.3084869384765625
1732873990482309400,8.612309326171875,-0.11911872029304504,0.1466076523065567,0.27061331272125244
1732873990492298000,8.622298095703124,-0.1014036312699318,0.18631389737129211,0.15515977144241333
1732873990502329000,8.6323291015625,-0.09896016865968704,0.18020524084568024,0.07880161702632904
1732873990512287200,8.642287353515625,-0.10873401165008545,0.15271630883216858,0.02076941914856434
1732873990522318000,8.652318115234374,-0.1362229436635971,0.12278391420841217,-0.012828170321881771
1732873990532306400,8.662306396484375,-0.18325957655906677,0.08002334833145142,-0.02321287989616394
1732873990542307300,8.672307373046875,-0.24556782841682434,0.013439035043120384,-0.012828170321881771
1732873990552295400,8.68229541015625,-0.31093040108680725,-0.05497787147760391,0.013439035043120384
1732873990562326800,8.692326904296875,-0.3982841372489929,-0.11972958594560623,0.07330382615327835
1732873990572315100,8.702315185546874,-0.42271876335144043,-0.1264491081237793,0.10995574295520782
1732873990582316000,8.71231591796875,-0.41722095012664795,-0.11484266817569733,0.13500121235847473
1732873990592302300,8.72230224609375,-0.39156460762023926,-0.0910189226269722,0.14782938361167908
1732873990602334500,8.73233447265625,-0.3549126982688904,-0.06475171446800232,0.14294247329235077
1732873990612292000,8.7422919921875,-0.3066543638706207,-0.033597588539123535,0.12889257073402405
1732873990622323200,8.7523232421875,-0.251676470041275,0.004886921960860491,0.1111774742603302
1732873990632311800,8.762311767578124,-0.16310101747512817,0.08368854224681854,0.11239920556545258
1732873990642312400,8.7723125,-0.11423180252313614,0.14233160018920898,0.15577064454555511
1732873990652300500,8.782300537109375,-0.08552113175392151,0.16798794269561768,0.22968533635139465
1732873990662331600,8.79233154296875,-0.07024950534105301,0.15760323405265808,0.3176499307155609
1732873990672289500,8.80228955078125,-0.06719517707824707,0.11789698898792267,0.39156460762023926
1732873990682320600,8.812320556640625,-0.0708603709936142,0.07330382615327835,0.42210787534713745
1732873990692310300,8.822310302734374,-0.08552113175392151,0.024434609338641167,0.3933972120285034
1732873990702310700,8.832310546875,-0.09529497474431992,-0.019547687843441963,0.3017674386501312
1732873990712298800,8.842298828125,-0.09407325088977814,-0.051312681287527084,0.1111774742603302
1732873990722330000,8.852330078125,-0.07513642311096191,-0.0708603709936142,-0.0012217304902151227
1732873990732288000,8.8622880859375,-0.04398229718208313,-0.10812314599752426,-0.06902777403593063
1732873990742319000,8.872319091796875,0.012828170321881771,-0.10995574295520782,-0.06475171446800232
1732873990752307700,8.8823076171875,0.1111774742603302,-0.06108652427792549,0.018325956538319588
1732873990762308400,8.892308349609374,0.23457226157188416,0.01160643994808197,0.16249015927314758
1732873990772296700,8.902296630859375,0.33169981837272644,0.05314527451992035,0.31154128909111023
1732873990782328000,8.912328125,0.36224308609962463,0.010995574295520782,0.36590829491615295
1732873990792285700,8.92228564453125,0.31520646810531616,-0.060475658625364304,0.2565633952617645
1732873990802317300,8.9323173828125,0.2272418737411499,-0.13927727937698364,0.06475171446800232
1732873990812305200,8.94230517578125,0.10995574295520782,-0.22113321721553802,-0.1258382350206375
1732873990822336800,8.952336669921875,0.08368854224681854,-0.25595253705978394,-0.2076941877603531
1732873990832294100,8.962294189453125,0.1661553531885147,-0.22602014243602753,-0.11911872029304504
1732873990842326000,8.972325927734374,0.30054569244384766,-0.10751228034496307,0.14966198801994324
1732873990852313600,8.982313720703125,0.5540547966957092,0.07208210229873657,0.7825183868408203
1732873990862314800,8.992314697265625,0.7214318513870239,0.1820378452539444,1.2198978662490845
1732873990872302800,9.002302734375,0.8301658630371094,0.29626965522766113,1.560760736465454
1732873990882334000,9.012333984375,0.8704829812049866,0.3781255781650543,1.7385225296020508
1732873990892291800,9.022291748046875,0.8216137290000916,0.42149701714515686,1.7220290899276733
1732873990902322700,9.03232275390625,0.6664539575576782,0.4404338300228119,1.46424400806427
1732873990912311300,9.042311279296875,0.4300491213798523,0.3646865487098694,0.9340129494667053
1732873990922311200,9.052311279296875,0.16493362188339233,0.21624629199504852,0.20036379992961884
1732873990932300300,9.06230029296875,-0.1765400618314743,-0.10201449692249298,-0.9651671051979065
1732873990942331000,9.072330810546875,-0.2938261926174164,-0.27550023794174194,-1.5735888481140137
1732873990952289300,9.082289306640625,-0.31642818450927734,-0.3878994286060333,-1.9413297176361084
1732873990962320000,9.09231982421875,-0.24862214922904968,-0.4251621961593628,-2.045787811279297
1732873990972309000,9.10230908203125,-0.10690141469240189,-0.3885102868080139,-1.9150625467300415
1732873990982310000,9.112309814453125,0.04886921867728233,-0.35124751925468445,-1.6102408170700073
1732873990992298000,9.122298095703124,0.2015855312347412,-0.26633724570274353,-1.19912850856781
1732873991002329300,9.132329345703125,0.36163222789764404,-0.11850785464048386,-0.5723807215690613
1732873991012286700,9.14228662109375,0.4343251883983612,-0.005497787147760391,-0.24068090319633484
1732873991022317800,9.15231787109375,0.4801400899887085,0.07880161702632904,-0.007941247895359993
1732873991032306400,9.162306396484375,0.4990769028663635,0.12889257073402405,0.12461651116609573
1732873991042307000,9.17230712890625,0.48869219422340393,0.13866640627384186,0.1667662113904953
1732873991052295400,9.18229541015625,0.45753806829452515,0.09529497474431992,0.1368338167667389
1732873991062326500,9.192326416015625,0.4178318381309509,0.015882495790719986,0.06108652427792549
1732873991072315000,9.20231494140625,0.35674530267715454,-0.09834930300712585,-0.056810468435287476
1732873991082315800,9.212315673828124,0.30604347586631775,-0.17287486791610718,-0.10445795953273773
1732873991092304100,9.22230419921875,0.24556782841682434,-0.24129177629947662,-0.12461651116609573
1732873991102335200,9.232335205078124,0.18875735998153687,-0.2767219543457031,-0.1160643994808197
1732873991112293000,9.242293212890624,0.1508837193250656,-0.27000242471694946,-0.08979719132184982
1732873991122324200,9.25232421875,0.1270599663257599,-0.22907446324825287,-0.05192354694008827
1732873991132312300,9.262312255859374,0.12034045159816742,-0.18936823308467865,0.0012217304902151227
1732873991142313000,9.27231298828125,0.1264491081237793,-0.16371189057826996,0.06352998316287994
1732873991152301600,9.282301513671875,0.13377949595451355,-0.14355333149433136,0.15393804013729095
1732873991162332700,9.292332763671874,0.13377949595451355,-0.14294247329235077,0.19853121042251587
1732873991172290600,9.30229052734375,0.13561208546161652,-0.14782938361167908,0.22602014243602753
1732873991182321700,9.31232177734375,0.13439035415649414,-0.15515977144241333,0.23396138846874237
1732873991192310300,9.322310302734374,0.1264491081237793,-0.1661553531885147,0.22479841113090515
1732873991202310700,9.332310546875,0.11239920556545258,-0.17531833052635193,0.19364428520202637
1732873991212299000,9.342299072265625,0.11056660860776901,-0.16859880089759827,0.14355333149433136
1732873991222330400,9.352330322265624,0.1062905490398407,-0.13561208546161652,0.06291911751031876
1732873991232288000,9.3622880859375,0.08552113175392151,-0.10201449692249298,0.03420845419168472
1732873991242318800,9.37231884765625,0.054367005825042725,-0.08918632566928864,0.03420845419168472
1732873991252307700,9.3823076171875,0.01710422709584236,-0.07696902006864548,0.05803219974040985
1732873991262308000,9.39230810546875,-0.01038470957428217,-0.07269296050071716,0.09407325088977814
1732873991272296700,9.402296630859375,-0.030543262138962746,-0.13561208546161652,0.12095131725072861
1732873991282328300,9.412328369140624,-0.0403171069920063,-0.2119702398777008,0.13927727937698364
1732873991292286000,9.422285888671874,-0.1111774742603302,-0.34636059403419495,0.1618792861700058
1732873991302316300,9.43231640625,-0.16920967400074005,-0.42149701714515686,0.16798794269561768
1732873991312305200,9.44230517578125,-0.17837265133857727,-0.4080579876899719,0.20952677726745605
1732873991322336500,9.45233642578125,-0.17043140530586243,-0.3634648323059082,0.2834414839744568
1732873991332294100,9.462294189453125,-0.16065755486488342,-0.33047810196876526,0.3481931984424591
1732873991342325800,9.47232568359375,-0.15332718193531036,-0.36713001132011414,0.3445279896259308
1732873991352313600,9.482313720703125,-0.1514945775270462,-0.4404338300228119,0.251676470041275
1732873991362315000,9.49231494140625,-0.1472185254096985,-0.4398229718208313,0.13011430203914642
1732873991372302800,9.502302734375,-0.15027284622192383,-0.24007004499435425,0.08429940044879913
1732873991382334500,9.51233447265625,-0.19058994948863983,-0.03787364438176155,0.2015855312347412
1732873991392291800,9.522291748046875,-0.2871066629886627,0.10384709388017654,0.39584067463874817
1732873991402322200,9.532322265625,-0.44104471802711487,0.08857546001672745,0.5907067060470581
1732873991412311300,9.542311279296875,-0.6603453159332275,-0.018936822190880775,0.7483099102973938
1732873991422311200,9.552311279296875,-0.8747590184211731,-0.16859880089759827,0.8228355050086975
1732873991432300300,9.56230029296875,-1.027475357055664,-0.25595253705978394,0.7623597979545593
1732873991442331000,9.572330810546875,-1.1117748022079468,-0.25106561183929443,0.39095374941825867
1732873991452289300,9.582289306640625,-1.0512990951538086,-0.15943582355976105,0.014049900695681572
1732873991462320600,9.592320556640624,-0.9291260242462158,-0.015271631069481373,-0.3683517575263977
1732873991472309000,9.60230908203125,-0.7617489695549011,0.15271630883216858,-0.6725626587867737
1732873991482310100,9.61231005859375,-0.5571091175079346,0.30054569244384766,-0.8222246170043945
1732873991492298000,9.622298095703124,-0.35063666105270386,0.4050036668777466,-0.7715228199958801
1732873991502329600,9.63232958984375,-0.16310101747512817,0.45265114307403564,-0.5674937963485718
1732873991512287000,9.642286865234375,0.04948008432984352,0.4660901725292206,-0.17531833052635193
1732873991522318600,9.652318603515624,0.13011430203914642,0.42638394236564636,0.010995574295520782
1732873991532306400,9.662306396484375,0.14966198801994324,0.3701843321323395,0.08124507963657379
1732873991542307000,9.67230712890625,0.11239920556545258,0.3194825351238251,0.04153883829712868
1732873991552295700,9.682295654296874,0.016493361443281174,0.22418753802776337,-0.07757988572120667
1732873991562326800,9.692326904296875,-0.10934487730264664,0.08979719132184982,-0.2376265823841095
1732873991572315100,9.702315185546874,-0.22418753802776337,-0.0354301854968071,-0.3732386529445648
1732873991582315800,9.712315673828124,-0.2981022298336029,-0.09957103431224823,-0.44654250144958496
1732873991592302300,9.72230224609375,-0.313373863697052,-0.10812314599752426,-0.4349360466003418
1732873991602334200,9.732334228515626,-0.2687807083129883,-0.06719517707824707,-0.36651915311813354
1732873991612322300,9.742322265625,-0.2064724564552307,0.001832595793530345,-0.2791654169559479
1732873991622323200,9.7523232421875,-0.13927727937698364,0.07941248267889023,-0.20341812074184418
1732873991632311800,9.762311767578124,-0.09040805697441101,0.13805554807186127,-0.1618792861700058
1732873991642312400,9.7723125,-0.06658431142568588,0.1667662113904953,-0.14416420459747314
1732873991652300500,9.782300537109375,-0.060475658625364304,0.17959438264369965,-0.1459967941045761
1732873991662332000,9.792331787109376,-0.0910189226269722,0.11911872029304504,-0.1508837193250656
1732873991672289500,9.80228955078125,-0.13439035415649414,0.033597588539123535,-0.1319468915462494
1732873991682320600,9.812320556640625,-0.19120082259178162,-0.07696902006864548,-0.08735372871160507
1732873991692310000,9.82231005859375,-0.24923302233219147,-0.21319197118282318,-0.025045474991202354
1732873991702311000,9.832310791015624,-0.27550023794174194,-0.32559117674827576,0.04398229718208313
1732873991712299000,9.842299072265625,-0.2638937830924988,-0.3384193480014801,0.12461651116609573
1732873991722329900,9.852329833984374,-0.22846360504627228,-0.27122417092323303,0.21930062770843506
1732873991732288300,9.862288330078124,-0.18631389737129211,-0.1270599663257599,0.39645153284072876
1732873991742319000,9.872319091796875,-0.17837265133857727,-0.060475658625364304,0.5210680365562439
1732873991752307700,9.8823076171875,-0.17959438264369965,-0.02076941914856434,0.6261368989944458
1732873991762308000,9.89230810546875,-0.1973094791173935,-0.009162978269159794,0.6866125464439392
1732873991772296700,9.902296630859375,-0.23884831368923187,-0.05619960278272629,0.6695083379745483
1732873991782327800,9.912327880859374,-0.3066543638706207,-0.14049901068210602,0.5473352670669556
1732873991792285700,9.92228564453125,-0.4050036668777466,-0.25961771607398987,0.3170390725135803
1732873991802317000,9.932317138671875,-0.49235737323760986,-0.3549126982688904,0.012828170321881771
1732873991812305400,9.942305419921874,-0.5613851547241211,-0.39767327904701233,-0.43676865100860596
1732873991822336300,9.952336181640625,-0.5326744914054871,-0.3292563557624817,-0.6414085030555725
1732873991832294100,9.962294189453125,-0.39645153284072876,-0.16310101747512817,-0.7257078886032104
1732873991842325800,9.97232568359375,-0.16982053220272064,0.00366519158706069,-0.6646214127540588
1732873991852313600,9.982313720703125,0.07513642311096191,0.17104226350784302,-0.4398229718208313
1732873991862314800,9.992314697265625,0.2993239760398865,0.34697145223617554,-0.1111774742603302
1732873991872302800,10.002302734375,0.4746423065662384,0.4331034719944,0.18509216606616974
1732873991882334000,10.012333984375,0.5473352670669556,0.3878994286060333,0.3292563557624817
1732873991892291800,10.022291748046875,0.48258355259895325,0.24678955972194672,0.22113321721553802
1732873991902323700,10.03232373046875,0.37629300355911255,0.04459316283464432,0.02626720629632473
1732873991912311300,10.042311279296875,0.25106561183929443,-0.14844025671482086,-0.14233160018920898
1732873991922312400,10.0523125,0.16310101747512817,-0.26145032048225403,-0.19364428520202637
1732873991932300300,10.06230029296875,0.13988813757896423,-0.27611109614372253,-0.08735372871160507
1732873991942330600,10.07233056640625,0.192422553896904,-0.21991148591041565,0.15515977144241333
1732873991952289300,10.082289306640625,0.32559117674827576,-0.13011430203914642,0.5827654600143433
1732873991962319600,10.092319580078126,0.3787364661693573,-0.08674286305904388,0.7531968355178833
1732873991972309000,10.10230908203125,0.37629300355911255,-0.04398229718208313,0.750142514705658
1732873991982308600,10.11230859375,0.3390302062034607,0.0012217304902151227,0.5613851547241211
1732873991992298000,10.122298095703124,0.2791654169559479,0.06536258012056351,0.2535090744495392
1732873992002328600,10.13232861328125,0.20463985204696655,0.09896016865968704,-0.07330382615327835
1732873992012286700,10.14228662109375,0.12339477986097336,0.07757988572120667,-0.35735616087913513
1732873992022317000,10.152317138671876,0.06658431142568588,0.02321287989616394,-0.5607742667198181
1732873992032306400,10.162306396484375,0.054367005825042725,-0.07513642311096191,-0.694553792476654
1732873992042307600,10.1723076171875,0.056810468435287476,-0.14844025671482086,-0.6682865619659424
1732873992052295400,10.18229541015625,0.05619960278272629,-0.23640485107898712,-0.5674937963485718
1732873992062327000,10.1923271484375,0.06658431142568588,-0.2785545587539673,-0.4282165467739105
1732873992072315100,10.202315185546874,0.07941248267889023,-0.27122417092323303,-0.2785545587539673
1732873992082316000,10.21231591796875,0.08674286305904388,-0.23335053026676178,-0.13866640627384186
1732873992092304000,10.222303955078125,0.10384709388017654,-0.16493362188339233,-0.024434609338641167
1732873992102335000,10.2323349609375,0.15027284622192383,-0.06291911751031876,0.10751228034496307
1732873992112293000,10.242293212890624,0.19853121042251587,-0.00366519158706069,0.17043140530586243
1732873992122324200,10.25232421875,0.24617868661880493,0.033597588539123535,0.19486601650714874
1732873992132312600,10.2623125,0.2828305959701538,0.04092797264456749,0.1771509200334549
1732873992142313200,10.272313232421874,0.2968805134296417,0.015271631069481373,0.12828169763088226
1732873992152301600,10.282301513671875,0.28527405858039856,-0.030543262138962746,0.06230825558304787
1732873992162333000,10.2923330078125,0.26022860407829285,-0.09224065393209457,-0.006719517521560192
1732873992172290600,10.30229052734375,0.2174680233001709,-0.18448130786418915,-0.09468411654233932
1732873992182322000,10.312322021484375,0.18875735998153687,-0.19303341209888458,-0.10812314599752426
1732873992192310300,10.322310302734374,0.16004669666290283,-0.1875356286764145,-0.08185594528913498
1732873992202311000,10.332310791015624,0.12400564551353455,-0.18509216606616974,-0.036651913076639175
1732873992212299000,10.342299072265625,0.07513642311096191,-0.18020524084568024,0.0012217304902151227
1732873992222330000,10.352330078125,0.04092797264456749,-0.15760323405265808,0.025656340643763542
1732873992232288000,10.3622880859375,0.02321287989616394,-0.11545353382825851,0.033597588539123535
1732873992242319000,10.372319091796875,0.01710422709584236,-0.06902777403593063,0.039706241339445114
1732873992252307700,10.3823076171875,-0.00366519158706069,0.02932153269648552,0.06658431142568588
1732873992262308000,10.39230810546875,-0.019547687843441963,0.06902777403593063,0.06780604273080826
1732873992272296700,10.402296630859375,-0.054367005825042725,0.0959058403968811,0.03237585723400116
1732873992282327800,10.412327880859374,-0.13500121235847473,0.11178833991289139,-0.02687807008624077
1732873992292285700,10.42228564453125,-0.22602014243602753,0.07269296050071716,-0.10506882518529892
1732873992302316800,10.43231689453125,-0.31520646810531616,-0.014049900695681572,-0.17776179313659668
1732873992312305200,10.44230517578125,-0.394008070230484,-0.1007927656173706,-0.21563543379306793
1732873992322336300,10.452336181640625,-0.4331034719944,-0.08368854224681854,-0.1869247704744339
1732873992332294100,10.462294189453125,-0.37140607833862305,-0.006108652334660292,-0.13561208546161652
1732873992342326000,10.472325927734374,-0.2632829248905182,0.04459316283464432,-0.08979719132184982
1732873992352313900,10.48231396484375,-0.15393804013729095,0.04642575979232788,-0.06780604273080826
1732873992362315000,10.49231494140625,-0.07819075137376785,0.05192354694008827,-0.05864306539297104
1732873992372302800,10.502302734375,-0.051312681287527084,0.07635815441608429,-0.04581489413976669
1732873992382333700,10.512333740234375,-0.04764748737215996,0.09346238523721695,-0.03481931984424591
1732873992392291800,10.522291748046875,-0.0910189226269722,-0.006108652334660292,-0.05619960278272629
1732873992402323700,10.53232373046875,-0.1563815027475357,-0.1612684279680252,-0.14049901068210602
1732873992412311300,10.542311279296875,-0.2168571650981903,-0.30604347586631775,-0.28038713335990906
1732873992422312700,10.552312744140625,-0.22418753802776337,-0.31459560990333557,-0.4080579876899719
1732873992432300300,10.56230029296875,-0.1875356286764145,-0.19486601650714874,-0.4196644127368927
1732873992442332000,10.572331787109375,-0.12339477986097336,-0.025656340643763542,-0.24862214922904968
1732873992452289300,10.582289306640625,-0.042760565876960754,0.11911872029304504,0.09346238523721695
1732873992462321200,10.592321044921874,0.028099801391363144,0.16982053220272064,0.5064072608947754
1732873992472309000,10.60230908203125,0.021380282938480377,0.00366519158706069,0.9822713136672974
1732873992482308600,10.61230859375,-0.10323622822761536,-0.15821409225463867,1.0867292881011963
1732873992492298000,10.622298095703124,-0.22357667982578278,-0.3084869384765625,0.9816604256629944
1732873992502328300,10.632328369140625,-0.304210901260376,-0.41233405470848083,0.6957755088806152
1732873992512287200,10.642287353515625,-0.36163222789764404,-0.4343251883983612,0.31581732630729675
1732873992522317600,10.652317626953124,-0.41111230850219727,-0.394008070230484,-0.08735372871160507
1732873992532306700,10.662306640625,-0.42088615894317627,-0.3170390725135803,-0.43737950921058655
1732873992542307800,10.672307861328125,-0.33475416898727417,-0.15821409225463867,-0.797789990901947
1732873992552295700,10.682295654296874,-0.28955012559890747,-0.039095375686883926,-0.8912523984909058
1732873992562327000,10.6923271484375,-0.2590068578720093,0.07024950534105301,-0.8539896011352539
1732873992572315100,10.702315185546874,-0.21868975460529327,0.14294247329235077,-0.7183775305747986
1732873992582316300,10.71231640625,-0.19608774781227112,0.17409659922122955,-0.523511528968811
1732873992592302600,10.722302490234375,-0.20525072515010834,0.17898350954055786,-0.2981022298336029
1732873992602334700,10.732334716796874,-0.242513507604599,0.16065755486488342,-0.08491026610136032
1732873992612292400,10.742292236328124,-0.3341432809829712,0.06475171446800232,0.13866640627384186
1732873992622323700,10.75232373046875,-0.39217549562454224,-0.03237585723400116,0.19975294172763824
1732873992632311800,10.762311767578124,-0.42210787534713745,-0.11728613078594208,0.2015855312347412
1732873992642312400,10.7723125,-0.42577308416366577,-0.17409659922122955,0.17837265133857727
1732873992652300800,10.78230078125,-0.40683624148368835,-0.1973094791173935,0.15760323405265808
1732873992662332000,10.792331787109376,-0.3591887652873993,-0.16982053220272064,0.14477506279945374
1732873992672289800,10.802289794921874,-0.28955012559890747,-0.08979719132184982,0.13744467496871948
1732873992682321200,10.812321044921875,-0.19914206862449646,0.016493361443281174,0.11972958594560623
1732873992692310000,10.82231005859375,-0.09040805697441101,0.15515977144241333,0.09773843735456467
1732873992702311000,10.832310791015624,-0.05375614017248154,0.1973094791173935,0.07635815441608429
1732873992712299000,10.842299072265625,-0.048258353024721146,0.18448130786418915,0.059864792972803116
1732873992722330400,10.852330322265624,-0.06658431142568588,0.14782938361167908,0.06719517707824707
1732873992732288000,10.8622880859375,-0.0910189226269722,0.10567969083786011,0.08735372871160507
1732873992742319400,10.8723193359375,-0.11423180252313614,0.056810468435287476,0.11301007121801376
1732873992752307700,10.8823076171875,-0.1258382350206375,0.009162978269159794,0.13500121235847473
1732873992762308000,10.89230810546875,-0.11728613078594208,-0.04153883829712868,0.17287486791610718
1732873992772296700,10.902296630859375,-0.1014036312699318,-0.05803219974040985,0.2070833146572113
1732873992782327800,10.912327880859374,-0.0806342139840126,-0.05864306539297104,0.25045475363731384
1732873992792285700,10.92228564453125,-0.06169738993048668,-0.06352998316287994,0.29993483424186707
1732873992802316800,10.93231689453125,-0.04581489413976669,-0.06414084881544113,0.35124751925468445
1732873992812305400,10.942305419921874,-0.03176499158143997,-0.05253441259264946,0.384845107793808
1732873992822336000,10.9523359375,-0.018936822190880775,-0.039706241339445114,0.3781255781650543
1732873992832294100,10.962294189453125,-0.02687807008624077,-0.03787364438176155,0.28466320037841797
1732873992842325200,10.9723251953125,-0.042760565876960754,-0.04642575979232788,0.16737708449363708
1732873992852313600,10.982313720703125,-0.06902777403593063,-0.07330382615327835,0.022602014243602753
1732873992862314200,10.992314208984375,-0.11056660860776901,-0.11850785464048386,-0.1264491081237793
1732873992872302800,11.002302734375,-0.152105450630188,-0.1472185254096985,-0.25045475363731384
1732873992882334500,11.01233447265625,-0.1612684279680252,-0.1368338167667389,-0.31581732630729675
1732873992892291800,11.022291748046875,-0.13866640627384186,-0.11789698898792267,-0.3066543638706207
1732873992902323500,11.032323486328124,-0.05497787147760391,-0.0861319974064827,-0.22540926933288574
1732873992912311300,11.042311279296875,0.09529497474431992,0.006719517521560192,-0.00427605677396059
1732873992922312700,11.052312744140625,0.16859880089759827,0.039706241339445114,0.14966198801994324
1732873992932300300,11.06230029296875,0.2125810980796814,-0.009773843921720982,0.2535090744495392
1732873992942332000,11.072331787109375,0.2125810980796814,-0.15027284622192383,0.27122417092323303
1732873992952289300,11.082289306640625,0.16798794269561768,-0.3023782968521118,0.20097467303276062
1732873992962321000,11.09232080078125,0.11423180252313614,-0.3927863538265228,0.09773843735456467
1732873992972309000,11.10230908203125,0.08796459436416626,-0.3995058834552765,0.04153883829712868
1732873992982310100,11.11231005859375,0.1160643994808197,-0.304210901260376,0.1258382350206375
1732873992992298000,11.122298095703124,0.1563815027475357,-0.1722639948129654,0.27550023794174194
1732873993002329300,11.132329345703125,0.19058994948863983,-0.06841690838336945,0.4202753007411957
1732873993012286700,11.14228662109375,0.20463985204696655,-0.03787364438176155,0.4758640229701996
1732873993022317800,11.15231787109375,0.19486601650714874,-0.019547687843441963,0.39645153284072876
1732873993032306400,11.162306396484375,0.16798794269561768,0.01466076634824276,0.17837265133857727
1732873993042307600,11.1723076171875,0.1313360333442688,0.0507018156349659,-0.12461651116609573
1732873993052295400,11.18229541015625,0.06230825558304787,0.03726277872920036,-0.5497786998748779
1732873993062326800,11.192326904296875,0.03237585723400116,0.005497787147760391,-0.7574729323387146
1732873993072315000,11.20231494140625,0.03787364438176155,-0.01160643994808197,-0.8808676600456238
1732873993082316000,11.21231591796875,0.06108652427792549,-0.039095375686883926,-0.9156870245933533
1732873993092304100,11.22230419921875,0.0806342139840126,-0.08491026610136032,-0.8509352803230286
1732873993102335700,11.232335693359374,0.11056660860776901,-0.09712757170200348,-0.7049384713172913
1732873993112293000,11.242293212890624,0.1569923609495163,-0.07880161702632904,-0.5064072608947754
1732873993122324700,11.25232470703125,0.20097467303276062,-0.04092797264456749,-0.29504790902137756
1732873993132312300,11.262312255859374,0.23029619455337524,0.01710422709584236,-0.05742133408784866
1732873993142313000,11.27231298828125,0.22663100063800812,0.0507018156349659,0.016493361443281174
1732873993152301600,11.282301513671875,0.20097467303276062,0.07696902006864548,0.03237585723400116
1732873993162333000,11.2923330078125,0.15577064454555511,0.08796459436416626,0.005497787147760391
1732873993172290600,11.30229052734375,0.09407325088977814,0.06291911751031876,-0.048258353024721146
1732873993182322000,11.312322021484375,0.036651913076639175,0.01710422709584236,-0.10384709388017654
1732873993192310300,11.322310302734374,-0.004886921960860491,-0.031154127791523933,-0.14416420459747314
1732873993202310700,11.332310546875,-0.025045474991202354,-0.09834930300712585,-0.14294247329235077
1732873993212299000,11.342299072265625,-0.01038470957428217,-0.13255776464939117,-0.09712757170200348
1732873993222330400,11.352330322265624,0.027488935738801956,-0.15027284622192383,-0.036041051149368286
1732873993232288000,11.3622880859375,0.07269296050071716,-0.16798794269561768,0.021991148591041565
1732873993242319000,11.372319091796875,0.11178833991289139,-0.18387043476104736,0.06230825558304787
1732873993252694300,11.3826943359375,0.13561208546161652,-0.18997909128665924,0.09224065393209457
1732873993262681300,11.392681396484376,0.1411098688840866,-0.19364428520202637,0.11484266817569733
1732873993272670000,11.402669921875,0.13011430203914642,-0.18631389737129211,0.14049901068210602
1732873993282701800,11.412701904296876,0.1111774742603302,-0.18570303916931152,0.16371189057826996
1732873993292659200,11.4226591796875,0.08246681094169617,-0.18570303916931152,0.20036379992961884
1732873993302690800,11.43269091796875,0.05009094998240471,-0.15882496535778046,0.24434609711170197
1732873993312678700,11.4426787109375,0.01160643994808197,-0.13866640627384186,0.2816088795661926
1732873993322709800,11.452709716796875,-0.0354301854968071,-0.14538592100143433,0.30054569244384766
1732873993332667600,11.462667724609375,-0.08918632566928864,-0.16982053220272064,0.2877175211906433
1732873993342698500,11.472698486328126,-0.13255776464939117,-0.192422553896904,0.23518311977386475
1732873993352687400,11.482687255859375,-0.1612684279680252,-0.19608774781227112,0.11911872029304504
1732873993362687500,11.4926875,-0.14416420459747314,-0.18081611394882202,0.04153883829712868
1732873993372676000,11.502676025390626,-0.11301007121801376,-0.13439035415649414,-0.018936822190880775
1732873993382707200,11.512707275390625,-0.05742133408784866,-0.04459316283464432,-0.04459316283464432
1732873993392665000,11.5226650390625,-0.01771509274840355,-0.004886921960860491,-0.06475171446800232
1732873993402696700,11.53269677734375,-0.02076941914856434,-0.00855211354792118,-0.1007927656173706
1732873993412684800,11.542684814453125,-0.08185594528913498,-0.031154127791523933,-0.14355333149433136
1732873993422686000,11.55268603515625,-0.23518311977386475,-0.06658431142568588,-0.17409659922122955
1732873993432673800,11.562673828125,-0.2968805134296417,-0.08307767659425735,-0.12400564551353455
1732873993442705400,11.572705322265625,-0.29993483424186707,-0.08979719132184982,0.003054326167330146
1732873993452663000,11.5826630859375,-0.2681698501110077,-0.08796459436416626,0.1508837193250656
1732873993462694700,11.592694580078126,-0.21013765037059784,-0.05925392732024193,0.23151792585849762
1732873993472682200,11.60268212890625,-0.13500121235847473,-0.00427605677396059,0.2015855312347412
1732873993482683100,11.61268310546875,-0.06414084881544113,0.05742133408784866,0.09407325088977814
1732873993492671200,11.622671142578126,0.00427605677396059,0.17409659922122955,0.036651913076639175
1732873993502702800,11.632702880859375,-0.01160643994808197,0.19425514340400696,0.16004669666290283
1732873993512660500,11.642660400390625,-0.08124507963657379,0.10751228034496307,0.3494149148464203
1732873993522692000,11.652692138671876,-0.1918116807937622,-0.024434609338641167,0.5216789245605469
1732873993532680000,11.662679931640625,-0.3194825351238251,-0.1618792861700058,0.5815436840057373
1732873993542679800,11.6726796875,-0.4239404797554016,-0.2828305959701538,0.475253164768219
1732873993552669200,11.682669189453126,-0.4856378734111786,-0.36590829491615295,0.22113321721553802
1732873993562699500,11.692699462890625,-0.4893030524253845,-0.41722095012664795,-0.11972958594560623
1732873993572688400,11.7026884765625,-0.3579670190811157,-0.38606682419776917,-0.5968153476715088
1732873993582689800,11.712689697265626,-0.2076941877603531,-0.27977627515792847,-0.788627028465271
1732873993592675600,11.722675537109374,-0.04948008432984352,-0.17104226350784302,-0.8417723178863525
1732873993602708200,11.732708251953126,0.08857546001672745,-0.051312681287527084,-0.7507534027099609
1732873993612688100,11.742688232421875,0.1973094791173935,0.08246681094169617,-0.5442809462547302
1732873993622697200,11.752697265625,0.24862214922904968,0.22052235901355743,-0.2816088795661926
1732873993632685000,11.76268505859375,0.23945917189121246,0.2919935882091522,-0.03237585723400116
1732873993642686200,11.772686279296876,0.11911872029304504,0.2620611786842346,0.27061331272125244
1732873993652674000,11.782674072265625,-0.024434609338641167,0.2070833146572113,0.3805690407752991
1732873993662705200,11.792705078125,-0.16432274878025055,0.13377949595451355,0.4050036668777466
1732873993672663300,11.802663330078126,-0.2620611786842346,0.06719517707824707,0.36651915311813354
1732873993682694100,11.812694091796875,-0.3127630054950714,0.04153883829712868,0.2877175211906433
1732873993692683500,11.82268359375,-0.32498031854629517,0.0555887371301651,0.18325957655906677
1732873993702684200,11.83268408203125,-0.31459560990333557,0.07269296050071716,0.06169738993048668
1732873993712672300,11.84267236328125,-0.27488934993743896,0.09773843735456467,-0.13439035415649414
1732873993722703600,11.85270361328125,-0.2480112910270691,0.11728613078594208,-0.26022860407829285
1732873993732661500,11.86266162109375,-0.22540926933288574,0.12461651116609573,-0.36102136969566345
1732873993742692600,11.872692626953125,-0.21074850857257843,0.11972958594560623,-0.4153883755207062
1732873993752681000,11.882680908203126,-0.2064724564552307,0.12400564551353455,-0.40622538328170776
1732873993762682000,11.89268212890625,-0.19486601650714874,0.11789698898792267,-0.3500257730484009
1732873993772670000,11.902669921875,-0.1661553531885147,0.12889257073402405,-0.2528982162475586
1732873993782701800,11.912701904296876,-0.1319468915462494,0.15027284622192383,-0.12828169763088226
1732873993792659000,11.922658935546876,-0.10323622822761536,0.1313360333442688,0.06658431142568588
1732873993802690600,11.932690673828125,-0.09896016865968704,0.09346238523721695,0.17470745742321014
1732873993812678700,11.9426787109375,-0.10873401165008545,0.05497787147760391,0.25534167885780334
1732873993822709500,11.95270947265625,-0.12217304855585098,0.02015855349600315,0.303600013256073
1732873993832667600,11.962667724609375,-0.13744467496871948,-0.012828170321881771,0.31093040108680725
1732873993842698500,11.972698486328126,-0.16310101747512817,-0.042760565876960754,0.2736676335334778
1732873993852687000,11.98268701171875,-0.18814650177955627,-0.0708603709936142,0.18509216606616974
1732873993862687700,11.992687744140625,-0.22357667982578278,-0.13377949595451355,-0.009773843921720982
1732873993872676000,12.002676025390626,-0.26083946228027344,-0.16920967400074005,-0.15393804013729095
1732873993882707200,12.012707275390625,-0.2974913716316223,-0.2021963894367218,-0.2993239760398865
1732873993892665000,12.0226650390625,-0.31642818450927734,-0.26145032048225403,-0.43127086758613586
1732873993902697000,12.032697021484376,-0.30970868468284607,-0.33597588539123535,-0.513126790523529
1732873993912684500,12.0426845703125,-0.27977627515792847,-0.35735616087913513,-0.5277875661849976
1732873993922685700,12.052685791015625,-0.21135938167572021,-0.33292156457901,-0.4715879559516907
1732873993932673800,12.062673828125,-0.015271631069481373,-0.20463985204696655,-0.2785545587539673
1732873993942705200,12.072705078125,0.1411098688840866,-0.10812314599752426,-0.11545353382825851
1732873993952662500,12.08266259765625,0.25045475363731384,-0.059864792972803116,0.031154127791523933
1732873993962694700,12.092694580078126,0.28466320037841797,-0.08674286305904388,0.15027284622192383
1732873993972682200,12.10268212890625,0.25595253705978394,-0.1814269721508026,0.2535090744495392
1732873993982683600,12.11268359375,0.19303341209888458,-0.35124751925468445,0.32559117674827576
1732873993992671200,12.122671142578126,0.09162978827953339,-0.5650503635406494,0.3634648323059082
1732873994002702800,12.132702880859375,-0.006108652334660292,-0.8216137290000916,0.3738495409488678
1732873994012660200,12.14266015625,-0.16493362188339233,-1.0561859607696533,0.3494149148464203
1732873994022691800,12.15269189453125,-0.2528982162475586,-1.0103710889816284,0.3237585723400116
1732873994032680000,12.162679931640625,-0.26145032048225403,-0.8069530129432678,0.31154128909111023
1732873994042679600,12.172679443359375,-0.1459967941045761,-0.5119050741195679,0.3689626157283783
1732873994052669000,12.1826689453125,0.059864792972803116,-0.22479841113090515,0.5302310585975647
1732873994062700500,12.192700439453125,0.24007004499435425,-0.005497787147760391,0.7623597979545593
1732873994072688400,12.2026884765625,0.34636059403419495,0.1264491081237793,1.009149432182312
1732873994082688800,12.212688720703126,0.4031710624694824,0.11850785464048386,1.1520918607711792
1732873994092677400,12.222677490234375,0.3799581825733185,0.1062905490398407,1.007927656173706
1732873994102710800,12.232710693359374,0.3090978264808655,0.10323622822761536,0.6823364496231079
1732873994112666400,12.242666259765626,0.2174680233001709,0.07513642311096191,0.22663100063800812
1732873994122697500,12.252697509765625,0.12828169763088226,0.03298672288656235,-0.26939156651496887
1732873994132685800,12.262685791015626,0.07330382615327835,0.007941247895359993,-0.7049384713172913
1732873994142687000,12.27268701171875,0.06658431142568588,-0.005497787147760391,-0.9761626720428467
1732873994152674800,12.2826748046875,0.10934487730264664,-0.010995574295520782,-1.0024298429489136
1732873994162706700,12.292706787109376,0.15393804013729095,-0.00427605677396059,-0.8387179970741272
1732873994172663800,12.302663818359376,0.20341812074184418,0.022602014243602753,-0.6194173693656921
1732873994182695400,12.3126953125,0.24495697021484375,0.05864306539297104,-0.4050036668777466
1732873994192683500,12.32268359375,0.25473082065582275,0.08185594528913498,-0.23518311977386475
1732873994202684700,12.3326845703125,0.2480112910270691,0.10445795953273773,-0.11484266817569733
1732873994212672500,12.342672607421875,0.23151792585849762,0.15027284622192383,-0.04398229718208313
1732873994222704000,12.3527041015625,0.22052235901355743,0.22052235901355743,-0.006719517521560192
1732873994232661500,12.36266162109375,0.18020524084568024,0.30604347586631775,0.012828170321881771
1732873994242692400,12.3726923828125,0.1411098688840866,0.31459560990333557,0.00733038317412138
1732873994252681000,12.382680908203126,0.08796459436416626,0.28466320037841797,-0.009773843921720982
1732873994262681300,12.392681396484376,0.02932153269648552,0.2223549485206604,-0.03848451003432274
1732873994272670000,12.402669921875,-0.01038470957428217,0.13744467496871948,-0.07208210229873657
1732873994282701000,12.412701171875,-0.021380282938480377,0.05925392732024193,-0.1062905490398407
1732873994292659200,12.4226591796875,-0.00855211354792118,0.0006108652451075613,-0.14049901068210602
1732873994302690000,12.43268994140625,0.048258353024721146,-0.00427605677396059,-0.20341812074184418
1732873994312678700,12.4426787109375,0.09162978827953339,-0.0012217304902151227,-0.2168571650981903
1732873994322709500,12.45270947265625,0.12339477986097336,0.02626720629632473,-0.20341812074184418
