time,seconds_elapsed,z,y,x
1732873982062645200,0.192645263671875,0.006108652334660292,0.12828169763088226,0.2571742534637451
1732873982072389400,0.202389404296875,-0.04642575979232788,0.10567969083786011,0.152105450630188
1732873982082660600,0.21266064453125,-0.07819075137376785,0.10751228034496307,0.05253441259264946
1732873982092649200,0.222649169921875,-0.07391469180583954,0.09773843735456467,-0.04703662544488907
1732873982102680600,0.2326806640625,-0.04886921867728233,0.07635815441608429,-0.12767083942890167
1732873982112638200,0.24263818359375,-0.021380282938480377,0.07513642311096191,-0.18387043476104736
1732873982122669000,0.2526689453125,0.001832595793530345,0.08002334833145142,-0.21502456068992615
1732873982132657700,0.26265771484375,0.02382374368607998,0.08979719132184982,-0.23029619455337524
1732873982142658000,0.272657958984375,0.02015855349600315,0.0708603709936142,-0.2278527319431305
1732873982152646700,0.282646728515625,0.007941247895359993,0.029932396486401558,-0.22418753802776337
1732873982162678300,0.29267822265625,-0.013439035043120384,-0.024434609338641167,-0.22357667982578278
1732873982172635600,0.3026357421875,-0.04642575979232788,-0.07513642311096191,-0.23090706765651703
1732873982182667500,0.31266748046875,-0.08429940044879913,-0.1270599663257599,-0.24007004499435425
1732873982192655400,0.3226552734375,-0.12522737681865692,-0.16920967400074005,-0.24068090319633484
1732873982202655700,0.33265576171875,-0.13927727937698364,-0.1869247704744339,-0.21930062770843506
1732873982212644400,0.342644287109375,-0.10690141469240189,-0.17104226350784302,-0.18570303916931152
1732873982222676000,0.352676025390625,-0.05864306539297104,-0.1459967941045761,-0.14049901068210602
1732873982232633600,0.362633544921875,-0.01160643994808197,-0.11728613078594208,-0.08918632566928864
1732873982242665000,0.3726650390625,0.025656340643763542,-0.08552113175392151,-0.039706241339445114
1732873982252652800,0.38265283203125,0.05253441259264946,-0.05619960278272629,0.00427605677396059
1732873982262653700,0.39265380859375,0.0708603709936142,-0.0354301854968071,0.02932153269648552
1732873982272641800,0.402641845703125,0.09040805697441101,-0.012217304669320583,0.039706241339445114
1732873982282673000,0.4126728515625,0.09773843735456467,0.001832595793530345,0.045204028487205505
1732873982292630800,0.422630859375,0.10323622822761536,0.015271631069481373,0.05009094998240471
1732873982302662000,0.432661865234375,0.10323622822761536,0.021380282938480377,0.059864792972803116
1732873982312650500,0.442650390625,0.09957103431224823,0.019547687843441963,0.07330382615327835
1732873982322681600,0.452681640625,0.09285151958465576,0.01160643994808197,0.07941248267889023
1732873982332639500,0.462639404296875,0.08307767659425735,-0.001832595793530345,0.07330382615327835
1732873982342670300,0.47267041015625,0.0708603709936142,-0.00733038317412138,0.056810468435287476
1732873982352659000,0.482658935546875,0.06780604273080826,0.006719517521560192,0.03237585723400116
1732873982362659300,0.492659423828125,0.06902777403593063,0.01710422709584236,0.02626720629632473
1732873982372648000,0.50264794921875,0.07024950534105301,0.01710422709584236,0.022602014243602753
1732873982382678800,0.5126787109375,0.07024950534105301,0.012217304669320583,0.025045474991202354
1732873982392637000,0.522636962890625,0.06658431142568588,0.01710422709584236,0.021991148591041565
1732873982402668000,0.53266796875,0.060475658625364304,0.016493361443281174,0.02076941914856434
1732873982412656600,0.54265673828125,0.05803219974040985,0.012828170321881771,0.015882495790719986
1732873982422656800,0.55265673828125,0.07147123664617538,0.03298672288656235,0.015271631069481373
1732873982432645400,0.562645263671875,0.08246681094169617,0.04581489413976669,0.01771509274840355
1732873982442676200,0.57267626953125,0.09162978827953339,0.0507018156349659,0.02321287989616394
1732873982452634400,0.58263427734375,0.09712757170200348,0.054367005825042725,0.029932396486401558
1732873982462665500,0.59266552734375,0.1007927656173706,0.059864792972803116,0.03237585723400116
1732873982472654000,0.602654052734375,0.09712757170200348,0.05925392732024193,0.031154127791523933
1732873982482654500,0.612654541015625,0.08491026610136032,0.0507018156349659,0.025045474991202354
1732873982492643000,0.62264306640625,0.05803219974040985,0.045204028487205505,0.015271631069481373
1732873982502674000,0.632673828125,0.04581489413976669,0.045204028487205505,0.010995574295520782
1732873982512632300,0.64263232421875,0.036651913076639175,0.04581489413976669,0.012217304669320583
1732873982522663200,0.6526630859375,0.02932153269648552,0.051312681287527084,0.019547687843441963
1732873982532651800,0.66265185546875,0.02382374368607998,0.06169738993048668,0.028099801391363144
1732873982542652000,0.67265185546875,0.025045474991202354,0.07452555745840073,0.039095375686883926
1732873982552640500,0.682640625,0.031154127791523933,0.08979719132184982,0.04703662544488907
1732873982562671400,0.69267138671875,0.0403171069920063,0.1014036312699318,0.05375614017248154
1732873982572660200,0.70266015625,0.05375614017248154,0.10323622822761536,0.06352998316287994
1732873982582660600,0.71266064453125,0.05925392732024193,0.08918632566928864,0.06230825558304787
1732873982592648400,0.7226484375,0.05864306539297104,0.06475171446800232,0.05192354694008827
1732873982602679800,0.7326796875,0.056810468435287476,0.042760565876960754,0.03176499158143997
1732873982612637700,0.7426376953125,0.0507018156349659,0.02015855349600315,0.007941247895359993
1732873982622668500,0.75266845703125,0.04092797264456749,0.0012217304902151227,-0.013439035043120384
1732873982632657200,0.7626572265625,0.033597588539123535,-0.00855211354792118,-0.02626720629632473
1732873982642657800,0.77265771484375,0.021991148591041565,-0.01160643994808197,-0.036651913076639175
1732873982652646100,0.782646240234375,0.01710422709584236,-0.009162978269159794,-0.04214970022439957
1732873982662677200,0.79267724609375,0.019547687843441963,0.0006108652451075613,-0.03726277872920036
1732873982672635400,0.802635498046875,0.03420845419168472,0.02382374368607998,-0.01710422709584236
1732873982682666200,0.812666259765625,0.05314527451992035,0.039095375686883926,0.014049900695681572
1732873982692655400,0.8226552734375,0.06719517707824707,0.03298672288656235,0.03420845419168472
1732873982702655500,0.832655517578125,0.07696902006864548,0.02687807008624077,0.04214970022439957
1732873982712644400,0.842644287109375,0.10995574295520782,0.03726277872920036,0.03298672288656235
1732873982722675500,0.852675537109375,0.14049901068210602,0.0507018156349659,0.016493361443281174
1732873982732633300,0.86263330078125,0.17470745742321014,0.06780604273080826,0.009162978269159794
1732873982742664400,0.87266455078125,0.21135938167572021,0.08246681094169617,0.015271631069481373
1732873982752652800,0.88265283203125,0.24007004499435425,0.09346238523721695,0.02871066704392433
1732873982762653400,0.8926533203125,0.26145032048225403,0.09773843735456467,0.04092797264456749
1732873982772641800,0.902641845703125,0.2779437005519867,0.0959058403968811,0.04948008432984352
1732873982782673200,0.912673095703125,0.2883284091949463,0.09162978827953339,0.0555887371301651
1732873982792631000,0.922631103515625,0.2724458873271942,0.05742133408784866,0.048258353024721146
1732873982802662100,0.932662109375,0.23945917189121246,0.02871066704392433,0.02871066704392433
1732873982812650500,0.942650390625,0.1869247704744339,-0.015882495790719986,0
1732873982822681600,0.952681640625,0.12034045159816742,-0.05253441259264946,-0.02687807008624077
1732873982832639500,0.962639404296875,0.05497787147760391,-0.07024950534105301,-0.05009094998240471
1732873982842670300,0.97267041015625,-0.006108652334660292,-0.06536258012056351,-0.0757472887635231
1732873982852659000,0.982658935546875,-0.06780604273080826,-0.056810468435287476,-0.11362093687057495
1732873982862659600,0.99265966796875,-0.1722639948129654,-0.04764748737215996,-0.1875356286764145
1732873982872648000,1.00264794921875,-0.252287358045578,-0.06841690838336945,-0.2474004179239273
1732873982882679300,1.01267919921875,-0.3494149148464203,-0.1062905490398407,-0.30970868468284607
1732873982892637000,1.022636962890625,-0.45692721009254456,-0.13744467496871948,-0.35246923565864563
1732873982902668800,1.032668701171875,-0.5668829679489136,-0.16493362188339233,-0.3689626157283783
1732873982912656600,1.04265673828125,-0.6792821288108826,-0.1814269721508026,-0.34086281061172485
1732873982922656300,1.05265625,-0.7947356700897217,-0.19364428520202637,-0.26572638750076294
1732873982932645400,1.062645263671875,-0.9364564418792725,-0.2015855312347412,-0.08124507963657379
1732873982942676000,1.072676025390625,-1.0054842233657837,-0.2028072625398636,0.07330382615327835
1732873982952634400,1.08263427734375,-1.0769554376602173,-0.2076941877603531,0.2278527319431305
1732873982962665200,1.092665283203125,-1.1612548828125,-0.22540926933288574,0.34513887763023376
1732873982972654000,1.102654052734375,-1.2577714920043945,-0.25534167885780334,0.40194934606552124
1732873982982654200,1.112654296875,-1.3640620708465576,-0.294437050819397,0.394618958234787
1732873982992643000,1.12264306640625,-1.480737328529358,-0.32070425152778625,0.34574973583221436
1732873983002673400,1.13267333984375,-1.6102408170700073,-0.34758231043815613,0.2571742534637451
1732873983012632000,1.142632080078125,-1.8106045722961426,-0.42638394236564636,0.04092797264456749
1732873983022662700,1.15266259765625,-1.948660135269165,-0.4911356568336487,-0.12278391420841217
1732873983032651500,1.162651611328125,-2.0751092433929443,-0.5308418869972229,-0.2632829248905182
1732873983042651400,1.1726513671875,-2.163684606552124,-0.5601634383201599,-0.34147366881370544
1732873983052640800,1.182640869140625,-2.1868975162506104,-0.5253441333770752,-0.33169981837272644
1732873983062672400,1.19267236328125,-2.1539108753204346,-0.41599923372268677,-0.2370157092809677
1732873983072660200,1.20266015625,-2.072054862976074,-0.2687807083129883,-0.08002334833145142
1732873983082661600,1.21266162109375,-1.9004018306732178,-0.04948008432984352,0.21502456068992615
1732873983092649200,1.222649169921875,-1.7983872890472412,0.018325956538319588,0.3988949954509735
1732873983102680800,1.232680908203125,-1.7385225296020508,0.01466076634824276,0.5375614166259766
1732873983112638200,1.24263818359375,-1.72935950756073,-0.048258353024721146,0.6120869517326355
1732873983122669800,1.252669921875,-1.7739527225494385,-0.16004669666290283,0.5968153476715088
1732873983132657700,1.26265771484375,-1.8570303916931152,-0.3023782968521118,0.5009095072746277
1732873983142659000,1.2726591796875,-1.9602665901184082,-0.44715335965156555,0.33169981837272644
1732873983152646700,1.282646728515625,-2.0952677726745605,-0.6047565937042236,0.018325956538319588
1732873983162678500,1.292678466796875,-2.152689218521118,-0.6493497490882874,-0.16920967400074005
1732873983172635600,1.3026357421875,-2.196671485900879,-0.6444628238677979,-0.29138273000717163
1732873983182667500,1.31266748046875,-2.2321016788482666,-0.618195652961731,-0.32681289315223694
1732873983192655400,1.3226552734375,-2.260812282562256,-0.598647952079773,-0.2767219543457031
1732873983202656500,1.332656494140625,-2.282803535461426,-0.5931501388549805,-0.16737708449363708
1732873983212644400,1.342644287109375,-2.302962064743042,-0.6023131608963013,-0.036651913076639175
1732873983222676000,1.352676025390625,-2.31945538520813,-0.617584764957428,0.07513642311096191
1732873983232633300,1.36263330078125,-2.3408355712890625,-0.6236934065818787,0.18875735998153687
1732873983242665200,1.372665283203125,-2.3469443321228027,-0.6157521605491638,0.22663100063800812
1732873983252236500,1.382236572265625,-2.3432791233062744,-0.6041457056999207,0.2382374405860901
1732873983262238000,1.392238037109375,-2.339613914489746,-0.5925393104553223,0.23029619455337524
1732873983272225500,1.4022255859375,-2.3267858028411865,-0.5699372887611389,0.2021963894367218
1732873983282257400,1.41225732421875,-2.309070587158203,-0.5522221922874451,0.15454891324043274
1732873983292214500,1.422214599609375,-2.285857677459717,-0.5271766781806946,0.0910189226269722
1732873983302246400,1.432246337890625,-2.258368730545044,-0.4917465150356293,-0.003054326167330146
1732873983312234200,1.442234130859375,-2.2510383129119873,-0.47219884395599365,-0.048258353024721146
1732873983322265900,1.452265869140625,-2.246762275695801,-0.4593706727027893,-0.06475171446800232
1732873983332223200,1.46222314453125,-2.2492058277130127,-0.46181413531303406,-0.05192354694008827
1732873983342254800,1.4722548828125,-2.2571470737457275,-0.4605923891067505,-0.022602014243602753
1732873983352242700,1.48224267578125,-2.2742512226104736,-0.4605923891067505,0.014049900695681572
1732873983362244000,1.492244140625,-2.291966438293457,-0.45753806829452515,0.04459316283464432
1732873983372231700,1.502231689453125,-2.311514139175415,-0.4153883755207062,0.06719517707824707
1732873983382263600,1.512263671875,-2.3121249675750732,-0.37079519033432007,0.06841690838336945
1732873983392220700,1.522220703125,-2.305405378341675,-0.31093040108680725,0.05864306539297104
1732873983402252300,1.532252197265625,-2.291355609893799,-0.25106561183929443,0.04398229718208313
1732873983412240400,1.542240478515625,-2.2736403942108154,-0.2076941877603531,0.03848451003432274
1732873983422241500,1.552241455078125,-2.258979558944702,-0.19120082259178162,0.02871066704392433
1732873983432229000,1.56222900390625,-2.233323335647583,-0.1875356286764145,0.005497787147760391
1732873983442261000,1.572260986328125,-2.191784381866455,-0.18814650177955627,-0.031154127791523933
1732873983452218400,1.58221826171875,-2.144136905670166,-0.22296582162380219,-0.09834930300712585
1732873983462250200,1.592250244140625,-2.120924234390259,-0.2590068578720093,-0.1514945775270462
1732873983472237800,1.60223779296875,-2.099543809890747,-0.2742784917354584,-0.2028072625398636
1732873983482239200,1.6122392578125,-2.087937355041504,-0.2840523421764374,-0.23151792585849762
1732873983492226800,1.622226806640625,-2.0555615425109863,-0.3439171314239502,-0.23640485107898712
1732873983502258400,1.632258544921875,-2.0164661407470703,-0.394008070230484,-0.24434609711170197
1732873983512216000,1.642216064453125,-1.985922932624817,-0.4184426963329315,-0.25045475363731384
1732873983522247700,1.65224755859375,-1.9236146211624146,-0.4239404797554016,-0.26939156651496887
1732873983532235300,1.6622353515625,-1.8643606901168823,-0.3982841372489929,-0.2791654169559479
1732873983542236700,1.672236572265625,-1.7873916625976562,-0.35613444447517395,-0.2816088795661926
1732873983552224500,1.682224609375,-1.700037956237793,-0.2974913716316223,-0.2620611786842346
1732873983562256400,1.69225634765625,-1.6224581003189087,-0.2681698501110077,-0.2370157092809677
1732873983572244000,1.702243896484375,-1.5564846992492676,-0.23945917189121246,-0.20525072515010834
1732873983582245000,1.7122451171875,-1.50211763381958,-0.23396138846874237,-0.1814269721508026
1732873983592232200,1.722232177734375,-1.4581353664398193,-0.2590068578720093,-0.16065755486488342
1732873983602264300,1.732264404296875,-1.4453071355819702,-0.28099802136421204,-0.152105450630188
1732873983612249900,1.742249755859375,-1.4288138151168823,-0.2993239760398865,-0.1466076523065567
1732873983622252800,1.752252685546875,-1.3952162265777588,-0.29077184200286865,-0.13744467496871948
1732873983632241000,1.762240966796875,-1.3426817655563354,-0.24678955972194672,-0.1563815027475357
1732873983642241000,1.772240966796875,-1.3194689750671387,-0.20463985204696655,-0.2223549485206604
1732873983652230000,1.78222998046875,-1.2877039909362793,-0.16249015927314758,-0.2620611786842346
1732873983662260700,1.7922607421875,-1.214400053024292,-0.13439035415649414,-0.24923302233219147
1732873983672219100,1.80221923828125,-1.0671815872192383,-0.05619960278272629,-0.14355333149433136
1732873983682249700,1.812249755859375,-0.9651671051979065,-0.0006108652451075613,-0.07513642311096191
1732873983692239000,1.822239013671875,-0.8649851679801941,0.04153883829712868,-0.021991148591041565
1732873983702239000,1.832239013671875,-0.7757988572120667,0.06352998316287994,0.010995574295520782
1732873983712228000,1.84222802734375,-0.7018841505050659,0.05314527451992035,0.02321287989616394
1732873983722258700,1.8522587890625,-0.646906316280365,0.02687807008624077,0.021991148591041565
1732873983732217000,1.862217041015625,-0.6090326309204102,0.00366519158706069,0.00733038317412138
1732873983742247400,1.872247314453125,-0.5766568183898926,-0.012828170321881771,-0.02076941914856434
1732873983752236500,1.882236572265625,-0.5546656250953674,-0.018936822190880775,-0.04153883829712868
1732873983762236700,1.892236572265625,-0.5180137157440186,-0.01710422709584236,-0.056810468435287476
1732873983772225500,1.9022255859375,-0.4691445231437683,0.0012217304902151227,-0.06352998316287994
1732873983782256000,1.912256103515625,-0.413555771112442,0.02076941914856434,-0.06963863968849182
1732873983792214500,1.922214599609375,-0.3481931984424591,0.029932396486401558,-0.07635815441608429
1732873983802245000,1.9322451171875,-0.28466320037841797,0.028099801391363144,-0.08246681094169617
1732873983812234200,1.942234130859375,-0.20341812074184418,0.02321287989616394,-0.09651670604944229
1732873983822265300,1.952265380859375,-0.15760323405265808,0.015882495790719986,-0.10018189996480942
1732873983832223500,1.962223388671875,-0.12400564551353455,0.006719517521560192,-0.09040805697441101
1732873983842254300,1.97225439453125,-0.1007927656173706,-0.001832595793530345,-0.06841690838336945
1732873983852242700,1.98224267578125,-0.08368854224681854,0.001832595793530345,-0.03298672288656235
1732873983862243300,1.992243408203125,-0.06841690838336945,0.01038470957428217,0.009162978269159794
1732873983872231700,2.002231689453125,-0.05375614017248154,0.014049900695681572,0.04703662544488907
1732873983882263000,2.012262939453125,-0.02321287989616394,0.013439035043120384,0.07269296050071716
1732873983892220700,2.022220703125,-0.009162978269159794,0.02626720629632473,0.09529497474431992
1732873983902251800,2.032251708984375,-0.016493361443281174,0.00733038317412138,0.08491026610136032
1732873983912240400,2.042240478515625,-0.036651913076639175,-0.01771509274840355,0.05314527451992035
1732873983922241000,2.052240966796875,-0.05497787147760391,-0.0403171069920063,0.01038470957428217
1732873983932229000,2.06222900390625,-0.0659734457731247,-0.05619960278272629,-0.03237585723400116
1732873983942260700,2.0722607421875,-0.06719517707824707,-0.06230825558304787,-0.06719517707824707
1732873983952218000,2.082218017578125,-0.05314527451992035,-0.06658431142568588,-0.09407325088977814
1732873983962249200,2.092249267578125,0.00855211354792118,-0.0555887371301651,-0.1514945775270462
1732873983972237800,2.10223779296875,0.06169738993048668,-0.0354301854968071,-0.20586158335208893
1732873983982238700,2.11223876953125,0.10567969083786011,-0.03237585723400116,-0.2675589919090271
1732873983992226800,2.122226806640625,0.13439035415649414,-0.04703662544488907,-0.32009339332580566
1732873984002258200,2.132258056640625,0.15760323405265808,-0.07452555745840073,-0.3292563557624817
1732873984012215800,2.1422158203125,0.16065755486488342,-0.10384709388017654,-0.2742784917354584
1732873984022247400,2.152247314453125,0.15882496535778046,-0.10323622822761536,-0.15454891324043274
1732873984032235300,2.1622353515625,0.16432274878025055,-0.060475658625364304,0.08246681094169617
1732873984042236200,2.172236083984375,0.16249015927314758,-0.033597588539123535,0.24190263450145721
1732873984052224500,2.182224609375,0.1459967941045761,-0.005497787147760391,0.36651915311813354
1732873984062255400,2.19225537109375,0.12095131725072861,-0.01710422709584236,0.40256020426750183
1732873984072243700,2.20224365234375,0.07208210229873657,-0.06108652427792549,0.3286454975605011
1732873984082244600,2.21224462890625,-0.00733038317412138,-0.15515977144241333,0.15515977144241333
1732873984092233000,2.22223291015625,-0.12278391420841217,-0.2877175211906433,-0.08857546001672745
1732873984102264000,2.23226416015625,-0.24495697021484375,-0.4331034719944,-0.35674530267715454
1732873984112222000,2.242221923828125,-0.42088615894317627,-0.5693264007568359,-0.6957755088806152
1732873984122252800,2.252252685546875,-0.4715879559516907,-0.5668829679489136,-0.8228355050086975
1732873984132241700,2.26224169921875,-0.4550946056842804,-0.5277875661849976,-0.8643743395805359
1732873984142242600,2.27224267578125,-0.403781920671463,-0.43737950921058655,-0.808174729347229
1732873984152230400,2.28223046875,-0.323147714138031,-0.2840523421764374,-0.645684540271759
1732873984162262000,2.292261962890625,-0.21502456068992615,-0.09346238523721695,-0.42271876335144043
1732873984172219400,2.302219482421875,-0.10201449692249298,0.12828169763088226,-0.20891591906547546
1732873984182250500,2.31225048828125,-0.015882495790719986,0.31581732630729675,0.01771509274840355
1732873984192239000,2.322239013671875,-0.028099801391363144,0.303600013256073,0.07880161702632904
1732873984202239500,2.332239501953125,-0.09346238523721695,0.21563543379306793,0.054367005825042725
1732873984212228000,2.34222802734375,-0.19608774781227112,0.08124507963657379,-0.05009094998240471
1732873984222259500,2.352259521484375,-0.28527405858039856,-0.036651913076639175,-0.2015855312347412
1732873984232217000,2.362217041015625,-0.34025195240974426,-0.08918632566928864,-0.3543018400669098
1732873984242247400,2.372247314453125,-0.3433062732219696,-0.0861319974064827,-0.46303585171699524
1732873984252236500,2.382236572265625,-0.24434609711170197,-0.00733038317412138,-0.50335294008255
1732873984262236400,2.392236328125,-0.12950342893600464,0.060475658625364304,-0.44104471802711487
1732873984272225500,2.4022255859375,-0.0024434609804302454,0.13927727937698364,-0.3243694305419922
1732873984282256100,2.412256103515625,0.11056660860776901,0.22418753802776337,-0.1966986060142517
1732873984292214500,2.422214599609375,0.19425514340400696,0.2736676335334778,-0.10384709388017654
1732873984302245600,2.43224560546875,0.24007004499435425,0.27000242471694946,-0.04398229718208313
1732873984312234200,2.442234130859375,0.2669481039047241,0.242513507604599,-0.012828170321881771
1732873984322265300,2.452265380859375,0.2675589919090271,0.2028072625398636,0.007941247895359993
1732873984332223200,2.46222314453125,0.2583959996700287,0.1661553531885147,0.01466076634824276
1732873984342254000,2.472254150390625,0.252287358045578,0.1508837193250656,0.00855211354792118
1732873984352242700,2.48224267578125,0.25473082065582275,0.14049901068210602,0.009162978269159794
1732873984362243600,2.49224365234375,0.2620611786842346,0.14294247329235077,0.01160643994808197
1732873984372231700,2.502231689453125,0.28038713335990906,0.16982053220272064,0.02015855349600315
1732873984382262800,2.5122626953125,0.29138273000717163,0.18387043476104736,0.01771509274840355
1732873984392220700,2.522220703125,0.2822197377681732,0.20463985204696655,-0.003054326167330146
1732873984402252000,2.532251953125,0.21624629199504852,0.11362093687057495,-0.059864792972803116
1732873984412240400,2.542240478515625,0.15882496535778046,0.03237585723400116,-0.1014036312699318
1732873984422241000,2.552240966796875,0.1215621829032898,0.03726277872920036,-0.11362093687057495
1732873984432229000,2.56222900390625,0.1111774742603302,0.03237585723400116,-0.08552113175392151
1732873984442261000,2.572260986328125,0.1411098688840866,-0.00855211354792118,0.0024434609804302454
1732873984452218000,2.582218017578125,0.2021963894367218,-0.04642575979232788,0.17470745742321014
1732873984462250000,2.59225,0.25473082065582275,-0.11178833991289139,0.4251621961593628
1732873984472237800,2.60223779296875,0.3139847218990326,-0.23884831368923187,0.846659243106842
1732873984482239000,2.612239013671875,0.34574973583221436,-0.27061331272125244,1.0629055500030518
1732873984492226800,2.622226806640625,0.37140607833862305,-0.20830504596233368,1.2040153741836548
1732873984502258000,2.6322578125,0.3738495409488678,-0.14966198801994324,1.2308934926986694
1732873984512215800,2.6422158203125,0.3481931984424591,-0.18631389737129211,1.151481032371521
1732873984522247000,2.652246826171875,0.2840523421764374,-0.19058994948863983,1.0005972385406494
1732873984532235500,2.662235595703125,0.19303341209888458,-0.16798794269561768,0.8020660877227783
1732873984542236000,2.67223583984375,0.08552113175392151,-0.15882496535778046,0.5723807215690613
1732873984552224500,2.682224609375,-0.0806342139840126,-0.25106561183929443,0.16554448008537292
1732873984562255400,2.69225537109375,-0.16859880089759827,-0.3628539443016052,-0.13805554807186127
1732873984572244000,2.702243896484375,-0.25106561183929443,-0.4758640229701996,-0.4331034719944
1732873984582245000,2.7122451171875,-0.3280346393585205,-0.5308418869972229,-0.6969972252845764
1732873984592232200,2.722232177734375,-0.3781255781650543,-0.5180137157440186,-0.8863654732704163
1732873984602264300,2.732264404296875,-0.39095374941825867,-0.4288274049758911,-0.9547823667526245
1732873984612221400,2.742221435546875,-0.3628539443016052,-0.2883284091949463,-0.8625417351722717
1732873984622253000,2.752253173828125,-0.27488934993743896,-0.1007927656173706,-0.43676865100860596
1732873984632241000,2.762240966796875,-0.22418753802776337,-0.07269296050071716,-0.039095375686883926
1732873984642242300,2.7722421875,-0.20586158335208893,-0.14905111491680145,0.3488040566444397
1732873984652230000,2.78222998046875,-0.2535090744495392,-0.26939156651496887,0.6334672570228577
1732873984662260000,2.792260009765625,-0.33719760179519653,-0.375071257352829,0.7519751191139221
1732873984672219100,2.80221923828125,-0.42088615894317627,-0.4386012554168701,0.7073819637298584
1732873984682249500,2.81224951171875,-0.4893030524253845,-0.4239404797554016,0.5375614166259766
1732873984692239000,2.822239013671875,-0.5253441333770752,-0.22602014243602753,0.15271630883216858
1732873984702239200,2.8322392578125,-0.5094616413116455,-0.029932396486401558,-0.10934487730264664
1732873984712228000,2.84222802734375,-0.46731191873550415,0.17287486791610718,-0.31093040108680725
1732873984722259700,2.852259765625,-0.413555771112442,0.33597588539123535,-0.41233405470848083
1732873984732217000,2.862217041015625,-0.35613444447517395,0.4386012554168701,-0.4098905920982361
1732873984742249000,2.8722490234375,-0.31093040108680725,0.47708576917648315,-0.3084869384765625
1732873984752236500,2.882236572265625,-0.2767219543457031,0.45875978469848633,-0.15454891324043274
1732873984762237700,2.89223779296875,-0.25045475363731384,0.3952298164367676,-0.010995574295520782
1732873984772225500,2.9022255859375,-0.23335053026676178,0.29016098380088806,0.10384709388017654
1732873984782257400,2.91225732421875,-0.23151792585849762,0.24129177629947662,0.0959058403968811
1732873984792214500,2.922214599609375,-0.24068090319633484,0.20402899384498596,0.029932396486401558
1732873984802246000,2.932245849609375,-0.24862214922904968,0.18509216606616974,-0.06841690838336945
1732873984812234200,2.942234130859375,-0.24495697021484375,0.18387043476104736,-0.17409659922122955
1732873984822265300,2.952265380859375,-0.23151792585849762,0.19853121042251587,-0.2626720666885376
1732873984832223000,2.962222900390625,-0.19853121042251587,0.22907446324825287,-0.30970868468284607
1732873984842254300,2.97225439453125,-0.13255776464939117,0.2932153046131134,-0.2919935882091522
1732873984852242400,2.982242431640625,-0.09651670604944229,0.32009339332580566,-0.24678955972194672
1732873984862243000,2.9922431640625,-0.08246681094169617,0.3078760802745819,-0.2076941877603531
1732873984872231700,3.002231689453125,-0.09346238523721695,0.251676470041275,-0.18936823308467865
1732873984882262800,3.0122626953125,-0.13011430203914642,0.1771509200334549,-0.19364428520202637
1732873984892220700,3.022220703125,-0.17470745742321014,0.08918632566928864,-0.2223549485206604
1732873984902252000,3.032251953125,-0.21074850857257843,0.028099801391363144,-0.26511552929878235
1732873984912240400,3.042240478515625,-0.23457226157188416,-0.015882495790719986,-0.3323107063770294
1732873984922240500,3.052240478515625,-0.23518311977386475,-0.02382374368607998,-0.3543018400669098
1732873984932229000,3.06222900390625,-0.21502456068992615,-0.005497787147760391,-0.35552358627319336
1732873984942260000,3.072260009765625,-0.18387043476104736,0.019547687843441963,-0.3280346393585205
1732873984952218000,3.082218017578125,-0.13866640627384186,0.03481931984424591,-0.27977627515792847
1732873984962250000,3.09225,-0.08246681094169617,0.06352998316287994,-0.22113321721553802
1732873984972237800,3.10223779296875,-0.02076941914856434,0.1160643994808197,-0.15515977144241333
1732873984982238700,3.11223876953125,0.02076941914856434,0.16982053220272064,-0.09040805697441101
1732873984992226800,3.122226806640625,0.028099801391363144,0.18325957655906677,0.0012217304902151227
1732873985002258200,3.132258056640625,-0.01160643994808197,0.1472185254096985,0.051312681287527084
1732873985012215800,3.1422158203125,-0.06658431142568588,0.07391469180583954,0.08674286305904388
1732873985022247400,3.152247314453125,-0.1319468915462494,-0.004886921960860491,0.08979719132184982
1732873985032235300,3.1622353515625,-0.20463985204696655,-0.07391469180583954,0.05253441259264946
1732873985042236700,3.172236572265625,-0.2816088795661926,-0.1362229436635971,-0.021380282938480377
1732873985052224500,3.182224609375,-0.34147366881370544,-0.16859880089759827,-0.12034045159816742
1732873985062256000,3.192256103515625,-0.35735616087913513,-0.19853121042251587,-0.2480112910270691
1732873985072244000,3.202243896484375,-0.33047810196876526,-0.17837265133857727,-0.26450464129447937
1732873985082245000,3.2122451171875,-0.26511552929878235,-0.11056660860776901,-0.22357667982578278
1732873985092233000,3.22223291015625,-0.16371189057826996,0.007941247895359993,-0.14538592100143433
1732873985102264800,3.232264892578125,-0.05375614017248154,0.15454891324043274,-0.06475171446800232
1732873985112222000,3.242221923828125,0.02687807008624077,0.2620611786842346,-0.005497787147760391
1732873985122253600,3.252253662109375,0.06719517707824707,0.29993483424186707,0.03726277872920036
1732873985132241400,3.262241455078125,0.025656340643763542,0.25961771607398987,0.1270599663257599
1732873985142242600,3.27224267578125,-0.045204028487205505,0.17776179313659668,0.2278527319431305
1732873985152230400,3.28223046875,-0.11972958594560623,0.06536258012056351,0.32131510972976685
1732873985162262000,3.292261962890625,-0.1661553531885147,-0.0659734457731247,0.3634648323059082
1732873985172219400,3.302219482421875,-0.2321287989616394,-0.17531833052635193,0.3439171314239502
1732873985182251000,3.3122509765625,-0.2816088795661926,-0.23640485107898712,0.2675589919090271
1732873985192239000,3.322239013671875,-0.3066543638706207,-0.24923302233219147,0.1765400618314743
1732873985202240300,3.332240234375,-0.30543261766433716,-0.16310101747512817,0.13500121235847473
1732873985212228000,3.34222802734375,-0.21319197118282318,0.02932153269648552,0.25595253705978394
1732873985222258400,3.352258544921875,-0.08918632566928864,0.17837265133857727,0.48319441080093384
1732873985232217000,3.362217041015625,0.048258353024721146,0.3127630054950714,0.7764097452163696
1732873985242247400,3.372247314453125,0.16371189057826996,0.4001167416572571,1.0427470207214355
1732873985252236500,3.382236572265625,0.2583959996700287,0.45692721009254456,1.178359031677246
1732873985262236400,3.392236328125,0.31154128909111023,0.4489859640598297,1.1301007270812988
1732873985272225500,3.4022255859375,0.323147714138031,0.36713001132011414,0.9077457785606384
1732873985282256100,3.412256103515625,0.28038713335990906,0.192422553896904,0.3378084897994995
1732873985292214500,3.422214599609375,0.23945917189121246,0.06475171446800232,-0.12034045159816742
1732873985302245000,3.4322451171875,0.22846360504627228,-0.012217304669320583,-0.5485569834709167
1732873985312234200,3.442234130859375,0.24068090319633484,-0.02932153269648552,-0.8491026759147644
1732873985322264300,3.452264404296875,0.26083946228027344,-0.036651913076639175,-1.0115928649902344
1732873985332223000,3.462222900390625,0.29504790902137756,-0.06352998316287994,-1.0574077367782593
1732873985342254800,3.4722548828125,0.3433062732219696,-0.09773843735456467,-1.0067058801651
1732873985352242400,3.482242431640625,0.3995058834552765,-0.13744467496871948,-0.8020660877227783
1732873985362243800,3.492243896484375,0.4282165467739105,-0.1569923609495163,-0.6212499737739563
1732873985372231700,3.502231689453125,0.4404338300228119,-0.15882496535778046,-0.43737950921058655
1732873985382263000,3.512262939453125,0.4282165467739105,-0.16554448008537292,-0.28588494658470154
1732873985392220700,3.522220703125,0.40072759985923767,-0.17959438264369965,-0.17837265133857727
1732873985402252500,3.53225244140625,0.36590829491615295,-0.20586158335208893,-0.12034045159816742
1732873985412240400,3.542240478515625,0.3176499307155609,-0.2370157092809677,-0.11728613078594208
1732873985422240500,3.552240478515625,0.2724458873271942,-0.2791654169559479,-0.15760323405265808
1732873985432229400,3.5622294921875,0.20891591906547546,-0.3488040566444397,-0.2638937830924988
1732873985442260200,3.57226025390625,0.17531833052635193,-0.3891211748123169,-0.33047810196876526
1732873985452218000,3.582218017578125,0.16493362188339233,-0.4196644127368927,-0.3744603991508484
1732873985462249200,3.592249267578125,0.1612684279680252,-0.4538728892803192,-0.3891211748123169
1732873985472237800,3.60223779296875,0.14966198801994324,-0.4813618063926697,-0.38667771220207214
1732873985482239000,3.612239013671875,0.16065755486488342,-0.47708576917648315,-0.3695734739303589
1732873985492226800,3.622226806640625,0.19792033731937408,-0.4349360466003418,-0.33475416898727417
1732873985502258400,3.632258544921875,0.26083946228027344,-0.3634648323059082,-0.22113321721553802
1732873985512215800,3.6422158203125,0.2926044464111328,-0.29565876722335815,-0.10506882518529892
1732873985522247700,3.65224755859375,0.30482175946235657,-0.19975294172763824,0.03481931984424591
1732873985532235300,3.6622353515625,0.28527405858039856,-0.10506882518529892,0.16920967400074005
1732873985542236700,3.672236572265625,0.23884831368923187,-0.012217304669320583,0.304210901260376
1732873985552224500,3.682224609375,0.17898350954055786,0.04764748737215996,0.43127086758613586
1732873985562255000,3.692255126953125,0.11056660860776901,0.08796459436416626,0.5174028873443604
1732873985572244000,3.702243896484375,0.004886921960860491,0.06536258012056351,0.5027421116828918
1732873985582244600,3.71224462890625,-0.0659734457731247,0.02687807008624077,0.3830125033855438
1732873985592232000,3.72223193359375,-0.13988813757896423,0.009773843921720982,0.18631389737129211
1732873985602263300,3.73226318359375,-0.21441370248794556,0.0024434609804302454,-0.04642575979232788
1732873985612249900,3.742249755859375,-0.23335053026676178,0.10201449692249298,-0.252287358045578
1732873985622253300,3.75225341796875,-0.2028072625398636,0.20586158335208893,-0.40133845806121826
1732873985632241000,3.762240966796875,-0.15821409225463867,0.23335053026676178,-0.4899139404296875
1732873985642242000,3.772241943359375,-0.12828169763088226,0.23945917189121246,-0.5106833577156067
1732873985652230000,3.78222998046875,-0.15393804013729095,0.23579397797584534,-0.40683624148368835
1732873985662261500,3.792261474609375,-0.18387043476104736,0.18448130786418915,-0.28038713335990906
1732873985672219100,3.80221923828125,-0.18387043476104736,0.08124507963657379,-0.16493362188339233
1732873985682250800,3.812250732421875,-0.23151792585849762,-0.03787364438176155,-0.09224065393209457
1732873985692239000,3.822239013671875,-0.3078760802745819,-0.21013765037059784,-0.11850785464048386
1732873985702240500,3.832240478515625,-0.38728857040405273,-0.39217549562454224,-0.2638937830924988
1732873985712228000,3.84222802734375,-0.4343251883983612,-0.5198463201522827,-0.4709770977497101
1732873985722259700,3.852259765625,-0.3982841372489929,-0.46731191873550415,-0.6249151229858398
1732873985732217000,3.862217041015625,-0.3139847218990326,-0.2779437005519867,-0.4960225820541382
1732873985742248700,3.872248779296875,-0.22296582162380219,-0.0757472887635231,-0.182648703455925
1732873985752236500,3.882236572265625,-0.09468411654233932,0.07819075137376785,0.2272418737411499
1732873985762237700,3.89223779296875,-0.06902777403593063,0.16310101747512817,0.6346889734268188
1732873985772225500,3.9022255859375,-0.15943582355976105,0.17837265133857727,0.9425650835037231
1732873985782257000,3.9122568359375,-0.252287358045578,0.09529497474431992,1.0873401165008545
1732873985792214500,3.922214599609375,-0.35613444447517395,-0.19914206862449646,0.9651671051979065
1732873985802245000,3.9322451171875,-0.43799036741256714,-0.34208452701568604,0.7165449261665344
1732873985812234200,3.942234130859375,-0.4960225820541382,-0.39095374941825867,0.3897320330142975
1732873985822264600,3.9522646484375,-0.5094616413116455,-0.35185837745666504,0.0403171069920063
1732873985832223200,3.96222314453125,-0.48197266459465027,-0.1973094791173935,-0.2828305959701538
1732873985842254800,3.9722548828125,-0.3732386529445648,0.01038470957428217,-0.5418374538421631
1732873985852242700,3.98224267578125,-0.22846360504627228,0.1459967941045761,-0.6805039048194885
1732873985862243600,3.99224365234375,-0.11484266817569733,0.23579397797584534,-0.6798930168151855
1732873985872231700,4.002231689453125,0.0006108652451075613,0.3390302062034607,-0.5277875661849976
1732873985882263000,4.012262939453125,0.04642575979232788,0.403781920671463,-0.36651915311813354
1732873985892220700,4.022220703125,0.05742133408784866,0.4489859640598297,-0.19792033731937408
1732873985902252300,4.032252197265625,0.039706241339445114,0.4251621961593628,-0.06658431142568588
1732873985912240000,4.042240234375,0.009162978269159794,0.3500257730484009,0.0012217304902151227
1732873985922241300,4.0522412109375,-0.039706241339445114,0.25961771607398987,0.0006108652451075613
1732873985932229000,4.06222900390625,-0.08918632566928864,0.17287486791610718,-0.05803219974040985
1732873985942261000,4.072260986328125,-0.11362093687057495,0.11667526513338089,-0.16798794269561768
1732873985952218000,4.082218017578125,-0.09712757170200348,0.1062905490398407,-0.2028072625398636
1732873985962249000,4.0922490234375,-0.042760565876960754,0.11667526513338089,-0.2015855312347412
1732873985972237600,4.102237548828125,0.02626720629632473,0.14355333149433136,-0.18020524084568024
1732873985982238200,4.11223828125,0.08735372871160507,0.20097467303276062,-0.14966198801994324
1732873985992226800,4.122226806640625,0.1368338167667389,0.26572638750076294,-0.1160643994808197
1732873986002258400,4.132258544921875,0.18875735998153687,0.2932153046131134,-0.0910189226269722
1732873986012215800,4.1422158203125,0.2168571650981903,0.3090978264808655,-0.07208210229873657
1732873986022247400,4.152247314453125,0.21868975460529327,0.31642818450927734,-0.0708603709936142
1732873986032235500,4.162235595703125,0.2076941877603531,0.31520646810531616,-0.06291911751031876
1732873986042236400,4.172236328125,0.19547687470912933,0.3139847218990326,-0.04153883829712868
1732873986052224500,4.182224609375,0.1765400618314743,0.3084869384765625,-0.006108652334660292
1732873986062256000,4.192256103515625,0.16432274878025055,0.303600013256073,0.04703662544488907
1732873986072243700,4.20224365234375,0.16310101747512817,0.2932153046131134,0.12461651116609573
1732873986082245000,4.2122451171875,0.1765400618314743,0.2565633952617645,0.22357667982578278
1732873986092233000,4.22223291015625,0.11301007121801376,0.1270599663257599,0.38606682419776917
1732873986102264300,4.232264404296875,0.0012217304902151227,0.025045474991202354,0.4813618063926697
1732873986112222000,4.242221923828125,-0.10751228034496307,-0.04886921867728233,0.5387831330299377
1732873986122253600,4.252253662109375,-0.19364428520202637,-0.13927727937698364,0.5174028873443604
1732873986132241400,4.262241455078125,-0.25106561183929443,-0.2168571650981903,0.40133845806121826
1732873986142242600,4.27224267578125,-0.24373523890972137,-0.26145032048225403,0.23640485107898712
1732873986152230400,4.28223046875,-0.28099802136421204,-0.30543261766433716,0.07147123664617538
1732873986162262300,4.29226220703125,-0.2840523421764374,-0.2938261926174164,-0.16859880089759827
1732873986172219400,4.302219482421875,-0.19486601650714874,-0.25106561183929443,-0.29016098380088806
1732873986182251000,4.3122509765625,-0.08491026610136032,-0.18570303916931152,-0.3433062732219696
1732873986192239000,4.322239013671875,0.036651913076639175,-0.11728613078594208,-0.30054569244384766
1732873986202240000,4.332239990234375,0.1368338167667389,-0.05497787147760391,-0.1716531366109848
1732873986212228000,4.34222802734375,0.21441370248794556,-0.039095375686883926,-0.03420845419168472
1732873986222259700,4.352259765625,0.25473082065582275,-0.06902777403593063,0.015882495790719986
1732873986232217000,4.362217041015625,0.17287486791610718,-0.17348572611808777,-0.1270599663257599
1732873986242248700,4.372248779296875,0.05009094998240471,-0.23640485107898712,-0.304210901260376
1732873986252236500,4.382236572265625,-0.0354301854968071,-0.34147366881370544,-0.42210787534713745
1732873986262238000,4.392238037109375,-0.02015855349600315,-0.45875978469848633,-0.3683517575263977
1732873986272225500,4.4022255859375,0.02932153269648552,-0.5210680365562439,-0.07024950534105301
1732873986282257200,4.412257080078125,0.1472185254096985,-0.4434881806373596,0.4105014503002167
1732873986292214800,4.42221484375,0.2926044464111328,-0.27061331272125244,0.9547823667526245
1732873986302244900,4.432244873046875,0.4612032473087311,-0.13866640627384186,1.395827054977417
1732873986312234200,4.442234130859375,0.6627888083457947,-0.019547687843441963,1.6047430038452148
1732873986322264600,4.4522646484375,0.7000515460968018,0.01710422709584236,1.4257594347000122
1732873986332223000,4.462222900390625,0.6701191663742065,0.024434609338641167,1.0690141916275024
1732873986342255600,4.472255615234375,0.5992587804794312,0.00855211354792118,0.5949827432632446
1732873986352242700,4.48224267578125,0.49846604466438293,-0.031154127791523933,0.08796459436416626
1732873986362242800,4.492242919921875,0.3933972120285034,-0.06902777403593063,-0.3646865487098694
1732873986372231700,4.502231689453125,0.31031954288482666,-0.12095131725072861,-0.6890559792518616
1732873986382261800,4.51226171875,0.28649580478668213,-0.16310101747512817,-0.8796459436416626
1732873986392220700,4.522220703125,0.33047810196876526,-0.14844025671482086,-0.8197811841964722
1732873986402252300,4.532252197265625,0.4043927788734436,-0.1160643994808197,-0.6475171446800232
1732873986412240400,4.542240478515625,0.47830748558044434,-0.07513642311096191,-0.40256020426750183
1732873986422241500,4.552241455078125,0.5277875661849976,-0.05314527451992035,-0.12095131725072861
1732873986432229400,4.5622294921875,0.5577199459075928,-0.059864792972803116,0.12950342893600464
1732873986442261000,4.572260986328125,0.5705481171607971,-0.048258353024721146,0.30543261766433716
1732873986452218400,4.58221826171875,0.5619960427284241,0.006108652334660292,0.42149701714515686
1732873986462250200,4.592250244140625,0.5375614166259766,0.042760565876960754,0.4398229718208313
1732873986472237800,4.60223779296875,0.49724429845809937,0.04398229718208313,0.43188172578811646
1732873986482238200,4.61223828125,0.4489859640598297,0.004886921960860491,0.4098905920982361
1732873986492226800,4.622226806640625,0.40683624148368835,-0.04886921867728233,0.3799581825733185
1732873986502258000,4.6322578125,0.37201693654060364,-0.11301007121801376,0.3396410644054413
1732873986512215800,4.6422158203125,0.3378084897994995,-0.16371189057826996,0.2834414839744568
1732873986522247200,4.6522470703125,0.30054569244384766,-0.2028072625398636,0.22052235901355743
1732873986532235500,4.662235595703125,0.23884831368923187,-0.25045475363731384,0.10445795953273773
1732873986542236000,4.67223583984375,0.20402899384498596,-0.24556782841682434,0.012217304669320583
1732873986552224500,4.682224609375,0.17959438264369965,-0.20525072515010834,-0.07757988572120667
1732873986562256100,4.692256103515625,0.16859880089759827,-0.1411098688840866,-0.12522737681865692
1732873986572244000,4.702243896484375,0.15821409225463867,-0.08185594528913498,-0.10262536257505417
1732873986582245000,4.7122451171875,0.15393804013729095,-0.03481931984424591,-0.009162978269159794
1732873986592232200,4.722232177734375,0.1472185254096985,0.01466076634824276,0.13500121235847473
1732873986602264000,4.73226416015625,0.1264491081237793,0.06352998316287994,0.38667771220207214
1732873986612221700,4.7422216796875,0.09407325088977814,0.07635815441608429,0.5167919993400574
1732873986622252300,4.752252197265625,0.05253441259264946,0.07330382615327835,0.5723807215690613
1732873986632241000,4.762240966796875,-0.012217304669320583,0.06536258012056351,0.5393940210342407
1732873986642241500,4.772241455078125,-0.09773843735456467,0.06414084881544113,0.4184426963329315
1732873986652230000,4.78222998046875,-0.19303341209888458,0.07024950534105301,0.23640485107898712
1732873986662261000,4.792260986328125,-0.2981022298336029,0.09468411654233932,0.04764748737215996
1732873986672219100,4.80221923828125,-0.43615779280662537,0.11239920556545258,-0.16432274878025055
1732873986682250800,4.812250732421875,-0.4954117238521576,0.12767083942890167,-0.2480112910270691
1732873986692239000,4.822239013671875,-0.5363397002220154,0.13866640627384186,-0.2926044464111328
1732873986702240300,4.832240234375,-0.5687155723571777,0.14782938361167908,-0.30115658044815063
1732873986712228000,4.84222802734375,-0.6023131608963013,0.15515977144241333,-0.251676470041275
1732873986722259700,4.852259765625,-0.6108652353286743,0.14416420459747314,-0.14538592100143433
1732873986732217000,4.862217041015625,-0.5723807215690613,0.10201449692249298,-0.00366519158706069
1732873986742248700,4.872248779296875,-0.5009095072746277,0.030543262138962746,0.1062905490398407
1732873986752236500,4.882236572265625,-0.3805690407752991,-0.07391469180583954,0.08552113175392151
1732873986762238000,4.892238037109375,-0.33536502718925476,-0.1007927656173706,-0.0507018156349659
1732873986772225500,4.9022255859375,-0.30970868468284607,-0.08307767659425735,-0.1966986060142517
1732873986782257200,4.912257080078125,-0.2834414839744568,-0.018325956538319588,-0.2590068578720093
1732873986792214500,4.922214599609375,-0.24495697021484375,0.05803219974040985,-0.17531833052635193
1732873986802246400,4.932246337890625,-0.22663100063800812,0.10873401165008545,0.0708603709936142
1732873986812234200,4.942234130859375,-0.26572638750076294,0.08552113175392151,0.394618958234787
1732873986822265600,4.952265625,-0.41233405470848083,-0.1258382350206375,0.7476990818977356
1732873986832223200,4.96222314453125,-0.49846604466438293,-0.2638937830924988,0.7397578358650208
1732873986842253600,4.972253662109375,-0.543059229850769,-0.34025195240974426,0.5369505286216736
1732873986852242400,4.982242431640625,-0.5638286471366882,-0.41233405470848083,0.2278527319431305
1732873986862242800,4.992242919921875,-0.5693264007568359,-0.42271876335144043,-0.10995574295520782
1732873986872231700,5.002231689453125,-0.5351179838180542,-0.36163222789764404,-0.4098905920982361
1732873986882263300,5.01226318359375,-0.4648684561252594,-0.252287358045578,-0.616973876953125
1732873986892220700,5.022220703125,-0.3280346393585205,-0.10323622822761536,-0.6811147332191467
1732873986902252300,5.032252197265625,-0.22479841113090515,0.0006108652451075613,-0.6004805564880371
1732873986912240000,5.042240234375,-0.13988813757896423,0.12339477986097336,-0.4813618063926697
1732873986922241300,5.0522412109375,-0.0910189226269722,0.19303341209888458,-0.35674530267715454
1732873986932229000,5.06222900390625,-0.06902777403593063,0.21930062770843506,-0.24190263450145721
1732873986942261000,5.072260986328125,-0.07269296050071716,0.21441370248794556,-0.14538592100143433
1732873986952218000,5.082218017578125,-0.10384709388017654,0.182648703455925,-0.07757988572120667
1732873986962250200,5.092250244140625,-0.13866640627384186,0.12278391420841217,-0.0507018156349659
1732873986972237800,5.10223779296875,-0.18814650177955627,0.05803219974040985,-0.051312681287527084
1732873986982238200,5.11223828125,-0.20341812074184418,0.025656340643763542,-0.06536258012056351
1732873986992226800,5.122226806640625,-0.20830504596233368,-0.006719517521560192,-0.08674286305904388
1732873987002258000,5.1322578125,-0.20952677726745605,-0.02871066704392433,-0.11545353382825851
1732873987012215800,5.1422158203125,-0.2125810980796814,-0.018936822190880775,-0.14966198801994324
1732873987022247000,5.152246826171875,-0.2021963894367218,0.019547687843441963,-0.18570303916931152
1732873987032235500,5.162235595703125,-0.17287486791610718,0.07513642311096191,-0.20402899384498596
1732873987042236000,5.17223583984375,-0.10506882518529892,0.16004669666290283,-0.1661553531885147
1732873987052224500,5.182224609375,-0.051312681287527084,0.21135938167572021,-0.0910189226269722
1732873987062256000,5.192256103515625,-0.006108652334660292,0.24617868661880493,0.00733038317412138
1732873987072244000,5.202243896484375,0.016493361443281174,0.2535090744495392,0.09773843735456467
1732873987082244900,5.212244873046875,0.01466076634824276,0.23518311977386475,0.16371189057826996
1732873987092233000,5.22223291015625,-0.010995574295520782,0.1918116807937622,0.2021963894367218
1732873987102264600,5.2322646484375,-0.054367005825042725,0.14538592100143433,0.2370157092809677
1732873987112222000,5.242221923828125,-0.11728613078594208,0.10262536257505417,0.32131510972976685
1732873987122253600,5.252253662109375,-0.13500121235847473,0.09957103431224823,0.41172316670417786
1732873987132241700,5.26224169921875,-0.13072516024112701,0.1264491081237793,0.5259549617767334
1732873987142241800,5.27224169921875,-0.09896016865968704,0.18325957655906677,0.6377432942390442
1732873987152230400,5.28223046875,-0.04886921867728233,0.24190263450145721,0.7092145681381226
1732873987162261500,5.292261474609375,-0.004886921960860491,0.28527405858039856,0.7165449261665344
1732873987172219400,5.302219482421875,0.007941247895359993,0.28099802136421204,0.636521577835083
1732873987182250500,5.31225048828125,-0.006108652334660292,0.22907446324825287,0.4807509481906891
1732873987192239000,5.322239013671875,-0.08979719132184982,0.0708603709936142,0.12767083942890167
1732873987202240000,5.332239990234375,-0.16920967400074005,-0.06902777403593063,-0.1313360333442688
1732873987212228000,5.34222802734375,-0.23151792585849762,-0.17776179313659668,-0.34147366881370544
1732873987222259700,5.352259765625,-0.24617868661880493,-0.22846360504627228,-0.4502076804637909
1732873987232217000,5.362217041015625,-0.18081611394882202,-0.23640485107898712,-0.4434881806373596
1732873987242248700,5.372248779296875,-0.05925392732024193,-0.1563815027475357,-0.3323107063770294
1732873987252236500,5.382236572265625,0.07269296050071716,-0.007941247895359993,-0.14966198801994324
1732873987262237700,5.39223779296875,0.20830504596233368,0.21135938167572021,0.15577064454555511
1732873987272225500,5.4022255859375,0.2528982162475586,0.28955012559890747,0.3023782968521118
1732873987282256100,5.412256103515625,0.26083946228027344,0.2932153046131134,0.35246923565864563
1732873987292214500,5.422214599609375,0.2321287989616394,0.22418753802776337,0.29077184200286865
1732873987302246100,5.43224609375,0.14782938361167908,0.07208210229873657,0.11423180252313614
1732873987312234200,5.442234130859375,0.036041051149368286,-0.14294247329235077,-0.1569923609495163
1732873987322265900,5.452265869140625,-0.06963863968849182,-0.3695734739303589,-0.4300491213798523
1732873987332223000,5.462222900390625,-0.10323622822761536,-0.6322455406188965,-0.5571091175079346
1732873987342253600,5.472253662109375,-0.0354301854968071,-0.6908885836601257,-0.37751471996307373
1732873987352242400,5.482242431640625,0.08979719132184982,-0.646906316280365,-0.05803219974040985
1732873987362242600,5.49224267578125,0.21502456068992615,-0.5088507533073425,0.2871066629886627
1732873987372231700,5.502231689453125,0.2981022298336029,-0.39706242084503174,0.5259549617767334
1732873987382262300,5.51226220703125,0.33719760179519653,-0.30115658044815063,0.5681046843528748
1732873987392220700,5.522220703125,0.34636059403419495,-0.20341812074184418,0.394008070230484
1732873987402251000,5.5322509765625,0.3445279896259308,-0.13561208546161652,0.07696902006864548
1732873987412240400,5.542240478515625,0.32681289315223694,-0.11789698898792267,-0.41172316670417786
1732873987422241300,5.5522412109375,0.32009339332580566,-0.14905111491680145,-0.6249151229858398
1732873987432229400,5.5622294921875,0.32681289315223694,-0.17959438264369965,-0.749531626701355
1732873987442261000,5.572260986328125,0.35185837745666504,-0.24495697021484375,-0.7953465580940247
1732873987452218400,5.58221826171875,0.37568211555480957,-0.30543261766433716,-0.7666358947753906
1732873987462250000,5.59225,0.3793473243713379,-0.38117989897727966,-0.6695083379745483
1732873987472237800,5.60223779296875,0.3689626157283783,-0.4184426963329315,-0.5308418869972229
1732873987482238700,5.61223876953125,0.3488040566444397,-0.2919935882091522,-0.304210901260376
1732873987492226800,5.622226806640625,0.3335324227809906,-0.1466076523065567,-0.15882496535778046
1732873987502258400,5.632258544921875,0.3219259977340698,-0.006719517521560192,0.0012217304902151227
1732873987512216000,5.642216064453125,0.3188716471195221,0.09224065393209457,0.15943582355976105
1732873987522247700,5.65224755859375,0.3188716471195221,0.17959438264369965,0.28527405858039856
1732873987532235500,5.662235595703125,0.313373863697052,0.24373523890972137,0.3536909818649292
1732873987542236000,5.67223583984375,0.303600013256073,0.25961771607398987,0.3805690407752991
1732873987552224500,5.682224609375,0.27122417092323303,0.24190263450145721,0.36102136969566345
1732873987562255400,5.69225537109375,0.23518311977386475,0.19058994948863983,0.30970868468284607
1732873987572244000,5.702243896484375,0.1966986060142517,0.1313360333442688,0.24129177629947662
1732873987582244400,5.712244384765625,0.17043140530586243,0.08307767659425735,0.16982053220272064
1732873987592232200,5.722232177734375,0.14905111491680145,0.05192354694008827,0.10751228034496307
1732873987602263600,5.732263671875,0.1313360333442688,0.0354301854968071,0.06719517707824707
1732873987612249900,5.742249755859375,0.11728613078594208,0.01771509274840355,0.04948008432984352
1732873987622252300,5.752252197265625,0.09957103431224823,-0.00427605677396059,0.0507018156349659
1732873987632241000,5.762240966796875,0.07757988572120667,-0.03237585723400116,0.06352998316287994
1732873987642241500,5.772241455078125,0.05803219974040985,-0.03298672288656235,0.06902777403593063
1732873987652230100,5.782230224609375,0.036651913076639175,-0.02626720629632473,0.08185594528913498
1732873987662261000,5.792260986328125,0.010995574295520782,-0.02076941914856434,0.12278391420841217
1732873987672219100,5.80221923828125,-0.022602014243602753,-0.02871066704392433,0.18997909128665924
1732873987682250000,5.81225,-0.059864792972803116,-0.054367005825042725,0.2638937830924988
1732873987692238800,5.82223876953125,-0.0910189226269722,-0.08124507963657379,0.31520646810531616
1732873987702239500,5.832239501953125,-0.14416420459747314,-0.11239920556545258,0.29504790902137756
1732873987712228000,5.84222802734375,-0.1820378452539444,-0.15332718193531036,0.2015855312347412
1732873987722259200,5.85225927734375,-0.23090706765651703,-0.19486601650714874,0.06963863968849182
1732873987732217000,5.862217041015625,-0.2730567753314972,-0.2021963894367218,-0.05497787147760391
1732873987742249000,5.8722490234375,-0.29138273000717163,-0.17959438264369965,-0.13866640627384186
1732873987752236500,5.882236572265625,-0.2822197377681732,-0.1459967941045761,-0.16920967400074005
1732873987762238000,5.892238037109375,-0.2583959996700287,-0.1007927656173706,-0.14844025671482086
1732873987772225500,5.9022255859375,-0.2626720666885376,-0.013439035043120384,-0.028099801391363144
1732873987782257000,5.9122568359375,-0.2968805134296417,0.016493361443281174,0.12278391420841217
1732873987792214500,5.922214599609375,-0.3286454975605011,0.01038470957428217,0.30482175946235657
1732873987802246400,5.932246337890625,-0.35124751925468445,-0.03726277872920036,0.44287729263305664
1732873987812234200,5.942234130859375,-0.3787364661693573,-0.12339477986097336,0.4648684561252594
1732873987822265600,5.952265625,-0.4147774875164032,-0.2070833146572113,0.33169981837272644
1732873987832223000,5.962222900390625,-0.4599815309047699,-0.26145032048225403,0.09896016865968704
1732873987842255000,5.972255126953125,-0.4709770977497101,-0.19975294172763824,-0.07452555745840073
1732873987852242400,5.982242431640625,-0.39156460762023926,0.021991148591041565,0.03176499158143997
1732873987862244000,5.992244140625,-0.3225368559360504,0.22296582162380219,0.3396410644054413
1732873987872231700,6.002231689453125,-0.25961771607398987,0.33169981837272644,0.7250970602035522
1732873987882263300,6.01226318359375,-0.24068090319633484,0.31154128909111023,1.0433578491210938
1732873987892220700,6.022220703125,-0.27977627515792847,0.24923302233219147,1.1746938228607178
1732873987902251300,6.032251220703125,-0.3481931984424591,0.20586158335208893,1.062294602394104
1732873987912240400,6.042240478515625,-0.4190535545349121,0.16432274878025055,0.7452555894851685
1732873987922240000,6.052239990234375,-0.4948008358478546,0.13377949595451355,0.04459316283464432
1732873987932229000,6.06222900390625,-0.485027015209198,0.1258382350206375,-0.4288274049758911
1732873987942261000,6.072260986328125,-0.4434881806373596,0.13561208546161652,-0.789237916469574
1732873987952218400,6.08221826171875,-0.3738495409488678,0.16982053220272064,-0.9902125597000122
1732873987962250000,6.09225,-0.28527405858039856,0.21930062770843506,-1.024420976638794
1732873987972237800,6.10223779296875,-0.20341812074184418,0.21502456068992615,-0.9291260242462158
1732873987982239000,6.112239013671875,-0.1258382350206375,0.2742784917354584,-0.7330383062362671
1732873987992226800,6.122226806640625,-0.042760565876960754,0.39217549562454224,-0.3885102868080139
1732873988002258400,6.132258544921875,-0.027488935738801956,0.3878994286060333,-0.19120082259178162
1732873988012215800,6.1422158203125,-0.05192354694008827,0.3445279896259308,-0.039706241339445114
1732873988022247400,6.152247314453125,-0.09040805697441101,0.294437050819397,0.048258353024721146
1732873988032235500,6.162235595703125,-0.1319468915462494,0.27000242471694946,0.0708603709936142
1732873988042236000,6.17223583984375,-0.16859880089759827,0.27061331272125244,0.033597588539123535
1732873988052224500,6.182224609375,-0.1966986060142517,0.26572638750076294,-0.04153883829712868
1732873988062255400,6.19225537109375,-0.2119702398777008,0.2565633952617645,-0.12950342893600464
1732873988072243700,6.20224365234375,-0.19486601650714874,0.20402899384498596,-0.24617868661880493
1732873988082244600,6.21224462890625,-0.17592918872833252,0.17592918872833252,-0.2822197377681732
1732873988092233000,6.22223291015625,-0.14416420459747314,0.1716531366109848,-0.28466320037841797
1732873988102264000,6.23226416015625,-0.10384709388017654,0.16920967400074005,-0.2687807083129883
1732873988112222000,6.242221923828125,-0.06291911751031876,0.15577064454555511,-0.23945917189121246
1732873988122253300,6.25225341796875,-0.025045474991202354,0.12217304855585098,-0.20525072515010834
1732873988132241400,6.262241455078125,0.0006108652451075613,0.07452555745840073,-0.16982053220272064
1732873988142242600,6.27224267578125,-0.0012217304902151227,-0.00733038317412138,-0.10873401165008545
1732873988152230400,6.28223046875,-0.019547687843441963,-0.06108652427792549,-0.06414084881544113
1732873988162262000,6.292261962890625,-0.033597588539123535,-0.09651670604944229,-0.025656340643763542
1732873988172219400,6.302219482421875,-0.051312681287527084,-0.10934487730264664,0.00855211354792118
1732873988182251300,6.312251220703125,-0.0708603709936142,-0.10384709388017654,0.06230825558304787
1732873988192239000,6.322239013671875,-0.08674286305904388,-0.09285151958465576,0.13805554807186127
1732873988202240000,6.332239990234375,-0.08491026610136032,-0.08429940044879913,0.22540926933288574
1732873988212228000,6.34222802734375,-0.04703662544488907,-0.039706241339445114,0.34147366881370544
1732873988222259700,6.352259765625,-0.006719517521560192,-0.021991148591041565,0.37568211555480957
1732873988232217000,6.362217041015625,0.022602014243602753,-0.009773843921720982,0.3646865487098694
1732873988242248000,6.372248046875,0.02932153269648552,-0.00855211354792118,0.29993483424186707
1732873988252236500,6.382236572265625,0.014049900695681572,-0.01038470957428217,0.18448130786418915
1732873988262238000,6.392238037109375,-0.015882495790719986,-0.02321287989616394,0.031154127791523933
1732873988272225500,6.4022255859375,-0.04459316283464432,-0.04764748737215996,-0.12767083942890167
1732873988282257200,6.412257080078125,-0.0659734457731247,-0.05803219974040985,-0.24007004499435425
1732873988292214500,6.422214599609375,-0.051312681287527084,-0.06108652427792549,-0.2816088795661926
1732873988302246100,6.43224609375,0.006108652334660292,-0.025045474991202354,-0.24068090319633484
1732873988312234200,6.442234130859375,0.0910189226269722,0.04153883829712868,-0.15943582355976105
1732873988322265600,6.452265625,0.18081611394882202,0.11667526513338089,-0.056810468435287476
1732873988332223000,6.462222900390625,0.2681698501110077,0.17959438264369965,0.054367005825042725
1732873988342254300,6.47225439453125,0.35613444447517395,0.20402899384498596,0.1270599663257599
1732873988352242700,6.48224267578125,0.42699480056762695,0.19120082259178162,0.10934487730264664
1732873988362244000,6.492244140625,0.44287729263305664,0.11667526513338089,-0.1215621829032898
1732873988372231700,6.502231689453125,0.3591887652873993,-0.028099801391363144,-0.33597588539123535
1732873988382263300,6.51226318359375,0.23945917189121246,-0.19547687470912933,-0.4709770977497101
1732873988392220700,6.522220703125,0.17592918872833252,-0.33292156457901,-0.4434881806373596
1732873988402252300,6.532252197265625,0.19486601650714874,-0.42577308416366577,-0.192422553896904
1732873988412240400,6.542240478515625,0.2736676335334778,-0.3549126982688904,0.24190263450145721
1732873988422240000,6.552239990234375,0.40256020426750183,-0.18387043476104736,0.7293730974197388
1732873988432229400,6.5622294921875,0.5919284224510193,0.09957103431224823,1.3261884450912476
1732873988442259700,6.572259765625,0.6536257863044739,0.18875735998153687,1.4880677461624146
1732873988452218400,6.58221826171875,0.627358615398407,0.20891591906547546,1.4190399646759033
1732873988462250800,6.592250732421875,0.5400048494338989,0.19058994948863983,1.149037480354309
1732873988472237600,6.602237548828125,0.4001167416572571,0.10323622822761536,0.7464773058891296
1732873988482239700,6.61223974609375,0.24923302233219147,-0.009162978269159794,0.23151792585849762
1732873988492226800,6.622226806640625,0.1264491081237793,-0.12950342893600464,-0.3683517575263977
1732873988502257200,6.632257080078125,0.05497787147760391,-0.2981022298336029,-0.9150761365890503
1732873988512215800,6.6422158203125,0.03726277872920036,-0.39156460762023926,-1.4282029867172241
1732873988522247400,6.652247314453125,0.09224065393209457,-0.4056145250797272,-1.4911220073699951
1732873988532235500,6.662235595703125,0.16798794269561768,-0.38667771220207214,-1.3432927131652832
1732873988542236400,6.672236328125,0.2724458873271942,-0.3225368559360504,-1.0702359676361084
1732873988552224500,6.682224609375,0.3885102868080139,-0.21624629199504852,-0.7611380815505981
1732873988562256100,6.692256103515625,0.46853363513946533,-0.0910189226269722,-0.4807509481906891
1732873988572244000,6.702243896484375,0.485027015209198,0.05619960278272629,-0.2773328125476837
1732873988582245400,6.712245361328125,0.4098905920982361,0.1569923609495163,-0.09285151958465576
1732873988592232200,6.722232177734375,0.2919935882091522,0.17043140530586243,-0.024434609338641167
1732873988602264300,6.732264404296875,0.1618792861700058,0.1472185254096985,0.01038470957428217
1732873988612221400,6.742221435546875,0.06352998316287994,0.13988813757896423,0.02015855349600315
1732873988622252300,6.752252197265625,0.013439035043120384,0.13805554807186127,0.015271631069481373
1732873988632241000,6.762240966796875,0.00427605677396059,0.1014036312699318,0.006719517521560192
1732873988642241500,6.772241455078125,0.021991148591041565,0.036041051149368286,-0.0024434609804302454
1732873988652230000,6.78222998046875,0.07391469180583954,-0.04337143152952194,-0.018325956538319588
1732873988662261000,6.792260986328125,0.11239920556545258,-0.0659734457731247,-0.03481931984424591
1732873988672219100,6.80221923828125,0.13927727937698364,-0.06841690838336945,-0.05864306539297104
1732873988682250800,6.812250732421875,0.15027284622192383,-0.06414084881544113,-0.07635815441608429
1732873988692239000,6.822239013671875,0.13927727937698364,-0.05497787147760391,-0.06902777403593063
1732873988702240300,6.832240234375,0.11545353382825851,-0.04214970022439957,-0.025045474991202354
1732873988712228000,6.84222802734375,0.08918632566928864,-0.010995574295520782,0.05497787147760391
1732873988722259500,6.852259521484375,0.06475171446800232,0.03298672288656235,0.1514945775270462
1732873988732217000,6.862217041015625,0.039095375686883926,0.05375614017248154,0.3029891550540924
1732873988742248700,6.872248779296875,0.021380282938480377,0.048258353024721146,0.3683517575263977
1732873988752236500,6.882236572265625,-0.009773843921720982,0.04092797264456749,0.39706242084503174
1732873988762237700,6.89223779296875,-0.031154127791523933,0.014049900695681572,0.3854559659957886
1732873988772225500,6.9022255859375,-0.022602014243602753,0.005497787147760391,0.33108896017074585
1732873988782257200,6.912257080078125,-0.006719517521560192,0.02382374368607998,0.26511552929878235
1732873988792214500,6.922214599609375,0.01710422709584236,0.05009094998240471,0.2217440903186798
1732873988802246100,6.93224609375,0.06230825558304787,0.1215621829032898,0.2528982162475586
1732873988812234200,6.942234130859375,0.08979719132184982,0.19792033731937408,0.3378084897994995
1732873988822265600,6.952265625,0.10384709388017654,0.2889392673969269,0.45204028487205505
1732873988832223200,6.96222314453125,0.11423180252313614,0.36590829491615295,0.5687155723571777
1732873988842254800,6.9722548828125,0.12095131725072861,0.42760565876960754,0.656069278717041
1732873988852242400,6.982242431640625,0.1062905490398407,0.5027421116828918,0.684779942035675
1732873988862243000,6.9922431640625,0.03726277872920036,0.48380526900291443,0.646906316280365
1732873988872231700,7.002231689453125,-0.11239920556545258,0.4612032473087311,0.4899139404296875
1732873988882262800,7.0122626953125,-0.16310101747512817,0.39706242084503174,0.31093040108680725
1732873988892220700,7.022220703125,-0.1765400618314743,0.2742784917354584,0.07696902006864548
1732873988902252300,7.032252197265625,-0.15027284622192383,0.14782938361167908,-0.2119702398777008
1732873988912240000,7.042240234375,-0.08491026610136032,0.059864792972803116,-0.5381723046302795
1732873988922241300,7.0522412109375,-0.021380282938480377,0.014049900695681572,-0.808174729347229
1732873988932229000,7.06222900390625,0.00855211354792118,0.030543262138962746,-0.8869763612747192
1732873988942261000,7.072260986328125,0.06719517707824707,0.060475658625364304,-0.720820963382721
1732873988952218400,7.08221826171875,0.20402899384498596,0.10812314599752426,-0.05497787147760391
1732873988962250000,7.09225,0.2877175211906433,0.12339477986097336,0.5149593949317932
1732873988972237800,7.10223779296875,0.33108896017074585,0.15577064454555511,1.0042624473571777
1732873988982239000,7.112239013671875,0.3121521472930908,0.2015855312347412,1.2974777221679688
1732873988992226800,7.122226806640625,0.22479841113090515,0.13072516024112701,1.4355332851409912
1732873989002258000,7.1322578125,0.07147123664617538,0.04398229718208313,1.444696307182312
1732873989012215800,7.1422158203125,-0.08857546001672745,-0.060475658625364304,1.3048081398010254
1732873989022249000,7.1522490234375,-0.2779437005519867,-0.17776179313659668,0.8906415104866028
1732873989032235500,7.162235595703125,-0.36224308609962463,-0.18570303916931152,0.5296201705932617
1732873989042237400,7.172237548828125,-0.38179078698158264,-0.17959438264369965,0.11239920556545258
1732873989052224500,7.182224609375,-0.3023782968521118,-0.21380282938480377,-0.36590829491615295
1732873989062255400,7.19225537109375,-0.18081611394882202,-0.29993483424186707,-0.8753699064254761
1732873989072243700,7.20224365234375,-0.10384709388017654,-0.33719760179519653,-1.3182471990585327
1732873989082245000,7.2122451171875,-0.0708603709936142,-0.37140607833862305,-1.6035212278366089
1732873989092233000,7.22223291015625,-0.05375614017248154,-0.5192354321479797,-1.670716404914856
1732873989102264600,7.2322646484375,-0.029932396486401558,-0.5754350423812866,-1.4850133657455444
1732873989112222000,7.242221923828125,0.007941247895359993,-0.5644394755363464,-1.1594222784042358
1732873989122253600,7.252253662109375,0.051312681287527084,-0.4893030524253845,-0.7354817390441895
1732873989132241400,7.262241455078125,0.09285151958465576,-0.37079519033432007,-0.2932153046131134
1732873989142242600,7.27224267578125,0.152105450630188,-0.24984388053417206,0.08124507963657379
1732873989152230400,7.28223046875,0.22479841113090515,-0.13805554807186127,0.33658674359321594
1732873989162262300,7.29226220703125,0.2828305959701538,-0.051312681287527084,0.44593164324760437
1732873989172219400,7.302219482421875,0.3323107063770294,0.05192354694008827,0.40622538328170776
1732873989182251000,7.3122509765625,0.3549126982688904,0.10384709388017654,0.32986724376678467
1732873989192239000,7.322239013671875,0.38117989897727966,0.13011430203914642,0.2638937830924988
1732873989202240300,7.332240234375,0.4202753007411957,0.11178833991289139,0.23945917189121246
1732873989212228000,7.34222802734375,0.47342056035995483,0.0959058403968811,0.24984388053417206
1732873989222258400,7.352258544921875,0.5412266254425049,0.0861319974064827,0.28038713335990906
1732873989232217000,7.362217041015625,0.617584764957428,0.07330382615327835,0.2926044464111328
1732873989242247400,7.372247314453125,0.7098253965377808,0.048258353024721146,0.21930062770843506
1732873989252236500,7.382236572265625,0.7367035150527954,0.04886921867728233,0.12339477986097336
1732873989262236400,7.392236328125,0.7470881938934326,0.06352998316287994,0.027488935738801956
1732873989272225500,7.4022255859375,0.7635815739631653,0.05192354694008827,-0.04764748737215996
1732873989282256100,7.412256103515625,0.8045095205307007,0.019547687843441963,-0.0959058403968811
1732873989292214500,7.422214599609375,0.8710938692092896,-0.00855211354792118,-0.12400564551353455
1732873989302245400,7.432245361328125,0.9346238374710083,-0.0012217304902151227,-0.13255776464939117
1732873989312234200,7.442234130859375,1.0488556623458862,0.07452555745840073,-0.11911872029304504
1732873989322264800,7.452264892578125,1.150259256362915,0.15332718193531036,-0.09407325088977814
1732873989332223000,7.462222900390625,1.2596040964126587,0.2370157092809677,-0.05864306539297104
1732873989342253600,7.472253662109375,1.3640620708465576,0.30543261766433716,-0.021991148591041565
1732873989352242400,7.482242431640625,1.4587461948394775,0.3494149148464203,0.007941247895359993
1732873989362242600,7.49224267578125,1.5344934463500977,0.35246923565864563,0.030543262138962746
1732873989372231700,7.502231689453125,1.5937473773956299,0.33536502718925476,0.05192354694008827
1732873989382262300,7.51226220703125,1.63467538356781,0.3188716471195221,0.08368854224681854
1732873989392220700,7.522220703125,1.6792685985565186,0.2785545587539673,0.11362093687057495
1732873989402251500,7.53225146484375,1.7061465978622437,0.26145032048225403,0.10567969083786011
1732873989412240400,7.542240478515625,1.7409659624099731,0.26450464129447937,0.0708603709936142
1732873989422240300,7.552240234375,1.7861700057983398,0.29077184200286865,0.015271631069481373
1732873989432229400,7.5622294921875,1.842369556427002,0.3274237811565399,-0.0403171069920063
1732873989442259700,7.572259765625,1.9101755619049072,0.35613444447517395,-0.08674286305904388
1732873989452218400,7.58221826171875,1.987755537033081,0.38606682419776917,-0.12339477986097336
1732873989462249000,7.5922490234375,2.10809588432312,0.3830125033855438,-0.16554448008537292
1732873989472237800,7.60223779296875,2.1649065017700195,0.35735616087913513,-0.20341812074184418
1732873989482238000,7.612238037109375,2.211332082748413,0.3194825351238251,-0.2565633952617645
1732873989492226800,7.622226806640625,2.253481864929199,0.2926044464111328,-0.3090978264808655
1732873989502257200,7.632257080078125,2.291966438293457,0.2791654169559479,-0.3445279896259308
1732873989512215800,7.6422158203125,2.333505153656006,0.2742784917354584,-0.3597996234893799
1732873989522246100,7.65224609375,2.378709316253662,0.2675589919090271,-0.3543018400669098
1732873989532235500,7.662235595703125,2.4587326049804688,0.2828305959701538,-0.32009339332580566
1732873989542236700,7.672236572265625,2.5137104988098145,0.2919935882091522,-0.2889392673969269
1732873989552224500,7.682224609375,2.568077564239502,0.2974913716316223,-0.2528982162475586
1732873989562256400,7.69225634765625,2.618168354034424,0.30604347586631775,-0.21074850857257843
1732873989572244000,7.702243896484375,2.652376890182495,0.3078760802745819,-0.16737708449363708
1732873989582245400,7.712245361328125,2.6737570762634277,0.29626965522766113,-0.13011430203914642
1732873989592232200,7.722232177734375,2.679865837097168,0.26511552929878235,-0.10873401165008545
1732873989602264300,7.732264404296875,2.6597073078155518,0.2272418737411499,-0.11484266817569733
1732873989612250000,7.74225,2.618168354034424,0.1765400618314743,-0.16982053220272064
1732873989622253300,7.75225341796875,2.5912904739379883,0.16249015927314758,-0.21807889640331268
1732873989632241000,7.762240966796875,2.571131706237793,0.16859880089759827,-0.26022860407829285
1732873989642242300,7.7722421875,2.560136318206787,0.18936823308467865,-0.29504790902137756
1732873989652230000,7.78222998046875,2.56257963180542,0.20525072515010834,-0.31031954288482666
1732873989662261800,7.79226171875,2.5674667358398438,0.2278527319431305,-0.30115658044815063
1732873989672219100,7.80221923828125,2.5729644298553467,0.2541199326515198,-0.2632829248905182
1732873989682250800,7.812250732421875,2.5833492279052734,0.2816088795661926,-0.15393804013729095
1732873989692238800,7.82223876953125,2.5973989963531494,0.3188716471195221,-0.05375614017248154
1732873989702240500,7.832240478515625,2.607783794403076,0.33719760179519653,0.051312681287527084
1732873989712228000,7.84222802734375,2.618779420852661,0.3237585723400116,0.13927727937698364
1732873989722259700,7.852259765625,2.6224443912506104,0.31031954288482666,0.19486601650714874
1732873989732217000,7.862217041015625,2.598620653152466,0.3549126982688904,0.1618792861700058
1732873989742249000,7.8722490234375,2.5167648792266846,0.3585779070854187,0.045204028487205505
1732873989752236500,7.882236572265625,2.3664920330047607,0.30604347586631775,-0.11789698898792267
1732873989762238000,7.892238037109375,2.309070587158203,0.31520646810531616,-0.16432274878025055
1732873989772225500,7.9022255859375,2.277916431427002,0.34636059403419495,-0.16493362188339233
1732873989782257400,7.91225732421875,2.258368730545044,0.38179078698158264,-0.13866640627384186
1732873989792214500,7.922214599609375,2.238821029663086,0.40194934606552124,-0.09529497474431992
1732873989802246400,7.932246337890625,2.2186625003814697,0.413555771112442,-0.04398229718208313
1732873989812234200,7.942234130859375,2.191784381866455,0.40744712948799133,-0.006108652334660292
1732873989822265900,7.952265869140625,2.1502456665039062,0.3805690407752991,0.012828170321881771
1732873989832223200,7.96222314453125,2.049452781677246,0.30115658044815063,-0.027488935738801956
1732873989842254800,7.9722548828125,1.9547687768936157,0.2382374405860901,-0.10873401165008545
1732873989852242400,7.982242431640625,1.845423936843872,0.1973094791173935,-0.2119702398777008
1732873989862243800,7.992243896484375,1.7464637756347656,0.17531833052635193,-0.31459560990333557
1732873989872231700,8.002231689453126,1.6780468225479126,0.17837265133857727,-0.3891211748123169
1732873989882263600,8.012263671875,1.6371188163757324,0.2076941877603531,-0.4056145250797272
1732873989892220700,8.022220703125,1.6181820631027222,0.2687807083129883,-0.3597996234893799
1732873989902252500,8.03225244140625,1.5998560190200806,0.38728857040405273,-0.17104226350784302
1732873989912240000,8.042240234375,1.5766432285308838,0.45814892649650574,-0.00366519158706069
1732873989922241500,8.052241455078125,1.5467108488082886,0.5057964324951172,0.14233160018920898
1732873989932229400,8.0622294921875,1.511891484260559,0.5051855444908142,0.24007004499435425
1732873989942260500,8.072260498046875,1.4703526496887207,0.46303585171699524,0.27550023794174194
1732873989952218000,8.082218017578125,1.4172073602676392,0.38179078698158264,0.25595253705978394
1732873989962249200,8.092249267578126,1.3451253175735474,0.2840523421764374,0.2015855312347412
1732873989972237800,8.10223779296875,1.2150110006332397,0.1362229436635971,0.08002334833145142
1732873989982238200,8.11223828125,1.1362093687057495,0.05864306539297104,-0.00366519158706069
1732873989992226800,8.122226806640626,1.073290228843689,0.015271631069481373,-0.06414084881544113
1732873990002258000,8.1322578125,1.0348057746887207,-0.02076941914856434,-0.08857546001672745
1732873990012215800,8.1422158203125,1.0030407905578613,-0.0555887371301651,-0.07391469180583954
1732873990022247000,8.152246826171876,0.9724974632263184,-0.08857546001672745,-0.02382374368607998
1732873990032235500,8.162235595703125,0.9468411207199097,-0.12095131725072861,0.05314527451992035
1732873990042236000,8.17223583984375,0.9260717034339905,-0.13744467496871948,0.14416420459747314
1732873990052224500,8.182224609375,0.902247965335846,-0.09529497474431992,0.26450464129447937
1732873990062255400,8.19225537109375,0.8778133392333984,-0.0507018156349659,0.3078760802745819
1732873990072243700,8.20224365234375,0.8387179970741272,-0.03420845419168472,0.3219259977340698
1732873990082244600,8.21224462890625,0.7837401032447815,-0.02871066704392433,0.32131510972976685
1732873990092233000,8.22223291015625,0.7141014933586121,-0.02871066704392433,0.31581732630729675
1732873990102264000,8.23226416015625,0.6407976150512695,-0.025045474991202354,0.3078760802745819
1732873990112222000,8.242221923828126,0.5607742667198181,-0.039706241339445114,0.29993483424186707
1732873990122253300,8.25225341796875,0.42271876335144043,-0.09651670604944229,0.29565876722335815
1732873990132241700,8.26224169921875,0.33719760179519653,-0.16004669666290283,0.2779437005519867
1732873990142242000,8.272241943359376,0.2626720666885376,-0.2632829248905182,0.2321287989616394
1732873990152230400,8.28223046875,0.19914206862449646,-0.3891211748123169,0.1563815027475357
1732873990162261500,8.292261474609376,0.14538592100143433,-0.4758640229701996,0.08124507963657379
1732873990172219400,8.302219482421876,0.09834930300712585,-0.47708576917648315,0.03237585723400116
1732873990182251000,8.3122509765625,0.05253441259264946,-0.40072759985923767,0.042760565876960754
1732873990192239000,8.322239013671876,-0.02382374368607998,-0.23090706765651703,0.2015855312347412
1732873990202239500,8.332239501953126,-0.09162978827953339,-0.1667662113904953,0.37262779474258423
1732873990212228000,8.34222802734375,-0.1771509200334549,-0.17348572611808777,0.543059229850769
1732873990222259000,8.352259033203126,-0.2669481039047241,-0.24678955972194672,0.6640105247497559
1732873990232217000,8.362217041015626,-0.33047810196876526,-0.29993483424186707,0.7006624341011047
1732873990242248700,8.372248779296875,-0.38667771220207214,-0.33108896017074585,0.6530149579048157
1732873990252236500,8.382236572265626,-0.4349360466003418,-0.34636059403419495,0.5442809462547302
1732873990262237400,8.392237548828126,-0.47280970215797424,-0.33475416898727417,0.4251621961593628
1732873990272225500,8.4022255859375,-0.46853363513946533,-0.2724458873271942,0.3237585723400116
1732873990282257400,8.41225732421875,-0.4343251883983612,-0.18875735998153687,0.3378084897994995
1732873990292214500,8.422214599609376,-0.40133845806121826,-0.07635815441608429,0.42149701714515686
1732873990302246000,8.432245849609375,-0.3830125033855438,0.012828170321881771,0.5448917746543884
1732873990312234200,8.442234130859376,-0.38117989897727966,0.05253441259264946,0.6664539575576782
1732873990322265000,8.45226513671875,-0.3878994286060333,0.0555887371301651,0.7440338730812073
1732873990332223000,8.462222900390625,-0.4105014503002167,0.039095375686883926,0.7312057018280029
1732873990342253600,8.472253662109376,-0.475253164768219,-0.025656340643763542,0.4862487316131592
1732873990352242400,8.482242431640625,-0.5241223573684692,-0.08124507963657379,0.1765400618314743
1732873990362242800,8.492242919921875,-0.5393940210342407,-0.1270599663257599,-0.22113321721553802
1732873990372231700,8.502231689453126,-0.5082398653030396,-0.11850785464048386,-0.645684540271759
1732873990382263300,8.51226318359375,-0.4648684561252594,-0.0354301854968071,-1.0195341110229492
1732873990392220700,8.522220703125,-0.4355469346046448,0.09162978827953339,-1.2718214988708496
1732873990402252300,8.532252197265626,-0.4153883755207062,0.21319197118282318,-1.3518447875976562
1732873990412240400,8.542240478515625,-0.3738495409488678,0.3243694305419922,-1.1337659358978271
1732873990422241300,8.5522412109375,-0.32070425152778625,0.3494149148464203,-0.8216137290000916
1732873990432229600,8.562229736328124,-0.2480112910270691,0.3341432809829712,-0.4612032473087311
1732873990442260000,8.572260009765625,-0.18875735998153687,0.25534167885780334,-0.1215621829032898
1732873990452218400,8.58221826171875,-0.1472185254096985,0.15882496535778046,0.12522737681865692
1732873990462249700,8.592249755859376,-0.11423180252313614,0.11728613078594208,0.2565633952617645
1732873990472237600,8.602237548828125,-0.08918632566928864,0.14049901068210602,0.29016098380088806
1732873990482238200,8.61223828125,-0.06902777403593063,0.18936823308467865,0.252287358045578
1732873990492226800,8.622226806640626,-0.051312681287527084,0.22907446324825287,0.1368338167667389
1732873990502258000,8.6322578125,-0.04886921867728233,0.22296582162380219,0.060475658625364304
1732873990512215800,8.6422158203125,-0.05864306539297104,0.19547687470912933,0.0024434609804302454
1732873990522247200,8.6522470703125,-0.0861319974064827,0.16554448008537292,-0.031154127791523933
1732873990532235500,8.662235595703125,-0.13316862285137177,0.12278391420841217,-0.04153883829712868
1732873990542236200,8.672236083984375,-0.19547687470912933,0.05619960278272629,-0.031154127791523933
1732873990552224500,8.682224609375,-0.26083946228027344,-0.012217304669320583,-0.004886921960860491
1732873990562256000,8.692255859375,-0.3481931984424591,-0.07696902006864548,0.05497787147760391
1732873990572244000,8.702243896484376,-0.37262779474258423,-0.08368854224681854,0.09162978827953339
1732873990582244600,8.71224462890625,-0.36713001132011414,-0.07208210229873657,0.11667526513338089
1732873990592232200,8.722232177734375,-0.34147366881370544,-0.048258353024721146,0.12950342893600464
1732873990602263800,8.732263916015626,-0.30482175946235657,-0.021991148591041565,0.12461651116609573
1732873990612221400,8.742221435546876,-0.2565633952617645,0.009162978269159794,0.11056660860776901
1732873990622252500,8.75225244140625,-0.2015855312347412,0.04764748737215996,0.09285151958465576
1732873990632241000,8.762240966796876,-0.11301007121801376,0.1264491081237793,0.09407325088977814
1732873990642241500,8.772241455078126,-0.06414084881544113,0.18509216606616974,0.13744467496871948
1732873990652230000,8.78222998046875,-0.0354301854968071,0.21074850857257843,0.21135938167572021
1732873990662261200,8.79226123046875,-0.02015855349600315,0.20036379992961884,0.2993239760398865
1732873990672219100,8.80221923828125,-0.01710422709584236,0.16065755486488342,0.3732386529445648
1732873990682250200,8.812250244140625,-0.02076941914856434,0.1160643994808197,0.403781920671463
1732873990692239000,8.822239013671876,-0.0354301854968071,0.06719517707824707,0.375071257352829
1732873990702239700,8.83223974609375,-0.045204028487205505,0.02321287989616394,0.2834414839744568
1732873990712228000,8.84222802734375,-0.04398229718208313,-0.00855211354792118,0.09285151958465576
1732873990722259200,8.85225927734375,-0.025045474991202354,-0.028099801391363144,-0.019547687843441963
1732873990732217000,8.862217041015626,0.006108652334660292,-0.06536258012056351,-0.08735372871160507
1732873990742248200,8.872248291015625,0.06291911751031876,-0.06719517707824707,-0.08307767659425735
1732873990752236500,8.882236572265626,0.1612684279680252,-0.018325956538319588,0
1732873990762237400,8.892237548828126,0.28466320037841797,0.054367005825042725,0.14416420459747314
1732873990772225500,8.9022255859375,0.38179078698158264,0.0959058403968811,0.2932153046131134
1732873990782256600,8.912256591796876,0.41233405470848083,0.05375614017248154,0.34758231043815613
1732873990792214500,8.922214599609376,0.36529740691185,-0.01771509274840355,0.2382374405860901
1732873990802246100,8.93224609375,0.2773328125476837,-0.09651670604944229,0.04642575979232788
1732873990812234200,8.942234130859376,0.16004669666290283,-0.17837265133857727,-0.14416420459747314
1732873990822265900,8.952265869140625,0.13377949595451355,-0.21319197118282318,-0.22602014243602753
1732873990832223000,8.962222900390625,0.21624629199504852,-0.18325957655906677,-0.13744467496871948
1732873990842254800,8.9722548828125,0.35063666105270386,-0.06475171446800232,0.1313360333442688
1732873990852242400,8.982242431640625,0.6041457056999207,0.11484266817569733,0.7641924023628235
1732873990862243800,8.992243896484375,0.7715228199958801,0.22479841113090515,1.2015719413757324
1732873990872231700,9.002231689453126,0.8802568316459656,0.3390302062034607,1.5424346923828125
1732873990882262800,9.0122626953125,0.9205739498138428,0.42088615894317627,1.7201964855194092
1732873990892220700,9.022220703125,0.8717046976089478,0.4642575979232788,1.7037031650543213
1732873990902251800,9.032251708984376,0.7165449261665344,0.48319441080093384,1.445918083190918
1732873990912240000,9.042240234375,0.4801400899887085,0.40744712948799133,0.9156870245933533
1732873990922240000,9.052239990234375,0.21502456068992615,0.2590068578720093,0.1820378452539444
1732873990932229400,9.0622294921875,-0.1264491081237793,-0.05925392732024193,-0.9834930300712585
1732873990942259700,9.072259765625,-0.24373523890972137,-0.23273965716362,-1.5919147729873657
1732873990952218400,9.08221826171875,-0.26633724570274353,-0.34513887763023376,-1.95965576171875
1732873990962248700,9.092248779296876,-0.19853121042251587,-0.38240164518356323,-2.0641136169433594
1732873990972237800,9.10223779296875,-0.056810468435287476,-0.34574973583221436,-1.9333884716033936
1732873990982239000,9.112239013671875,0.09896016865968704,-0.3084869384765625,-1.6285667419433594
1732873990992226800,9.122226806640626,0.251676470041275,-0.22357667982578278,-1.217454433441162
1732873991002258200,9.132258056640625,0.41172316670417786,-0.0757472887635231,-0.5907067060470581
1732873991012215800,9.1422158203125,0.484416127204895,0.03726277872920036,-0.2590068578720093
1732873991022247000,9.152246826171876,0.5302310585975647,0.1215621829032898,-0.02626720629632473
1732873991032235500,9.162235595703125,0.5491678714752197,0.1716531366109848,0.1062905490398407
1732873991042236000,9.17223583984375,0.5387831330299377,0.1814269721508026,0.14844025671482086
1732873991052224500,9.182224609375,0.5076290369033813,0.13805554807186127,0.11850785464048386
1732873991062255400,9.19225537109375,0.46792277693748474,0.05864306539297104,0.042760565876960754
1732873991072243700,9.20224365234375,0.40683624148368835,-0.0555887371301651,-0.07513642311096191
1732873991082244600,9.21224462890625,0.35613444447517395,-0.13011430203914642,-0.12278391420841217
1732873991092233000,9.22223291015625,0.29565876722335815,-0.19853121042251587,-0.14294247329235077
1732873991102264000,9.23226416015625,0.23884831368923187,-0.23396138846874237,-0.13439035415649414
1732873991112222000,9.242221923828126,0.20097467303276062,-0.2272418737411499,-0.10812314599752426
1732873991122253300,9.25225341796875,0.1771509200334549,-0.18631389737129211,-0.07024950534105301
1732873991132241400,9.262241455078126,0.17043140530586243,-0.1466076523065567,-0.01710422709584236
1732873991142242000,9.272241943359376,0.1765400618314743,-0.12095131725072861,0.045204028487205505
1732873991152230400,9.28223046875,0.18387043476104736,-0.1007927656173706,0.13561208546161652
1732873991162261500,9.292261474609376,0.18387043476104736,-0.10018189996480942,0.18020524084568024
1732873991172219400,9.302219482421876,0.18570303916931152,-0.10506882518529892,0.2076941877603531
1732873991182250500,9.31225048828125,0.18448130786418915,-0.11239920556545258,0.21563543379306793
1732873991192239000,9.322239013671876,0.1765400618314743,-0.12339477986097336,0.2064724564552307
1732873991202239500,9.332239501953126,0.16249015927314758,-0.13255776464939117,0.17531833052635193
1732873991212228000,9.34222802734375,0.16065755486488342,-0.1258382350206375,0.12522737681865692
1732873991222259200,9.35225927734375,0.1563815027475357,-0.09285151958465576,0.04459316283464432
1732873991232217000,9.362217041015626,0.13561208546161652,-0.05925392732024193,0.015882495790719986
1732873991242247700,9.37224755859375,0.10445795953273773,-0.04642575979232788,0.015882495790719986
1732873991252236500,9.382236572265626,0.06719517707824707,-0.03420845419168472,0.039706241339445114
1732873991262237000,9.39223681640625,0.039706241339445114,-0.029932396486401558,0.0757472887635231
1732873991272225500,9.4022255859375,0.019547687843441963,-0.09285151958465576,0.10262536257505417
1732873991282257200,9.412257080078126,0.009773843921720982,-0.16920967400074005,0.12095131725072861
1732873991292214500,9.422214599609376,-0.06108652427792549,-0.303600013256073,0.14355333149433136
1732873991302245400,9.432245361328125,-0.11911872029304504,-0.3787364661693573,0.14966198801994324
1732873991312234200,9.442234130859376,-0.12828169763088226,-0.36529740691185,0.19120082259178162
1732873991322265300,9.452265380859375,-0.12034045159816742,-0.32070425152778625,0.26511552929878235
1732873991332223000,9.462222900390625,-0.11056660860776901,-0.2877175211906433,0.32986724376678467
1732873991342254800,9.4722548828125,-0.10323622822761536,-0.3243694305419922,0.32620203495025635
1732873991352242700,9.48224267578125,-0.1014036312699318,-0.39767327904701233,0.23335053026676178
1732873991362243800,9.492243896484375,-0.09712757170200348,-0.39706242084503174,0.11178833991289139
1732873991372231700,9.502231689453126,-0.10018189996480942,-0.1973094791173935,0.0659734457731247
1732873991382263300,9.51226318359375,-0.14049901068210602,0.004886921960860491,0.18325957655906677
1732873991392220700,9.522220703125,-0.2370157092809677,0.1466076523065567,0.37751471996307373
1732873991402251000,9.5322509765625,-0.39095374941825867,0.1313360333442688,0.5723807215690613
1732873991412240400,9.542240478515625,-0.6102544069290161,0.02382374368607998,0.7299839854240417
1732873991422240000,9.552239990234375,-0.8246681094169617,-0.1258382350206375,0.8045095205307007
1732873991432229400,9.5622294921875,-0.9773843884468079,-0.21319197118282318,0.7440338730812073
1732873991442259700,9.572259765625,-1.0616837739944458,-0.20830504596233368,0.37262779474258423
1732873991452218400,9.58221826171875,-1.0012081861495972,-0.11667526513338089,-0.00427605677396059
1732873991462249200,9.592249267578126,-0.8790351152420044,0.027488935738801956,-0.38667771220207214
1732873991472237800,9.60223779296875,-0.7116580009460449,0.19547687470912933,-0.6908885836601257
1732873991482239000,9.612239013671875,-0.5070181488990784,0.3433062732219696,-0.8405506014823914
1732873991492226800,9.622226806640626,-0.30054569244384766,0.44776421785354614,-0.7898487448692322
1732873991502258400,9.632258544921875,-0.11301007121801376,0.4954117238521576,-0.5858197808265686
1732873991512215800,9.6422158203125,0.09957103431224823,0.5088507533073425,-0.19364428520202637
1732873991522247400,9.652247314453126,0.18020524084568024,0.4691445231437683,-0.00733038317412138
1732873991532235500,9.662235595703125,0.19975294172763824,0.4129449129104614,0.06291911751031876
1732873991542236000,9.67223583984375,0.16249015927314758,0.36224308609962463,0.02321287989616394
1732873991552224500,9.682224609375,0.06658431142568588,0.2669481039047241,-0.0959058403968811
1732873991562255400,9.69225537109375,-0.05925392732024193,0.13255776464939117,-0.25595253705978394
1732873991572244000,9.702243896484376,-0.17409659922122955,0.00733038317412138,-0.39156460762023926
1732873991582244400,9.712244384765626,-0.2480112910270691,-0.056810468435287476,-0.4648684561252594
1732873991592232000,9.72223193359375,-0.2632829248905182,-0.06536258012056351,-0.45326200127601624
1732873991602263800,9.732263916015626,-0.21868975460529327,-0.024434609338641167,-0.384845107793808
1732873991612251600,9.742251708984375,-0.1563815027475357,0.04459316283464432,-0.2974913716316223
1732873991622252500,9.75225244140625,-0.08918632566928864,0.12217304855585098,-0.2217440903186798
1732873991632241000,9.762240966796876,-0.0403171069920063,0.18081611394882202,-0.18020524084568024
1732873991642241500,9.772241455078126,-0.016493361443281174,0.20952677726745605,-0.16249015927314758
1732873991652230000,9.78222998046875,-0.01038470957428217,0.2223549485206604,-0.16432274878025055
1732873991662261000,9.792260986328126,-0.04092797264456749,0.1618792861700058,-0.16920967400074005
1732873991672219100,9.80221923828125,-0.08429940044879913,0.07635815441608429,-0.15027284622192383
1732873991682250200,9.812250244140625,-0.1411098688840866,-0.03420845419168472,-0.10567969083786011
1732873991692238800,9.82223876953125,-0.19914206862449646,-0.17043140530586243,-0.04337143152952194
1732873991702239700,9.83223974609375,-0.22540926933288574,-0.2828305959701538,0.025656340643763542
1732873991712228000,9.84222802734375,-0.21380282938480377,-0.29565876722335815,0.1062905490398407
1732873991722259000,9.852259033203126,-0.17837265133857727,-0.22846360504627228,0.20097467303276062
1732873991732217300,9.86221728515625,-0.1362229436635971,-0.08429940044879913,0.3781255781650543
1732873991742248200,9.872248291015625,-0.12828169763088226,-0.01771509274840355,0.5027421116828918
1732873991752236500,9.882236572265626,-0.12950342893600464,0.021991148591041565,0.607810914516449
1732873991762237200,9.8922373046875,-0.1472185254096985,0.033597588539123535,0.6682865619659424
1732873991772225500,9.9022255859375,-0.18875735998153687,-0.013439035043120384,0.6511823534965515
1732873991782256600,9.912256591796876,-0.2565633952617645,-0.09773843735456467,0.5290092825889587
1732873991792214500,9.922214599609376,-0.3549126982688904,-0.2168571650981903,0.2987131178379059
1732873991802246000,9.932245849609375,-0.44226643443107605,-0.3121521472930908,-0.005497787147760391
1732873991812234200,9.942234130859376,-0.5112941861152649,-0.3549126982688904,-0.4550946056842804
1732873991822265300,9.952265380859375,-0.48258355259895325,-0.28649580478668213,-0.6597344875335693
1732873991832223200,9.96222314453125,-0.34636059403419495,-0.12034045159816742,-0.7440338730812073
1732873991842254800,9.9722548828125,-0.11972958594560623,0.04642575979232788,-0.6829473376274109
1732873991852242700,9.98224267578125,0.12522737681865692,0.21380282938480377,-0.45814892649650574
1732873991862243800,9.992243896484375,0.3494149148464203,0.3897320330142975,-0.12950342893600464
1732873991872231700,10.002231689453126,0.5247332453727722,0.4758640229701996,0.1667662113904953
1732873991882262800,10.0122626953125,0.5974262356758118,0.4306600093841553,0.31093040108680725
1732873991892220700,10.022220703125,0.5326744914054871,0.28955012559890747,0.2028072625398636
1732873991902252300,10.032252197265626,0.42638394236564636,0.08735372871160507,0.007941247895359993
1732873991912240000,10.042240234375,0.30115658044815063,-0.10567969083786011,-0.16065755486488342
1732873991922241500,10.052241455078125,0.21319197118282318,-0.21868975460529327,-0.2119702398777008
1732873991932229400,10.0622294921875,0.18997909128665924,-0.23335053026676178,-0.10567969083786011
1732873991942259500,10.072259521484375,0.242513507604599,-0.1771509200334549,0.1368338167667389
1732873991952218000,10.082218017578125,0.37568211555480957,-0.08735372871160507,0.5644394755363464
1732873991962248700,10.092248779296876,0.4288274049758911,-0.04398229718208313,0.7348709106445312
1732873991972237800,10.10223779296875,0.42638394236564636,-0.0012217304902151227,0.7318165898323059
1732873991982237700,10.11223779296875,0.3891211748123169,0.04398229718208313,0.543059229850769
1732873991992226800,10.122226806640626,0.3292563557624817,0.10812314599752426,0.23518311977386475
1732873992002257700,10.132257568359375,0.25473082065582275,0.1417207419872284,-0.09162978827953339
1732873992012215800,10.1422158203125,0.17348572611808777,0.12034045159816742,-0.37568211555480957
1732873992022246000,10.152245849609375,0.11667526513338089,0.0659734457731247,-0.5791002511978149
1732873992032235500,10.162235595703125,0.10445795953273773,-0.03237585723400116,-0.7128797173500061
1732873992042236400,10.172236328125,0.10690141469240189,-0.10567969083786011,-0.6866125464439392
1732873992052224500,10.182224609375,0.1062905490398407,-0.19364428520202637,-0.5858197808265686
1732873992062256000,10.192256103515625,0.11667526513338089,-0.23579397797584534,-0.44654250144958496
1732873992072244000,10.202243896484376,0.12950342893600464,-0.22846360504627228,-0.2968805134296417
1732873992082244900,10.212244873046876,0.1368338167667389,-0.19058994948863983,-0.1569923609495163
1732873992092233000,10.22223291015625,0.15393804013729095,-0.12217304855585098,-0.042760565876960754
1732873992102264000,10.23226416015625,0.20036379992961884,-0.02015855349600315,0.08918632566928864
1732873992112222000,10.242221923828126,0.24862214922904968,0.039095375686883926,0.152105450630188
1732873992122253300,10.25225341796875,0.29626965522766113,0.07635815441608429,0.1765400618314743
1732873992132241700,10.26224169921875,0.33292156457901,0.08368854224681854,0.15882496535778046
1732873992142242300,10.2722421875,0.34697145223617554,0.05803219974040985,0.10995574295520782
1732873992152230100,10.282230224609375,0.33536502718925476,0.012217304669320583,0.04398229718208313
1732873992162261800,10.29226171875,0.31031954288482666,-0.04948008432984352,-0.025045474991202354
1732873992172219400,10.302219482421876,0.2675589919090271,-0.1417207419872284,-0.11301007121801376
1732873992182250800,10.312250732421875,0.23884831368923187,-0.15027284622192383,-0.1264491081237793
1732873992192239000,10.322239013671876,0.21013765037059784,-0.14477506279945374,-0.10018189996480942
1732873992202239700,10.33223974609375,0.17409659922122955,-0.14233160018920898,-0.05497787147760391
1732873992212228000,10.34222802734375,0.12522737681865692,-0.13744467496871948,-0.01710422709584236
1732873992222259200,10.35225927734375,0.0910189226269722,-0.11484266817569733,0.00733038317412138
1732873992232217000,10.362217041015626,0.07330382615327835,-0.07269296050071716,0.015271631069481373
1732873992242248200,10.372248291015625,0.06719517707824707,-0.02626720629632473,0.021380282938480377
1732873992252236800,10.38223681640625,0.04642575979232788,0.07208210229873657,0.048258353024721146
1732873992262237000,10.39223681640625,0.030543262138962746,0.11178833991289139,0.04948008432984352
1732873992272225500,10.4022255859375,-0.00427605677396059,0.13866640627384186,0.014049900695681572
1732873992282256600,10.412256591796876,-0.08491026610136032,0.15454891324043274,-0.045204028487205505
1732873992292214500,10.422214599609376,-0.17592918872833252,0.11545353382825851,-0.12339477986097336
1732873992302245600,10.43224560546875,-0.26511552929878235,0.02871066704392433,-0.19608774781227112
1732873992312234200,10.442234130859376,-0.3439171314239502,-0.05803219974040985,-0.23396138846874237
1732873992322265300,10.452265380859375,-0.3830125033855438,-0.04092797264456749,-0.20525072515010834
1732873992332223000,10.462222900390625,-0.32131510972976685,0.036651913076639175,-0.15393804013729095
1732873992342255000,10.472255126953126,-0.21319197118282318,0.08735372871160507,-0.10812314599752426
1732873992352242700,10.48224267578125,-0.10384709388017654,0.08918632566928864,-0.0861319974064827
1732873992362244000,10.492244140625,-0.028099801391363144,0.09468411654233932,-0.07696902006864548
1732873992372231700,10.502231689453126,-0.0012217304902151227,0.11911872029304504,-0.06414084881544113
1732873992382262500,10.512262451171875,0.0024434609804302454,0.1362229436635971,-0.05314527451992035
1732873992392220700,10.522220703125,-0.04092797264456749,0.036651913076639175,-0.07452555745840073
1732873992402252500,10.53225244140625,-0.1062905490398407,-0.11850785464048386,-0.15882496535778046
1732873992412240400,10.542240478515625,-0.1667662113904953,-0.2632829248905182,-0.2987131178379059
1732873992422241300,10.5522412109375,-0.17409659922122955,-0.2718350291252136,-0.42638394236564636
1732873992432229400,10.5622294921875,-0.13744467496871948,-0.152105450630188,-0.43799036741256714
1732873992442261000,10.572260986328125,-0.07330382615327835,0.01710422709584236,-0.2669481039047241
1732873992452218400,10.58221826171875,0.00733038317412138,0.1618792861700058,0.07513642311096191
1732873992462250000,10.59225,0.07819075137376785,0.2125810980796814,0.48808133602142334
1732873992472237800,10.60223779296875,0.07147123664617538,0.04642575979232788,0.9639453291893005
1732873992482237700,10.61223779296875,-0.05314527451992035,-0.11545353382825851,1.0684033632278442
1732873992492226800,10.622226806640626,-0.17348572611808777,-0.26572638750076294,0.9633345007896423
1732873992502257200,10.632257080078125,-0.2541199326515198,-0.3695734739303589,0.6774495840072632
1732873992512216000,10.642216064453125,-0.31154128909111023,-0.39156460762023926,0.2974913716316223
1732873992522246400,10.652246337890626,-0.36102136969566345,-0.35124751925468445,-0.10567969083786011
1732873992532235500,10.662235595703125,-0.37079519033432007,-0.2742784917354584,-0.455705463886261
1732873992542236700,10.672236572265625,-0.28466320037841797,-0.11545353382825851,-0.8161159753799438
1732873992552224500,10.682224609375,-0.23945917189121246,0.00366519158706069,-0.9095783233642578
1732873992562256100,10.692256103515625,-0.20891591906547546,0.11301007121801376,-0.8723155856132507
1732873992572244200,10.702244140625,-0.16859880089759827,0.18570303916931152,-0.7367035150527954
1732873992582245000,10.7122451171875,-0.1459967941045761,0.2168571650981903,-0.5418374538421631
1732873992592232000,10.72223193359375,-0.15515977144241333,0.2217440903186798,-0.31642818450927734
1732873992602264000,10.73226416015625,-0.192422553896904,0.20341812074184418,-0.10323622822761536
1732873992612221400,10.742221435546876,-0.2840523421764374,0.10751228034496307,0.12034045159816742
1732873992622253300,10.75225341796875,-0.34208452701568604,0.01038470957428217,0.1814269721508026
1732873992632241200,10.7622412109375,-0.37201693654060364,-0.07452555745840073,0.18325957655906677
1732873992642241500,10.772241455078126,-0.37568211555480957,-0.1313360333442688,0.16004669666290283
1732873992652230000,10.78222998046875,-0.35674530267715454,-0.15454891324043274,0.13927727937698364
1732873992662261200,10.79226123046875,-0.3090978264808655,-0.1270599663257599,0.1264491081237793
1732873992672219100,10.80221923828125,-0.23945917189121246,-0.04703662544488907,0.11911872029304504
1732873992682250200,10.812250244140625,-0.14905111491680145,0.05925392732024193,0.1014036312699318
1732873992692238800,10.82223876953125,-0.0403171069920063,0.19792033731937408,0.07941248267889023
1732873992702239700,10.83223974609375,-0.00366519158706069,0.24007004499435425,0.05803219974040985
1732873992712228000,10.84222802734375,0.001832595793530345,0.2272418737411499,0.04153883829712868
1732873992722259200,10.85225927734375,-0.016493361443281174,0.19058994948863983,0.04886921867728233
1732873992732217000,10.862217041015626,-0.04092797264456749,0.14844025671482086,0.06902777403593063
1732873992742248400,10.87224853515625,-0.06414084881544113,0.09957103431224823,0.09468411654233932
1732873992752236500,10.882236572265626,-0.0757472887635231,0.05192354694008827,0.11667526513338089
1732873992762237000,10.89223681640625,-0.06719517707824707,0.0012217304902151227,0.15454891324043274
1732873992772225500,10.9022255859375,-0.051312681287527084,-0.015271631069481373,0.18875735998153687
1732873992782256600,10.912256591796876,-0.030543262138962746,-0.015882495790719986,0.2321287989616394
1732873992792214500,10.922214599609376,-0.01160643994808197,-0.02076941914856434,0.2816088795661926
1732873992802245600,10.93224560546875,0.00427605677396059,-0.021380282938480377,0.33292156457901
1732873992812234200,10.942234130859376,0.018325956538319588,-0.009773843921720982,0.36651915311813354
1732873992822265000,10.95226513671875,0.031154127791523933,0.003054326167330146,0.3597996234893799
1732873992832223000,10.962222900390625,0.02321287989616394,0.004886921960860491,0.26633724570274353
1732873992842254000,10.972254150390626,0.00733038317412138,-0.00366519158706069,0.14905111491680145
1732873992852242700,10.98224267578125,-0.018936822190880775,-0.030543262138962746,0.00427605677396059
1732873992862243000,10.9922431640625,-0.060475658625364304,-0.0757472887635231,-0.14477506279945374
1732873992872231700,11.002231689453126,-0.10201449692249298,-0.10445795953273773,-0.2687807083129883
1732873992882263300,11.01226318359375,-0.1111774742603302,-0.09407325088977814,-0.3341432809829712
1732873992892220700,11.022220703125,-0.08857546001672745,-0.07513642311096191,-0.32498031854629517
1732873992902252300,11.032252197265626,-0.004886921960860491,-0.04337143152952194,-0.24373523890972137
1732873992912240000,11.042240234375,0.14538592100143433,0.04948008432984352,-0.022602014243602753
1732873992922241500,11.052241455078125,0.21868975460529327,0.08246681094169617,0.1313360333442688
1732873992932229400,11.0622294921875,0.2626720666885376,0.03298672288656235,0.23518311977386475
1732873992942260700,11.0722607421875,0.2626720666885376,-0.10751228034496307,0.2528982162475586
1732873992952218400,11.08221826171875,0.21807889640331268,-0.25961771607398987,0.182648703455925
1732873992962250000,11.09225,0.16432274878025055,-0.3500257730484009,0.07941248267889023
1732873992972237800,11.10223779296875,0.13805554807186127,-0.35674530267715454,0.02321287989616394
1732873992982239000,11.112239013671875,0.1661553531885147,-0.26145032048225403,0.10751228034496307
1732873992992226800,11.122226806640626,0.2064724564552307,-0.12950342893600464,0.2571742534637451
1732873993002258200,11.132258056640625,0.24068090319633484,-0.025656340643763542,0.40194934606552124
1732873993012215800,11.1422158203125,0.25473082065582275,0.004886921960860491,0.45753806829452515
1732873993022247000,11.152246826171876,0.24495697021484375,0.02321287989616394,0.3781255781650543
1732873993032235500,11.162235595703125,0.21807889640331268,0.05742133408784866,0.16004669666290283
1732873993042236400,11.172236328125,0.1814269721508026,0.09346238523721695,-0.14294247329235077
1732873993052224500,11.182224609375,0.11239920556545258,0.08002334833145142,-0.5681046843528748
1732873993062255900,11.192255859375,0.08246681094169617,0.048258353024721146,-0.7757988572120667
1732873993072244000,11.202243896484376,0.08796459436416626,0.031154127791523933,-0.8991936445236206
1732873993082245000,11.2122451171875,0.1111774742603302,0.00366519158706069,-0.9340129494667053
1732873993092233000,11.22223291015625,0.13072516024112701,-0.04214970022439957,-0.8692612648010254
1732873993102264600,11.2322646484375,0.16065755486488342,-0.054367005825042725,-0.7232644557952881
1732873993112222000,11.242221923828126,0.2070833146572113,-0.036041051149368286,-0.5247332453727722
1732873993122253600,11.252253662109375,0.25106561183929443,0.001832595793530345,-0.313373863697052
1732873993132241400,11.262241455078126,0.28038713335990906,0.059864792972803116,-0.0757472887635231
1732873993142242000,11.272241943359376,0.2767219543457031,0.09346238523721695,-0.001832595793530345
1732873993152230400,11.28223046875,0.25106561183929443,0.11972958594560623,0.014049900695681572
1732873993162261800,11.29226171875,0.20586158335208893,0.13072516024112701,-0.012828170321881771
1732873993172219400,11.302219482421876,0.14416420459747314,0.10567969083786011,-0.06658431142568588
1732873993182250800,11.312250732421875,0.08674286305904388,0.059864792972803116,-0.12217304855585098
1732873993192239000,11.322239013671876,0.045204028487205505,0.01160643994808197,-0.16249015927314758
1732873993202239500,11.332239501953126,0.025045474991202354,-0.0555887371301651,-0.1612684279680252
1732873993212228000,11.34222802734375,0.039706241339445114,-0.08979719132184982,-0.11545353382825851
1732873993222259200,11.35225927734375,0.07757988572120667,-0.10751228034496307,-0.054367005825042725
1732873993232217000,11.362217041015626,0.12278391420841217,-0.12522737681865692,0.00366519158706069
1732873993242248000,11.372248046875,0.1618792861700058,-0.1411098688840866,0.04398229718208313
1732873993252631600,11.382631591796875,0.18570303916931152,-0.1472185254096985,0.07391469180583954
1732873993262610400,11.3926103515625,0.19120082259178162,-0.1508837193250656,0.09651670604944229
1732873993272599000,11.40259912109375,0.18020524084568024,-0.14355333149433136,0.12217304855585098
1732873993282630700,11.412630615234375,0.1612684279680252,-0.14294247329235077,0.14538592100143433
1732873993292588000,11.422588134765626,0.13255776464939117,-0.14294247329235077,0.1820378452539444
1732873993302619600,11.43261962890625,0.10018189996480942,-0.1160643994808197,0.22602014243602753
1732873993312607500,11.442607421875,0.06169738993048668,-0.0959058403968811,0.2632829248905182
1732873993322638600,11.452638671875,0.01466076634824276,-0.10262536257505417,0.2822197377681732
1732873993332596500,11.462596435546875,-0.039095375686883926,-0.1270599663257599,0.26939156651496887
1732873993342627600,11.472627685546875,-0.08246681094169617,-0.14966198801994324,0.2168571650981903
1732873993352616200,11.4826162109375,-0.1111774742603302,-0.15332718193531036,0.1007927656173706
1732873993362616600,11.492616455078124,-0.09407325088977814,-0.13805554807186127,0.02321287989616394
1732873993372605200,11.502605224609376,-0.06291911751031876,-0.09162978827953339,-0.03726277872920036
1732873993382636300,11.51263623046875,-0.00733038317412138,-0.001832595793530345,-0.06291911751031876
1732873993392594200,11.52259423828125,0.03237585723400116,0.03787364438176155,-0.08307767659425735
1732873993402625800,11.532625732421875,0.02932153269648552,0.03420845419168472,-0.11911872029304504
1732873993412613600,11.542613525390625,-0.03176499158143997,0.01160643994808197,-0.1618792861700058
1732873993422614800,11.55261474609375,-0.18509216606616974,-0.02382374368607998,-0.192422553896904
1732873993432602600,11.5626025390625,-0.24678955972194672,-0.0403171069920063,-0.14233160018920898
1732873993442634200,11.57263427734375,-0.24984388053417206,-0.04703662544488907,-0.015271631069481373
1732873993452591600,11.582591552734375,-0.21807889640331268,-0.045204028487205505,0.13255776464939117
1732873993462623500,11.59262353515625,-0.16004669666290283,-0.016493361443281174,0.21319197118282318
1732873993472611300,11.602611328125,-0.08491026610136032,0.03848451003432274,0.18325957655906677
1732873993482612200,11.6126123046875,-0.014049900695681572,0.10018189996480942,0.0757472887635231
1732873993492600300,11.622600341796876,0.054367005825042725,0.2168571650981903,0.018325956538319588
1732873993502631700,11.632631591796875,0.03848451003432274,0.2370157092809677,0.1417207419872284
1732873993512589000,11.642589111328125,-0.031154127791523933,0.15027284622192383,0.33108896017074585
1732873993522621200,11.65262109375,-0.1417207419872284,0.018325956538319588,0.50335294008255
1732873993532608800,11.66260888671875,-0.26939156651496887,-0.11911872029304504,0.5632177591323853
1732873993542609000,11.67260888671875,-0.3738495409488678,-0.24007004499435425,0.45692721009254456
1732873993552598000,11.682597900390626,-0.4355469346046448,-0.323147714138031,0.2028072625398636
1732873993562628400,11.69262841796875,-0.4392121136188507,-0.3744603991508484,-0.13805554807186127
1732873993572617500,11.702617431640626,-0.3078760802745819,-0.3433062732219696,-0.6151412725448608
1732873993582618600,11.71261865234375,-0.15760323405265808,-0.2370157092809677,-0.8069530129432678
1732873993592605400,11.72260546875,0.0006108652451075613,-0.12828169763088226,-0.8600982427597046
1732873993602637600,11.732637451171875,0.13866640627384186,-0.00855211354792118,-0.769079327583313
1732873993612617700,11.74261767578125,0.2474004179239273,0.12522737681865692,-0.5626068711280823
1732873993622626600,11.75262646484375,0.2987131178379059,0.2632829248905182,-0.29993483424186707
1732873993632614400,11.762614501953125,0.28955012559890747,0.33475416898727417,-0.0507018156349659
1732873993642615600,11.772615478515625,0.16920967400074005,0.30482175946235657,0.252287358045578
1732873993652603400,11.782603271484374,0.025656340643763542,0.24984388053417206,0.36224308609962463
1732873993662634500,11.792634521484375,-0.11423180252313614,0.1765400618314743,0.38667771220207214
1732873993672592600,11.802592529296875,-0.2119702398777008,0.10995574295520782,0.3481931984424591
1732873993682623500,11.81262353515625,-0.2626720666885376,0.08429940044879913,0.26939156651496887
1732873993692612400,11.8226123046875,-0.27488934993743896,0.09834930300712585,0.16493362188339233
1732873993702613200,11.83261328125,-0.26450464129447937,0.11545353382825851,0.04337143152952194
1732873993712601300,11.842601318359375,-0.22479841113090515,0.14049901068210602,-0.15271630883216858
1732873993722632200,11.852632080078125,-0.19792033731937408,0.16004669666290283,-0.2785545587539673
1732873993732590300,11.86259033203125,-0.17531833052635193,0.16737708449363708,-0.3793473243713379
1732873993742621400,11.872621337890624,-0.16065755486488342,0.16249015927314758,-0.4337143301963806
1732873993752610000,11.882610107421876,-0.1563815027475357,0.1667662113904953,-0.4245513379573822
1732873993762611000,11.89261083984375,-0.14477506279945374,0.16065755486488342,-0.3683517575263977
1732873993772599000,11.90259912109375,-0.1160643994808197,0.1716531366109848,-0.27122417092323303
1732873993782630400,11.91263037109375,-0.08185594528913498,0.19303341209888458,-0.1466076523065567
1732873993792588000,11.922588134765626,-0.05314527451992035,0.17409659922122955,0.048258353024721146
1732873993802619600,11.93261962890625,-0.04886921867728233,0.1362229436635971,0.1563815027475357
1732873993812607700,11.942607666015626,-0.05864306539297104,0.09773843735456467,0.2370157092809677
1732873993822638300,11.952638427734374,-0.07208210229873657,0.06291911751031876,0.28527405858039856
1732873993832596500,11.962596435546875,-0.08735372871160507,0.029932396486401558,0.2926044464111328
1732873993842627600,11.972627685546875,-0.11301007121801376,0,0.25534167885780334
1732873993852616000,11.982615966796875,-0.13805554807186127,-0.028099801391363144,0.1667662113904953
1732873993862616800,11.992616943359375,-0.17348572611808777,-0.0910189226269722,-0.028099801391363144
1732873993872605200,12.002605224609376,-0.21074850857257843,-0.1264491081237793,-0.1722639948129654
1732873993882636300,12.01263623046875,-0.2474004179239273,-0.15943582355976105,-0.3176499307155609
1732873993892594200,12.02259423828125,-0.26633724570274353,-0.21868975460529327,-0.4495968222618103
1732873993902625800,12.032625732421875,-0.25961771607398987,-0.2932153046131134,-0.5314527750015259
1732873993912613400,12.04261328125,-0.22968533635139465,-0.31459560990333557,-0.5461135506629944
1732873993922614800,12.05261474609375,-0.1612684279680252,-0.29016098380088806,-0.4899139404296875
1732873993932602600,12.0626025390625,0.03481931984424591,-0.1618792861700058,-0.2968805134296417
1732873993942634200,12.07263427734375,0.19120082259178162,-0.06536258012056351,-0.13377949595451355
1732873993952591600,12.082591552734375,0.30054569244384766,-0.01710422709584236,0.012828170321881771
1732873993962623500,12.09262353515625,0.33475416898727417,-0.04398229718208313,0.1319468915462494
1732873993972611300,12.102611328125,0.30604347586631775,-0.13866640627384186,0.23518311977386475
1732873993982612500,12.112612548828125,0.2431243658065796,-0.3084869384765625,0.3072652220726013
1732873993992600300,12.122600341796876,0.1417207419872284,-0.5222898125648499,0.34513887763023376
1732873994002632000,12.1326318359375,0.04398229718208313,-0.778853178024292,0.35552358627319336
1732873994012589000,12.142589111328125,-0.11484266817569733,-1.0134254693984985,0.33108896017074585
1732873994022620700,12.15262060546875,-0.2028072625398636,-0.9676105380058289,0.30543261766433716
1732873994032608800,12.16260888671875,-0.21135938167572021,-0.7641924023628235,0.2932153046131134
1732873994042608400,12.1726083984375,-0.0959058403968811,-0.4691445231437683,0.35063666105270386
1732873994052597800,12.18259765625,0.10995574295520782,-0.1820378452539444,0.5119050741195679
1732873994062629400,12.19262939453125,0.29016098380088806,0.03726277872920036,0.7440338730812073
1732873994072617500,12.202617431640626,0.39645153284072876,0.16920967400074005,0.9908234477043152
1732873994082617900,12.212617919921875,0.45326200127601624,0.1612684279680252,1.1337659358978271
1732873994092606200,12.222606201171875,0.4300491213798523,0.14905111491680145,0.9896016716957092
1732873994102639600,12.2326396484375,0.3591887652873993,0.1459967941045761,0.6640105247497559
1732873994112595200,12.24259521484375,0.2675589919090271,0.11789698898792267,0.20830504596233368
1732873994122626300,12.252626220703124,0.17837265133857727,0.0757472887635231,-0.2877175211906433
1732873994132614700,12.26261474609375,0.12339477986097336,0.0507018156349659,-0.7232644557952881
1732873994142615800,12.27261572265625,0.11667526513338089,0.03726277872920036,-0.9944885969161987
1732873994152604000,12.28260400390625,0.15943582355976105,0.03176499158143997,-1.0207557678222656
1732873994162635500,12.292635498046875,0.20402899384498596,0.03848451003432274,-0.8570439219474792
1732873994172593000,12.302593017578126,0.2535090744495392,0.06536258012056351,-0.6377432942390442
1732873994182624500,12.31262451171875,0.29504790902137756,0.1014036312699318,-0.423329621553421
1732873994192612400,12.3226123046875,0.30482175946235657,0.12461651116609573,-0.2535090744495392
1732873994202613800,12.33261376953125,0.2981022298336029,0.1472185254096985,-0.13316862285137177
1732873994212601300,12.342601318359375,0.2816088795661926,0.19303341209888458,-0.06230825558304787
1732873994222633200,12.35263330078125,0.27061331272125244,0.2632829248905182,-0.025045474991202354
1732873994232590300,12.36259033203125,0.23029619455337524,0.3488040566444397,-0.005497787147760391
1732873994242621400,12.372621337890624,0.19120082259178162,0.35735616087913513,-0.010995574295520782
1732873994252610000,12.382610107421876,0.13805554807186127,0.3274237811565399,-0.028099801391363144
1732873994262610400,12.3926103515625,0.07941248267889023,0.26511552929878235,-0.056810468435287476
1732873994272599000,12.40259912109375,0.039706241339445114,0.18020524084568024,-0.09040805697441101
1732873994282630000,12.4126298828125,0.02871066704392433,0.10201449692249298,-0.12461651116609573
1732873994292588000,12.422588134765626,0.04153883829712868,0.04337143152952194,-0.15882496535778046
1732873994302619000,12.432618896484374,0.09834930300712585,0.03848451003432274,-0.2217440903186798
1732873994312607500,12.442607421875,0.1417207419872284,0.04153883829712868,-0.23518311977386475
1732873994322638300,12.452638427734374,0.17348572611808777,0.06902777403593063,-0.2217440903186798
