time,seconds_elapsed,z,y,x
1732873982082567000,0.21256689453125,8.56884765625,2.5258827209472656,-0.1843535304069519
1732873982092576500,0.222576416015625,8.69095230102539,2.564189910888672,-0.45010992884635925
1732873982102586400,0.23258642578125,8.777143478393555,2.4181437492370605,-0.48602294921875
1732873982112565800,0.242565673828125,9.095572471618652,2.250549554824829,-0.4429273009300232
1732873982122575400,0.252575439453125,9.330204010009766,2.0159177780151367,-0.40940847992897034
1732873982132585200,0.262585205078125,9.600749015808105,1.8986018896102905,-0.3495534360408783
1732873982142564400,0.272564453125,9.734824180603027,1.8076223134994507,-0.2537853717803955
1732873982152574200,0.28257421875,9.81143856048584,1.7477672100067139,-0.1628057211637497
1732873982162584000,0.292583984375,9.75397777557373,1.6663644313812256,-0.043095629662275314
1732873982172563200,0.302563232421875,9.749189376831055,1.5945383310317993,0.05506663769483566
1732873982182573000,0.312572998046875,9.854534149169922,1.6328455209732056,0.014365210197865963
1732873982192582700,0.322582763671875,9.880870819091797,1.7860745191574097,-0.18914192914962769
1732873982202562000,0.33256201171875,9.947908401489258,1.889025092124939,-0.47165772318840027
1732873982212571600,0.342571533203125,10.105925559997559,1.8842366933822632,-0.5027823448181152
1732873982222581500,0.35258154296875,10.259154319763184,1.7884687185287476,-0.3974374830722809
1732873982232561000,0.362560791015625,10.307038307189941,1.7094600200653076,-0.2968810200691223
1732873982242570500,0.372570556640625,10.26394271850586,1.6855180263519287,-0.24660277366638184
1732873982252580400,0.382580322265625,10.086771965026855,1.6615760326385498,-0.2082955539226532
1732873982262559700,0.392559814453125,9.921571731567383,1.6903064250946045,-0.17477671802043915
1732873982272569600,0.402569580078125,9.84495735168457,1.6974890232086182,-0.19153612852096558
1732873982282579200,0.4125791015625,9.81143856048584,1.7310078144073486,-0.1604115068912506
1732873982292558300,0.422558349609375,9.797073364257812,1.6855180263519287,-0.16519992053508759
1732873982302568000,0.43256787109375,9.770736694335938,1.7381904125213623,-0.12210428714752197
1732873982312577800,0.442577880859375,9.622296333312988,1.7860745191574097,-0.11971008777618408
1732873982322587600,0.452587646484375,9.459490776062012,1.8267759084701538,-0.07661445438861847
1732873982332566800,0.46256689453125,9.370905876159668,1.8100165128707886,-0.040701430290937424
1732873982342576600,0.47257666015625,9.38048267364502,1.7764976024627686,-0.07900865375995636
1732873982352586500,0.48258642578125,9.478644371032715,1.8124107122421265,-0.08619125932455063
1732873982362565600,0.492565673828125,9.591172218322754,1.802833914756775,-0.08619125932455063
1732873982372575500,0.502575439453125,9.615114212036133,1.7980455160140991,-0.07422025501728058
1732873982382585300,0.51258544921875,9.59596061706543,1.778891921043396,-0.05027823522686958
1732873982392564500,0.522564453125,9.600749015808105,1.7836803197860718,-0.021547814831137657
1732873982402574000,0.532573974609375,9.603142738342285,1.7812861204147339,-0.043095629662275314
1732873982412584000,0.542583984375,9.639056205749512,1.7812861204147339,-0.1173158809542656
1732873982422563000,0.55256298828125,9.706093788146973,1.7741034030914307,-0.15083470940589905
1732873982432573000,0.562572998046875,9.734824180603027,1.7621324062347412,-0.16759411990642548
1732873982442582800,0.572582763671875,9.75637149810791,1.7525556087493896,-0.12210428714752197
1732873982452562200,0.582562255859375,9.68933391571045,1.7597382068634033,-0.12689268589019775
1732873982462571800,0.59257177734375,9.639056205749512,1.7812861204147339,-0.09576806426048279
1732873982472581600,0.60258154296875,9.615114212036133,1.7501614093780518,-0.019153613597154617
1732873982482560800,0.612560791015625,9.612719535827637,1.7286136150360107,0.033518824726343155
1732873982492570400,0.6225703125,9.63187313079834,1.7836803197860718,0.038307227194309235
1732873982502580200,0.632580322265625,9.679757118225098,1.7908629179000854,0.05027823522686958
1732873982512559600,0.6425595703125,9.742006301879883,1.8100165128707886,0
1732873982522569200,0.6525693359375,9.799467086791992,1.821987509727478,-0.014365210197865963
1732873982532579000,0.6625791015625,9.804255485534668,1.867477297782898,-0.08379705995321274
1732873982542558500,0.672558349609375,9.725247383117676,1.9153614044189453,-0.090979665517807
1732873982552568000,0.682568115234375,9.624691009521484,1.9033904075622559,-0.090979665517807
1732873982562577700,0.69257763671875,9.581595420837402,1.922544002532959,-0.06464344263076782
1732873982572587500,0.70258740234375,9.545681953430176,1.941697597503662,-0.06224924325942993
1732873982582567000,0.71256689453125,9.512163162231445,1.9321208000183105,-0.031124621629714966
1732873982592576500,0.722576416015625,9.485827445983887,1.9153614044189453,-0.05267243832349777
1732873982602586400,0.73258642578125,9.459490776062012,1.889025092124939,-0.07900865375995636
1732873982612565800,0.742565673828125,9.488221168518066,1.8914192914962769,-0.10295066982507706
1732873982622575400,0.752575439453125,9.586383819580078,1.8770540952682495,-0.05506663769483566
1732873982632585200,0.762585205078125,9.660603523254395,1.8626888990402222,-0.040701430290937424
1732873982642564600,0.772564697265625,9.713275909423828,1.8507179021835327,-0.07661445438861847
1732873982652574200,0.78257421875,9.804255485534668,1.8267759084701538,-0.07422025501728058
1732873982662584000,0.792583984375,9.904812812805176,1.8531121015548706,-0.08379705995321274
1732873982672563200,0.802563232421875,9.864110946655273,1.8842366933822632,-0.1388636976480484
1732873982682573000,0.812572998046875,9.742006301879883,1.944091796875,-0.1412578970193863
1732873982692582700,0.822582763671875,9.512163162231445,1.9512743949890137,-0.2082955539226532
1732873982702561800,0.832561767578125,9.246406555175781,1.9560627937316895,-0.38067805767059326
1732873982712571600,0.842571533203125,9.078812599182129,1.8962076902389526,-0.5003881454467773
1732873982722581500,0.85258154296875,9.064447402954102,1.8339585065841675,-0.689530074596405
1732873982732560600,0.862560546875,9.10993766784668,1.7741034030914307,-0.8858546018600464
1732873982742570500,0.872570556640625,9.129091262817383,1.7286136150360107,-1.0127472877502441
1732873982752580400,0.882580322265625,9.153033256530762,1.721431016921997,-1.1755530834197998
1732873982762559700,0.892559814453125,9.119514465332031,1.7357962131500244,-1.3239935636520386
1732873982772569600,0.902569580078125,9.126696586608887,1.7549498081207275,-1.4221558570861816
1732873982782579200,0.9125791015625,9.040505409240723,1.7717092037200928,-1.2210428714752197
1732873982792558300,0.922558349609375,8.868123054504395,1.845929503440857,-0.9911994934082031
1732873982802568000,0.93256787109375,8.760383605957031,1.968033790588379,-0.7182605266571045
1732873982812577800,0.942577880859375,8.820239067077637,2.140416383743286,-0.33279404044151306
1732873982822587600,0.952587646484375,8.87051773071289,2.43011474609375,-0.08858546614646912
1732873982832566800,0.96256689453125,8.949525833129883,2.6240451335906982,0.10295066982507706
1732873982842576600,0.97257666015625,9.07641887664795,2.8203697204589844,0.27054479718208313
1732873982852586500,0.98258642578125,9.284713745117188,2.87064790725708,0.4836287498474121
1732873982862565600,0.992565673828125,9.564835548400879,2.832340717315674,0.8044517636299133
1732873982872575500,1.002575439453125,9.892841339111328,2.6455929279327393,1.1252747774124146
1732873982882585300,1.01258544921875,10.488997459411621,2.2697031497955322,1.5921441316604614
1732873982892564500,1.022564453125,11.075576782226562,1.8794482946395874,1.8698714971542358
1732873982902574000,1.032573974609375,11.628637313842773,1.5610195398330688,2.0661959648132324
1732873982912584000,1.042583984375,11.954249382019043,1.403002142906189,2.22660756111145
1732873982922563000,1.05256298828125,11.959037780761719,1.3646949529647827,2.2601263523101807
1732873982932573000,1.062572998046875,11.616666793823242,1.4508862495422363,2.279279947280884
1732873982942582800,1.072582763671875,11.037269592285156,1.6089035272598267,2.3798365592956543
1732873982952562200,1.082562255859375,10.120290756225586,1.6879122257232666,2.5665841102600098
1732873982962571800,1.09257177734375,9.260771751403809,1.7884687185287476,2.7437551021575928
1732873982972581600,1.10258154296875,8.453926086425781,1.987187385559082,2.832340717315674
1732873982982560800,1.112560791015625,8.054094314575195,2.1092917919158936,2.892195701599121
1732873982992570400,1.1225703125,7.6997528076171875,1.9776105880737305,2.9903578758239746
1732873983002580200,1.132580322265625,7.553706169128418,1.7286136150360107,3.0142998695373535
1732873983012559600,1.1425595703125,7.9415669441223145,1.2856862545013428,3.0526070594787598
1732873983022569200,1.1525693359375,8.5903959274292,0.6991068720817566,2.9664158821105957
1732873983032579000,1.1625791015625,9.763554573059082,0.035913024097681046,2.6144683361053467
1732873983042558500,1.172558349609375,11.065999984741211,-0.608127236366272,1.965639591217041
1732873983052568000,1.182568115234375,12.057199478149414,-1.0103530883789062,1.5083470344543457
1732873983062577700,1.19257763671875,12.69405746459961,-1.0821791887283325,0.7948749661445618
1732873983072587500,1.20258740234375,12.593501091003418,-0.8020575642585754,0.17477671802043915
1732873983082567000,1.21256689453125,11.997344970703125,-0.15801730751991272,-0.1604115068912506
1732873983092576500,1.222576416015625,11.161767959594727,0.3208230137825012,-0.19393034279346466
1732873983102586400,1.23258642578125,10.160991668701172,0.7350199222564697,-0.009576806798577309
1732873983112565800,1.242565673828125,9.241618156433105,1.0247182846069336,0.3711012601852417
1732873983122575400,1.252575439453125,8.525752067565918,1.2210428714752197,0.7661445140838623
1732873983132585200,1.262585205078125,8.224082946777344,1.3024457693099976,1.0007762908935547
1732873983142564400,1.272564453125,8.236053466796875,1.400607943534851,1.0319008827209473
1732873983152574200,1.28257421875,8.65743350982666,1.3886369466781616,1.015141487121582
1732873983162584000,1.292583984375,9.327810287475586,1.3215993642807007,1.0821791887283325
1732873983172563200,1.302563232421875,10.17296314239502,1.1779472827911377,1.2282254695892334
1732873983182573000,1.312572998046875,10.924742698669434,1.0678139925003052,1.3431471586227417
1732873983192582700,1.322582763671875,11.492168426513672,0.912190854549408,1.5059528350830078
1732873983202561800,1.332561767578125,11.597513198852539,0.7038952708244324,1.6496049165725708
1732873983212571600,1.342571533203125,11.384428977966309,0.5386953949928284,1.843535304069519
1732873983222581500,1.35258154296875,11.003750801086426,0.40701428055763245,1.8842366933822632
1732873983232561000,1.362560791015625,10.505757331848145,0.3208230137825012,1.8291701078414917
1732873983242570500,1.372570556640625,10.098742485046387,0.3519476354122162,1.6280571222305298
1732873983252164000,1.3821640625,9.737217903137207,0.3447650372982025,1.4460978507995605
1732873983262143500,1.3921435546875,9.311050415039062,0.35434186458587646,1.194706678390503
1732873983272153300,1.4021533203125,9.114726066589355,0.38307225704193115,1.0247182846069336
1732873983282163000,1.412162841796875,8.93037223815918,0.4141969084739685,0.7829039692878723
1732873983292142000,1.42214208984375,8.995016098022461,0.38546648621559143,0.608127236366272
1732873983302151700,1.432151611328125,9.23443603515625,0.33518823981285095,0.5363011956214905
1732873983312161500,1.44216162109375,9.591172218322754,0.3687070608139038,0.40462008118629456
1732873983322171400,1.45217138671875,10.036493301391602,0.3998316824436188,0.3902548849582672
1732873983332150500,1.462150634765625,10.254365921020508,0.45489832758903503,0.3711012601852417
1732873983342160400,1.472160400390625,10.302249908447266,0.5363011956214905,0.304063618183136
1732873983352170200,1.482170166015625,10.213664054870605,0.6105214357376099,0.2298433631658554
1732873983362149400,1.4921494140625,9.99100399017334,0.7374141216278076,0.17238251864910126
1732873983372159200,1.5021591796875,9.710882186889648,0.9002198576927185,0.014365210197865963
1732873983382169000,1.512169189453125,9.493009567260742,0.9672574996948242,-0.11013327538967133
1732873983392148200,1.522148193359375,9.361329078674316,0.950498104095459,-0.23942017555236816
1732873983402157800,1.53215771484375,9.385271072387695,1.0319008827209473,-0.3711012601852417
1732873983412167700,1.542167724609375,9.296685218811035,1.0582371950149536,-0.5650315880775452
1732873983422146800,1.552146728515625,9.217676162719727,1.0534487962722778,-0.8331822156906128
1732873983432156700,1.56215673828125,9.153033256530762,1.0797849893569946,-1.0295066833496094
1732873983442166500,1.57216650390625,9.119514465332031,1.0582371950149536,-1.0223240852355957
1732873983452146000,1.58214599609375,9.006986618041992,1.0558429956436157,-1.05105459690094
1732873983462155500,1.592155517578125,8.87051773071289,1.048660397529602,-1.1516109704971313
1732873983472165000,1.6021650390625,8.860940933227539,0.8547300100326538,-0.9768342971801758
1732873983482144500,1.61214453125,9.294290542602539,1.05105459690094,-1.0654197931289673
1732873983492154000,1.622154052734375,9.495404243469238,1.0127472877502441,-1.0606313943862915
1732873983502164000,1.6321640625,9.581595420837402,1.1228805780410767,-0.950498104095459
1732873983512143400,1.642143310546875,9.634267807006836,1.1085153818130493,-0.9409212470054626
1732873983522153000,1.652153076171875,9.744400978088379,1.1683704853057861,-1.0558429956436157
1732873983532162800,1.662162841796875,9.871294021606445,1.2832920551300049,-1.2401964664459229
1732873983542142200,1.67214208984375,10.199298858642578,1.5945383310317993,-1.414973258972168
1732873983552151800,1.68215185546875,10.237606048583984,1.455674648284912,-1.403002142906189
1732873983562161700,1.69216162109375,10.160991668701172,1.5394717454910278,-1.436521053314209
1732873983572171300,1.702171142578125,10.02452278137207,1.5418659448623657,-1.5394717454910278
1732873983582150700,1.712150634765625,9.888052940368652,1.5825673341751099,-1.525106430053711
1732873983592160500,1.722160400390625,9.852140426635742,1.5610195398330688,-1.501164436340332
1732873983602170000,1.732170166015625,9.880870819091797,1.5897499322891235,-1.5059528350830078
1732873983612149200,1.742149169921875,9.890447616577148,1.6831238269805908,-1.625662922859192
1732873983622159000,1.7521591796875,9.564835548400879,1.824381709098816,-1.5753847360610962
1732873983632169000,1.7621689453125,9.02135181427002,1.7334020137786865,-1.4053963422775269
1732873983642148400,1.7721484375,9.172186851501465,1.8507179021835327,-1.745373010635376
1732873983652158000,1.782157958984375,9.75397777557373,2.0015525817871094,-2.233790159225464
1732873983662167800,1.792167724609375,10.105925559997559,2.0614075660705566,-2.3918075561523438
1732873983672147000,1.80214697265625,10.137049674987793,2.121262788772583,-2.5091233253479004
1732873983682156800,1.81215673828125,9.943120002746582,2.145204782485962,-2.5330653190612793
1732873983692166400,1.82216650390625,9.63187313079834,2.2888567447662354,-2.604891538619995
1732873983702145800,1.832145751953125,9.394847869873047,2.3798365592956543,-2.585737943649292
1732873983712155400,1.8421552734375,9.275136947631836,2.425326347351074,-2.4468741416931152
1732873983722165200,1.852165283203125,9.165003776550293,2.4420857429504395,-2.3582887649536133
1732873983732144400,1.862144287109375,9.141061782836914,2.4684219360351562,-2.2697031497955322
1732873983742154200,1.872154296875,9.205705642700195,2.4636335372924805,-2.3367409706115723
1732873983752164000,1.8821640625,9.301473617553711,2.473210334777832,-2.4684219360351562
1732873983762143500,1.8921435546875,9.409213066101074,2.557007312774658,-2.5785553455352783
1732873983772153300,1.9021533203125,9.461885452270508,2.5905263423919678,-2.609679937362671
1732873983782163000,1.912162841796875,9.593565940856934,2.6001031398773193,-2.5713725090026855
1732873983792142000,1.92214208984375,9.694122314453125,2.540247917175293,-2.449268341064453
1732873983802151700,1.932151611328125,9.761159896850586,2.4372973442077637,-2.188300371170044
1732873983812161500,1.94216162109375,9.883264541625977,2.2816741466522217,-1.8962076902389526
1732873983822171400,1.95217138671875,10.017339706420898,2.1763293743133545,-1.5945383310317993
1732873983832150500,1.962150634765625,10.182539939880371,2.0805611610412598,-1.2258312702178955
1732873983842160400,1.972160400390625,10.192116737365723,2.0374655723571777,-0.950498104095459
1732873983852170200,1.982170166015625,10.091560363769531,2.056619167327881,-0.7613561153411865
1732873983862149400,1.9921494140625,9.916783332824707,2.1475989818573,-0.5985504388809204
1732873983872159200,2.0021591796875,9.552865028381348,2.209848165512085,-0.629675030708313
1732873983882169000,2.012169189453125,9.35654067993164,2.3127987384796143,-0.1628057211637497
1732873983892148200,2.022148193359375,9.148244857788086,2.274491548538208,0.043095629662275314
1732873983902157800,2.03215771484375,8.892065048217773,2.2625205516815186,0.23942017555236816
1732873983912167700,2.042167724609375,8.769960403442383,2.319981336593628,0.33997663855552673
1732873983922146800,2.052146728515625,8.722076416015625,2.3558945655822754,0.3064578175544739
1732873983932156700,2.06215673828125,8.848969459533691,2.389413356781006,0.22744916379451752
1732873983942166500,2.07216650390625,9.107542991638184,2.3965959548950195,-0.026336219161748886
1732873983952146000,2.08214599609375,9.29189682006836,2.298433542251587,-0.2777273952960968
1732873983962155500,2.092155517578125,9.567230224609375,2.0805611610412598,-0.4213795065879822
1732873983972165400,2.102165283203125,9.849745750427246,1.7046716213226318,-0.3423708379268646
1732873983982144500,2.11214453125,10.27591323852539,1.3000515699386597,-0.12449848651885986
1732873983992154000,2.122154052734375,10.690110206604004,1.0007762908935547,-0.15322890877723694
1732873984002164000,2.1321640625,11.137825965881348,0.768538773059845,-0.17717093229293823
1732873984012143400,2.142143310546875,11.204863548278809,0.8212111592292786,-0.30885201692581177
1732873984022153000,2.152153076171875,11.137825965881348,1.4652514457702637,-0.6200982332229614
1732873984032162800,2.162162841796875,10.211270332336426,1.5322890281677246,-0.8212111592292786
1732873984042142200,2.17214208984375,9.612719535827637,2.0159177780151367,-0.9026140570640564
1732873984052151800,2.18215185546875,8.542511940002441,2.5258827209472656,-0.9768342971801758
1732873984062161700,2.19216162109375,7.577648162841797,2.8203697204589844,-0.7134721279144287
1732873984072171300,2.202171142578125,6.6630635261535645,2.918531894683838,-0.22744916379451752
1732873984082150700,2.212150634765625,6.390124320983887,2.873042106628418,0.26096799969673157
1732873984092160500,2.222160400390625,6.751648902893066,2.7485435009002686,0.6631938815116882
1732873984102170000,2.232170166015625,7.558494567871094,2.4468741416931152,1.113303780555725
1732873984112149200,2.242149169921875,8.652645111083984,1.944091796875,0.8403648138046265
1732873984122159000,2.2521591796875,9.66299819946289,1.778891921043396,0.2322375625371933
1732873984132169000,2.2621689453125,10.663774490356445,1.4389152526855469,-0.05267243832349777
1732873984142148000,2.272148193359375,11.410765647888184,1.4939818382263184,-0.48602294921875
1732873984152158000,2.282157958984375,11.614272117614746,1.5849615335464478,-0.9457096457481384
1732873984162167800,2.292167724609375,10.860098838806152,1.7190368175506592,-1.192312479019165
1732873984172147000,2.30214697265625,10.165780067443848,1.98958158493042,-1.1516109704971313
1732873984182156800,2.31215673828125,9.478644371032715,2.2146365642547607,-0.9074024558067322
1732873984192166400,2.32216650390625,8.882488250732422,2.4420857429504395,-0.6823474764823914
1732873984202145800,2.332145751953125,8.078036308288574,2.5306711196899414,-0.44771572947502136
1732873984212155400,2.3421552734375,7.510610580444336,2.7269957065582275,-0.5506663918495178
1732873984222165200,2.352165283203125,7.247248649597168,2.7533318996429443,-0.8738836050033569
1732873984232144600,2.36214453125,7.532158374786377,2.82515811920166,-1.2186486721038818
1732873984242154200,2.372154296875,8.149862289428711,2.832340717315674,-1.702277421951294
1732873984252164000,2.3821640625,8.841787338256836,2.8227639198303223,-2.073378562927246
1732873984262143500,2.3921435546875,9.442731857299805,2.6886885166168213,-2.233790159225464
1732873984272153000,2.402153076171875,9.718064308166504,2.5258827209472656,-2.2002713680267334
1732873984282163000,2.412162841796875,9.528923034667969,2.2242133617401123,-2.0614075660705566
1732873984292142000,2.42214208984375,9.44991397857666,2.073378562927246,-1.7310078144073486
1732873984302151700,2.432151611328125,9.332598686218262,1.9081788063049316,-1.5418659448623657
1732873984312161500,2.44216162109375,9.363722801208496,1.7836803197860718,-1.3239935636520386
1732873984322171400,2.45217138671875,9.394847869873047,1.7262194156646729,-1.1971008777618408
1732873984332150500,2.462150634765625,9.526528358459473,1.6831238269805908,-1.0965443849563599
1732873984342160400,2.472160400390625,9.780313491821289,1.7932571172714233,-1.0749965906143188
1732873984352170200,2.482170166015625,10.079588890075684,2.0207061767578125,-0.9959878921508789
1732873984362149400,2.4921494140625,10.228029251098633,2.315192937850952,-0.9696516990661621
1732873984372159200,2.5021591796875,10.067618370056152,2.63362193107605,-0.7924807667732239
1732873984382169000,2.512169189453125,9.785101890563965,2.7964274883270264,-0.5482721924781799
1732873984392148200,2.522148193359375,9.727641105651855,2.9089550971984863,-0.4381389021873474
1732873984402157800,2.53215771484375,9.780313491821289,2.942473888397217,-0.47165772318840027
1732873984412167700,2.542167724609375,10.235212326049805,2.762908697128296,-0.730231523513794
1732873984422146800,2.552146728515625,11.219228744506836,2.4851813316345215,-1.1971008777618408
1732873984432156700,2.56215673828125,12.406753540039062,2.3319525718688965,-1.7812861204147339
1732873984442166500,2.57216650390625,13.781024932861328,2.0422539710998535,-2.1930887699127197
1732873984452146000,2.58214599609375,14.784195899963379,1.9536685943603516,-2.051830768585205
1732873984462155500,2.592155517578125,15.116989135742188,1.845929503440857,-1.8986018896102905
1732873984472165400,2.602165283203125,14.27423095703125,1.6615760326385498,-1.434126853942871
1732873984482144500,2.61214453125,13.204022407531738,1.9345149993896484,-1.1851298809051514
1732873984492154000,2.622154052734375,11.829751014709473,2.298433542251587,-0.6368576288223267
1732873984502164000,2.6321640625,11.015722274780273,2.4205379486083984,0.0454898327589035
1732873984512143400,2.642143310546875,10.271124839782715,2.583343744277954,0.5889736413955688
1732873984522153000,2.652153076171875,9.921571731567383,2.719813108444214,0.8212111592292786
1732873984532162800,2.662162841796875,9.636661529541016,2.9089550971984863,0.9911994934082031
1732873984542142200,2.67214208984375,9.435548782348633,2.980781078338623,1.0462661981582642
1732873984552151800,2.68215185546875,9.239224433898926,2.8179752826690674,0.7733271718025208
1732873984562161700,2.69216162109375,9.126696586608887,2.319981336593628,0.5746083855628967
1732873984572171300,2.702171142578125,9.428366661071777,1.522712230682373,0.5985504388809204
1732873984582150700,2.712150634765625,10.412383079528809,0.586579442024231,0.28969839215278625
1732873984592160500,2.722160400390625,11.741165161132812,-0.011971008032560349,-0.033518824726343155
1732873984602170000,2.732170166015625,13.28063678741455,-0.42856210470199585,-0.6320692300796509
1732873984612149500,2.7421494140625,14.312538146972656,-0.7015010714530945,-1.0223240852355957
1732873984622159000,2.7521591796875,14.657302856445312,-0.9050082564353943,-1.1563993692398071
1732873984632169000,2.7621689453125,14.044386863708496,-0.8810662031173706,-0.8571242094039917
1732873984642148000,2.772148193359375,12.310985565185547,-0.47644615173339844,0.10295066982507706
1732873984652158000,2.782157958984375,10.17296314239502,0.07422025501728058,0.9576807022094727
1732873984662167800,2.792167724609375,7.982268333435059,0.5602431893348694,1.4484920501708984
1732873984672147200,2.802147216796875,6.540958881378174,0.8882488012313843,1.778891921043396
1732873984682156800,2.81215673828125,5.552153587341309,1.0989385843276978,1.8339585065841675
1732873984692166400,2.82216650390625,5.413290023803711,1.0223240852355957,1.7501614093780518
1732873984702145800,2.832145751953125,5.944802761077881,0.7924807667732239,1.4293384552001953
1732873984712155400,2.8421552734375,7.161057472229004,0.5099649429321289,0.9888052940368652
1732873984722165200,2.852165283203125,8.20732307434082,0.31124621629714966,0.6799532771110535
1732873984732144400,2.862144287109375,9.20091724395752,0.181959331035614,0.3878606855869293
1732873984742154200,2.872154296875,9.624691009521484,0.14844051003456116,0.20350714027881622
1732873984752164000,2.8821640625,9.509769439697266,0.22505496442317963,0.07182604819536209
1732873984762143500,2.8921435546875,8.98543930053711,0.3878606855869293,0.0933738648891449
1732873984772153300,2.9021533203125,8.169015884399414,0.5913678407669067,0.21787235140800476
1732873984782163000,2.912162841796875,7.503427982330322,0.7541735172271729,0.3471592366695404
1732873984792141800,2.922141845703125,6.9910688400268555,1.015141487121582,0.3663128614425659
1732873984802151700,2.932151611328125,6.8043212890625,1.3096283674240112,0.23702596127986908
1732873984812161500,2.94216162109375,6.801927089691162,1.4676456451416016,0.06224924325942993
1732873984822171400,2.95217138671875,7.144298076629639,1.623268723487854,-0.18914192914962769
1732873984832150500,2.962150634765625,7.529764175415039,1.7405846118927002,-0.3687070608139038
1732873984842160400,2.972160400390625,7.908048152923584,1.8124107122421265,-0.47405192255973816
1732873984852170200,2.982170166015625,8.087613105773926,1.8507179021835327,-0.40940847992897034
1732873984862149400,2.9921494140625,8.152256965637207,1.8339585065841675,-0.2753331959247589
1732873984872159200,3.0021591796875,8.159439086914062,1.8507179021835327,-0.10773907601833344
1732873984882169000,3.012169189453125,8.176198959350586,1.8746598958969116,-0.06224924325942993
1732873984892148200,3.022148193359375,8.209717750549316,1.9369091987609863,-0.10295066982507706
1732873984902157800,3.03215771484375,8.346187591552734,1.968033790588379,-0.19393034279346466
1732873984912167700,3.042167724609375,8.664615631103516,1.98958158493042,-0.26815059781074524
1732873984922146800,3.052146728515625,9.078812599182129,1.9752163887023926,-0.3280056416988373
1732873984932156700,3.06215673828125,9.603142738342285,1.9273324012756348,-0.35913026332855225
1732873984942166500,3.07216650390625,10.034099578857422,1.8507179021835327,-0.3232172429561615
1732873984952146000,3.08214599609375,10.20887565612793,1.7908629179000854,-0.35673606395721436
1732873984962155500,3.092155517578125,10.283096313476562,1.6855180263519287,-0.23702596127986908
1732873984972165400,3.102165283203125,10.307038307189941,1.6112977266311646,0.021547814831137657
1732873984982144500,3.11214453125,10.32858657836914,1.5514427423477173,0.22744916379451752
1732873984992154000,3.122154052734375,10.27591323852539,1.556231141090393,0.36152446269989014
1732873985002164000,3.1321640625,10.192116737365723,1.5705963373184204,0.3495534360408783
1732873985012143400,3.142143310546875,10.036493301391602,1.558625340461731,0.33997663855552673
1732873985022153000,3.152153076171875,9.938331604003906,1.5825673341751099,0.38307225704193115
1732873985032162800,3.162162841796875,10.065223693847656,1.680729627609253,0.3734954595565796
1732873985042142200,3.17214208984375,10.340557098388672,1.6974890232086182,0.16519992053508759
1732873985052151800,3.18215185546875,10.860098838806152,1.6184803247451782,-0.07422025501728058
1732873985062161700,3.19216162109375,11.717223167419434,1.5275006294250488,-0.038307227194309235
1732873985072171300,3.202171142578125,12.466608047485352,1.50355863571167,-0.06464344263076782
1732873985082150700,3.212150634765625,12.988544464111328,1.5083470344543457,-0.2106897532939911
1732873985092160500,3.222160400390625,13.081917762756348,1.4628572463989258,-0.40222588181495667
1732873985102170000,3.232170166015625,12.871228218078613,1.5107412338256836,-0.47884035110473633
1732873985112149500,3.2421494140625,12.67011547088623,1.4197616577148438,-0.5650315880775452
1732873985122159000,3.2521591796875,12.717999458312988,1.381454348564148,-0.4884171485900879
1732873985132169000,3.2621689453125,12.90953540802002,1.6759412288665771,-0.5674257874488831
1732873985142148400,3.2721484375,12.816162109375,1.9105730056762695,-0.706289529800415
1732873985152158000,3.282157958984375,12.435483932495117,2.0470423698425293,-1.1013327836990356
1732873985162167800,3.292167724609375,12.174515724182129,1.9943699836730957,-0.6703764796257019
1732873985172147200,3.302147216796875,11.982979774475098,1.3407529592514038,-0.6799532771110535
1732873985182156800,3.31215673828125,12.066776275634766,0.3758896589279175,-0.828393816947937
1732873985192166400,3.32216650390625,12.449849128723145,-0.2082955539226532,-1.1037269830703735
1732873985202145800,3.332145751953125,12.792220115661621,-0.29209262132644653,-1.580173134803772
1732873985212155400,3.3421552734375,12.710816383361816,-0.0454898327589035,-2.1978771686553955
1732873985222165200,3.352165283203125,12.203246116638184,0.26096799969673157,-2.5546131134033203
1732873985232144400,3.362144287109375,10.946290016174316,0.49320554733276367,-2.5761611461639404
1732873985242154200,3.372154296875,8.959102630615234,0.9002198576927185,-2.628833532333374
1732873985252164000,3.3821640625,7.024587631225586,1.0295066833496094,-2.5258827209472656
1732873985262143500,3.3921435546875,5.372588634490967,1.0678139925003052,-2.3295583724975586
1732873985272153300,3.4021533203125,4.307168960571289,1.1180921792984009,-2.2002713680267334
1732873985282163000,3.412162841796875,3.864241600036621,1.091755986213684,-2.1284453868865967
1732873985292141800,3.422141845703125,4.1180267333984375,1.0462661981582642,-2.1954829692840576
1732873985302151700,3.432151611328125,5.339069843292236,0.7589619159698486,-2.185906171798706
1732873985312161500,3.44216162109375,6.751648902893066,0.44532153010368347,-1.9177556037902832
1732873985322171400,3.45217138671875,8.056488990783691,0.22744916379451752,-1.7381904125213623
1732873985332150800,3.46215087890625,8.925583839416504,0.028730420395731926,-1.6400281190872192
1732873985342160400,3.472160400390625,9.50737476348877,-0.10055647045373917,-1.2665326595306396
1732873985352170200,3.482170166015625,9.53849983215332,-0.06703764945268631,-1.0414776802062988
1732873985362149400,3.4921494140625,9.315838813781738,0.09576806426048279,-0.8858546018600464
1732873985372159200,3.5021591796875,8.746018409729004,0.2753331959247589,-0.5961562395095825
1732873985382168800,3.5121689453125,8.176198959350586,0.524330198764801,-0.40222588181495667
1732873985392148200,3.522148193359375,7.625532627105713,0.7230489253997803,-0.2346317619085312
1732873985402157800,3.53215771484375,7.228095054626465,0.9457096457481384,-0.11252748221158981
1732873985412167700,3.542167724609375,7.038952827453613,1.2761094570159912,-0.15562310814857483
1732873985422146800,3.552146728515625,7.022193431854248,1.4963760375976562,-0.2298433631658554
1732873985432156700,3.56215673828125,7.33583402633667,1.6687586307525635,-0.3232172429561615
1732873985442166500,3.57216650390625,7.793126583099365,1.7860745191574097,-0.5530605912208557
1732873985452146000,3.58214599609375,8.456320762634277,1.802833914756775,-0.629675030708313
1732873985462155500,3.592155517578125,9.047688484191895,1.9297266006469727,-0.5817909836769104
1732873985472165400,3.602165283203125,9.524134635925293,1.8555063009262085,-0.7661445140838623
1732873985482144500,3.61214453125,10.194510459899902,1.6950948238372803,-1.0989385843276978
1732873985492154000,3.622154052734375,10.764330863952637,1.577778935432434,-1.170764684677124
1732873985502164000,3.6321640625,11.243170738220215,1.3670891523361206,-1.0893617868423462
1732873985512143400,3.642143310546875,11.453861236572266,1.314416766166687,-0.9864110946655273
1732873985522153000,3.652153076171875,11.453861236572266,1.1994950771331787,-0.7374141216278076
1732873985532162800,3.662162841796875,11.250353813171387,1.2473790645599365,-0.5913678407669067
1732873985542142200,3.67214208984375,11.039664268493652,1.5083470344543457,-0.4836287498474121
1732873985552151800,3.68215185546875,10.44350814819336,1.6496049165725708,-0.2513911724090576
1732873985562161700,3.69216162109375,9.825803756713867,1.8914192914962769,-0.18914192914962769
1732873985572171500,3.702171630859375,9.301473617553711,2.1068975925445557,-0.1149216815829277
1732873985582150700,3.712150634765625,8.777143478393555,2.0685901641845703,0.1628057211637497
1732873985592160500,3.722160400390625,8.705317497253418,1.9345149993896484,0.33997663855552673
1732873985602170000,3.732170166015625,9.014169692993164,2.011129379272461,-0.2298433631658554
1732873985612149200,3.742149169921875,9.974244117736816,1.946485996246338,-0.6871358752250671
1732873985622159000,3.7521591796875,11.08994197845459,1.4891934394836426,-0.7110779285430908
1732873985632169000,3.7621689453125,12.385205268859863,0.8810662031173706,-0.5219359993934631
1732873985642148400,3.7721484375,13.541604995727539,0.5339069962501526,-0.15322890877723694
1732873985652158000,3.782157958984375,14.451401710510254,0.5889736413955688,-0.06703764945268631
1732873985662167800,3.792167724609375,14.511256217956543,0.7661445140838623,-0.6320692300796509
1732873985672147000,3.80214697265625,13.91510009765625,1.0462661981582642,0.12210428714752197
1732873985682156800,3.81215673828125,12.768278121948242,0.6991068720817566,0.828393816947937
1732873985692166700,3.822166748046875,11.671732902526855,-0.043095629662275314,1.2832920551300049
1732873985702145800,3.832145751953125,11.140220642089844,-1.0007762908935547,1.1779472827911377
1732873985712155400,3.8421552734375,11.60948371887207,-1.4772224426269531,0.5339069962501526
1732873985722165200,3.852165283203125,12.528857231140137,-1.6903064250946045,-0.2968810200691223
1732873985732144600,3.86214453125,13.232752799987793,-1.7621324062347412,-0.6488286852836609
1732873985742154200,3.872154296875,13.103466033935547,-1.5083470344543457,-1.3215993642807007
1732873985752164000,3.8821640625,12.071564674377441,-1.280897855758667,-0.4644751250743866
1732873985762143500,3.8921435546875,10.261548042297363,-1.0127472877502441,0.9193734526634216
1732873985772153000,3.902153076171875,8.489839553833008,-0.7445967197418213,1.0271124839782715
1732873985782163000,3.912162841796875,6.703764915466309,0.2082955539226532,0.8451532125473022
1732873985792142000,3.92214208984375,5.322310447692871,0.5913678407669067,1.4173674583435059
1732873985802151700,3.932151611328125,4.630385875701904,0.8954314589500427,1.6831238269805908
1732873985812161500,3.94216162109375,4.51067590713501,1.0055646896362305,1.721431016921997
1732873985822171400,3.95217138671875,4.967968463897705,0.8810662031173706,1.6280571222305298
1732873985832150500,3.962150634765625,5.803544998168945,0.4620809257030487,0.8738836050033569
1732873985842160400,3.972160400390625,7.264008045196533,-0.011971008032560349,0.24181437492370605
1732873985852170200,3.982170166015625,8.884882926940918,-0.11013327538967133,-0.009576806798577309
1732873985862149400,3.9921494140625,9.605537414550781,-0.5123591423034668,-0.1867477297782898
1732873985872159200,4.0021591796875,10.067618370056152,-0.6751648783683777,-0.4644751250743866
1732873985882168800,4.0121689453125,10.072406768798828,-0.6416460275650024,-0.33758243918418884
1732873985892148200,4.022148193359375,9.615114212036133,-0.5027823448181152,-0.2801215946674347
1732873985902157800,4.03215771484375,8.853757858276367,-0.2059013396501541,-0.36152446269989014
1732873985912167700,4.042167724609375,8.24084186553955,0.12928688526153564,-0.1364694982767105
1732873985922146800,4.052146728515625,7.682993412017822,0.4405331015586853,-0.24899697303771973
1732873985932156700,4.06215673828125,7.608773231506348,0.8403648138046265,-0.3519476354122162
1732873985942166500,4.07216650390625,7.881711959838867,1.1899182796478271,-0.4884171485900879
1732873985952146000,4.08214599609375,8.128314971923828,1.4939818382263184,-0.7876923680305481
1732873985962155500,4.092155517578125,8.339004516601562,1.5921441316604614,-0.9696516990661621
1732873985972165000,4.1021650390625,8.513781547546387,1.599326729774475,-0.9169792532920837
1732873985982144500,4.11214453125,8.746018409729004,1.556231141090393,-0.8571242094039917
1732873985992154000,4.122154052734375,9.066842079162598,1.4844050407409668,-0.9816226959228516
1732873986002164000,4.1321640625,9.344569206237793,1.4724340438842773,-0.6177040338516235
1732873986012143400,4.142143310546875,9.461885452270508,1.259350061416626,-0.6009446382522583
1732873986022153200,4.1521533203125,9.696516990661621,1.1228805780410767,-0.4596867263317108
1732873986032162800,4.162162841796875,10.012551307678223,0.9552865028381348,-0.5291185975074768
1732873986042142200,4.17214208984375,10.251971244812012,0.7876923680305481,-0.45489832758903503
1732873986052151800,4.18215185546875,10.486603736877441,0.811634361743927,-0.395043283700943
1732873986062161700,4.19216162109375,10.682928085327148,0.8690952062606812,-0.2753331959247589
1732873986072171500,4.202171630859375,10.78587818145752,1.015141487121582,-0.2801215946674347
1732873986082150700,4.212150634765625,10.76193618774414,0.9744400978088379,0.15801730751991272
1732873986092160500,4.222160400390625,10.742782592773438,0.8643068075180054,0.9720458984375
1732873986102170000,4.232170166015625,10.500968933105469,1.0199298858642578,0.871489405632019
1732873986112149500,4.2421494140625,10.271124839782715,1.194706678390503,0.6536170840263367
1732873986122159000,4.2521591796875,9.986215591430664,1.3766659498214722,0.3687070608139038
1732873986132169000,4.2621689453125,10.098742485046387,1.216254472732544,-0.5530605912208557
1732873986142148000,4.272148193359375,10.793061256408691,1.482010841369629,0.12689268589019775
1732873986152158000,4.282157958984375,11.183316230773926,1.2976573705673218,-0.07182604819536209
1732873986162167800,4.292167724609375,11.81299114227295,1.1540051698684692,-0.5674257874488831
1732873986172147000,4.30214697265625,12.607866287231445,1.1516109704971313,-0.706289529800415
1732873986182156800,4.31215673828125,13.472172737121582,0.9840168952941895,-1.0438719987869263
1732873986192166400,4.32216650390625,14.041993141174316,1.1779472827911377,-1.1635819673538208
1732873986202145800,4.332145751953125,13.84566879272461,1.4772224426269531,-1.414973258972168
1732873986212155400,4.3421552734375,12.952630996704102,1.3694833517074585,-1.4221558570861816
1732873986222165200,4.352165283203125,11.985373497009277,0.608127236366272,-0.8571242094039917
1732873986232144400,4.362144287109375,11.595118522644043,-0.6033388376235962,-0.19871874153614044
1732873986242154200,4.372154296875,12.284648895263672,-1.534683346748352,-0.30885201692581177
1732873986252164000,4.3821640625,13.685256958007812,-1.680729627609253,-1.479616641998291
1732873986262143500,4.3921435546875,14.899117469787598,-2.0685901641845703,-1.5466543436050415
1732873986272153000,4.402153076171875,14.664484977722168,-1.6543933153152466,-1.9967641830444336
1732873986282163000,4.412162841796875,13.184868812561035,-1.0247182846069336,-2.2194249629974365
1732873986292142000,4.42214208984375,10.716446876525879,0.10295066982507706,-2.456450939178467
1732873986302151700,4.432151611328125,7.795520782470703,0.9911994934082031,-2.494758129119873
1732873986312161500,4.44216162109375,4.6950297355651855,1.400607943534851,-1.9608511924743652
1732873986322171400,4.45217138671875,2.7676970958709717,1.699883222579956,-1.4532804489135742
1732873986332150800,4.46215087890625,1.941697597503662,1.7980455160140991,-1.4221558570861816
1732873986342160400,4.472160400390625,2.2625205516815186,1.5610195398330688,-1.3718775510787964
1732873986352170200,4.482170166015625,3.4979286193847656,1.1085153818130493,-1.381454348564148
1732873986362149600,4.492149658203125,5.705382823944092,0.5817909836769104,-1.5490485429763794
1732873986372159200,4.5021591796875,7.68538761138916,0.08619125932455063,-1.867477297782898
1732873986382168800,4.5121689453125,9.615114212036133,-0.4572925269603729,-1.9967641830444336
1732873986392148200,4.522148193359375,11.037269592285156,-0.7230489253997803,-2.027888774871826
1732873986402157800,4.53215771484375,12.083536148071289,-0.8355764150619507,-1.8387469053268433
1732873986412167700,4.542167724609375,12.564770698547363,-0.7829039692878723,-1.3120225667953491
1732873986422147000,4.55214697265625,12.102689743041992,-0.4644751250743866,-0.8762778043746948
1732873986432156700,4.56215673828125,10.972626686096191,-0.08858546614646912,-0.5147533416748047
1732873986442166500,4.57216650390625,9.643844604492188,0.3663128614425659,-0.21308395266532898
1732873986452146000,4.58214599609375,8.705317497253418,0.9097966551780701,0.06224924325942993
1732873986462155500,4.592155517578125,8.147468566894531,1.3239935636520386,0.23702596127986908
1732873986472165400,4.602165283203125,7.807491779327393,1.7118542194366455,0.3447650372982025
1732873986482144500,4.61214453125,7.6782050132751465,2.0470423698425293,0.31842881441116333
1732873986492154400,4.622154296875,7.524975776672363,2.2816741466522217,0.2801215946674347
1732873986502164000,4.6321640625,7.436390399932861,2.3750481605529785,0.3758896589279175
1732873986512143400,4.642143310546875,7.513004779815674,2.4133553504943848,0.4189853072166443
1732873986522153000,4.652153076171875,7.582436561584473,2.4181437492370605,0.3878606855869293
1732873986532162800,4.662162841796875,7.728483200073242,2.300827741622925,0.17717093229293823
1732873986542142000,4.672141845703125,8.020575523376465,2.1739351749420166,-0.035913024097681046
1732873986552151800,4.68215185546875,8.741230010986328,1.965639591217041,-0.2753331959247589
1732873986562161700,4.69216162109375,9.780313491821289,1.721431016921997,-0.4381389021873474
1732873986572171500,4.702171630859375,10.649409294128418,1.5849615335464478,-0.6200982332229614
1732873986582150700,4.712150634765625,11.233593940734863,1.5442601442337036,-0.8355764150619507
1732873986592160500,4.722160400390625,11.331756591796875,1.656787633895874,-0.9002198576927185
1732873986602170000,4.732170166015625,10.903194427490234,1.9273324012756348,-0.7829039692878723
1732873986612149200,4.742149169921875,10.168174743652344,2.1787235736846924,-0.7015010714530945
1732873986622159000,4.7521591796875,9.301473617553711,2.3247697353363037,-0.38307225704193115
1732873986632169000,4.7621689453125,8.686163902282715,2.3319525718688965,-0.12689268589019775
1732873986642148400,4.7721484375,8.413225173950195,2.205059766769409,0.14844051003456116
1732873986652158000,4.782157958984375,8.769960403442383,1.987187385559082,0.3711012601852417
1732873986662167800,4.792167724609375,9.579200744628906,1.8291701078414917,0.3519476354122162
1732873986672147000,4.80214697265625,10.484209060668945,1.6184803247451782,0.13407529890537262
1732873986682156800,4.81215673828125,11.286267280578613,1.2737152576446533,0.24660277366638184
1732873986692166700,4.822166748046875,12.126631736755371,0.9026140570640564,0.5363011956214905
1732873986702145800,4.832145751953125,13.024456977844238,0.751779317855835,0.8236053586006165
1732873986712155400,4.8421552734375,13.886369705200195,1.0199298858642578,0.6655880808830261
1732873986722165200,4.852165283203125,14.125789642333984,1.4844050407409668,0.3256114423274994
1732873986732144600,4.86214453125,13.505691528320312,1.6879122257232666,0.10295066982507706
1732873986742154200,4.872154296875,12.442666053771973,1.482010841369629,0.2322375625371933
1732873986752164000,4.8821640625,11.578359603881836,0.7541735172271729,0.6320692300796509
1732873986762143500,4.8921435546875,11.456254959106445,0.035913024097681046,0.6823474764823914
1732873986772153000,4.902153076171875,12.00452709197998,-0.43095630407333374,0.2825157940387726
1732873986782162700,4.91216259765625,12.840104103088379,-0.7254431247711182,-0.3495534360408783
1732873986792142000,4.92214208984375,13.51766300201416,-0.9097966551780701,-0.28969839215278625
1732873986802151700,4.932151611328125,13.259089469909668,-1.0414776802062988,0.33518823981285095
1732873986812161500,4.94216162109375,12.006921768188477,-0.8475474119186401,0.9097966551780701
1732873986822171400,4.95217138671875,9.746794700622559,-0.24899697303771973,1.3335703611373901
1732873986832150500,4.962150634765625,7.457938194274902,0.3064578175544739,1.3646949529647827
1732873986842160400,4.972160400390625,5.966350555419922,0.7134721279144287,1.4460978507995605
1732873986852170200,4.982170166015625,5.521028995513916,0.8259995579719543,1.6160861253738403
1732873986862149400,4.9921494140625,5.817910194396973,0.7469909191131592,1.4700398445129395
1732873986872159200,5.0021591796875,6.732495307922363,0.5315127968788147,1.1061211824417114
1732873986882168800,5.0121689453125,8.109161376953125,0.33518823981285095,0.751779317855835
1732873986892148200,5.022148193359375,9.17936897277832,0.31124621629714966,0.08619125932455063
1732873986902157800,5.03215771484375,9.583989143371582,0.2322375625371933,-0.2753331959247589
1732873986912167700,5.042167724609375,9.62947940826416,0.14844051003456116,-0.3758896589279175
1732873986922146800,5.052146728515625,9.394847869873047,0.19393034279346466,-0.43095630407333374
1732873986932156700,5.06215673828125,9.074024200439453,0.2561795711517334,-0.4141969084739685
1732873986942166500,5.07216650390625,8.702922821044922,0.42856210470199585,-0.3016694188117981
1732873986952146000,5.08214599609375,8.197746276855469,0.6823474764823914,-0.42377370595932007
1732873986962155500,5.092155517578125,7.759607791900635,0.9217676520347595,-0.28969839215278625
1732873986972165400,5.102165283203125,7.548917770385742,1.278503656387329,-0.3734954595565796
1732873986982144500,5.11214453125,7.424419403076172,1.5610195398330688,-0.4596867263317108
1732873986992154400,5.122154296875,7.3238630294799805,1.7741034030914307,-0.4644751250743866
1732873987002164000,5.1321640625,7.252037048339844,1.8914192914962769,-0.3998316824436188
1732873987012143400,5.142143310546875,7.319074630737305,1.9704279899597168,-0.45250412821769714
1732873987022153000,5.152153076171875,7.726089000701904,2.0207061767578125,-0.5985504388809204
1732873987032162800,5.162162841796875,8.398859977722168,2.0159177780151367,-0.6631938815116882
1732873987042142200,5.17214208984375,9.172186851501465,1.987187385559082,-0.7015010714530945
1732873987052151800,5.18215185546875,9.68933391571045,1.867477297782898,-0.629675030708313
1732873987062161700,5.19216162109375,10.002974510192871,1.6687586307525635,-0.28969839215278625
1732873987072171500,5.202171630859375,10.055646896362305,1.45806884765625,0.05746084079146385
1732873987082150700,5.212150634765625,10.134655952453613,1.2090718746185303,0.4644751250743866
1732873987092160500,5.222160400390625,10.273519515991211,1.0103530883789062,0.8212111592292786
1732873987102170000,5.232170166015625,10.488997459411621,0.9696516990661621,1.0271124839782715
1732873987112149200,5.242149169921875,10.6709566116333,1.1109095811843872,1.0319008827209473
1732873987122159000,5.2521591796875,10.706870079040527,1.3862427473068237,0.9193734526634216
1732873987132169000,5.2621689453125,10.539276123046875,1.7836803197860718,0.7134721279144287
1732873987142148000,5.272148193359375,10.110713958740234,2.1284453868865967,0.5722141861915588
1732873987152158000,5.282157958984375,9.514557838439941,2.3726539611816406,0.5937620401382446
1732873987162167800,5.292167724609375,9.102754592895508,2.4827871322631836,0.7709329724311829
1732873987172147200,5.302147216796875,8.832210540771484,2.47560453414917,0.950498104095459
1732873987182156800,5.31215673828125,8.887276649475098,2.3247697353363037,1.094150185585022
1732873987192166400,5.32216650390625,9.334992408752441,2.006340980529785,1.0558429956436157
1732873987202145500,5.3321455078125,10.165780067443848,1.7357962131500244,0.7326257228851318
1732873987212155400,5.3421552734375,11.494562149047852,1.625662922859192,0.16998831927776337
1732873987222165200,5.352165283203125,12.756306648254395,1.702277421951294,-0.7805097699165344
1732873987232144400,5.362144287109375,13.563152313232422,1.7621324062347412,-1.381454348564148
1732873987242154200,5.372154296875,14.020444869995117,1.8507179021835327,-1.6974890232086182
1732873987252164000,5.3821640625,14.008474349975586,2.013523578643799,-1.802833914756775
1732873987262143500,5.3921435546875,13.412318229675293,2.3582887649536133,-1.922544002532959
1732873987272153000,5.402153076171875,12.397176742553711,2.5689783096313477,-2.0374655723571777
1732873987282163000,5.412162841796875,11.164162635803223,2.454056739807129,-2.0877439975738525
1732873987292142000,5.42214208984375,10.369287490844727,1.8267759084701538,-1.8411411046981812
1732873987302151700,5.432151611328125,9.907206535339355,0.5793967843055725,-1.4269442558288574
1732873987312161500,5.44216162109375,10.472238540649414,-0.49320554733276367,-1.2737152576446533
1732873987322171400,5.45217138671875,11.585541725158691,-1.0438719987869263,-1.6328455209732056
1732873987332150500,5.462150634765625,12.58152961730957,-0.9959878921508789,-1.889025092124939
1732873987342160400,5.472160400390625,12.382811546325684,-0.4836287498474121,-2.188300371170044
1732873987352170200,5.482170166015625,10.757147789001465,0.2777273952960968,-2.126051187515259
1732873987362149400,5.4921494140625,8.803479194641113,0.8571242094039917,-1.8794482946395874
1732873987372159200,5.5021591796875,6.4595561027526855,1.3503297567367554,-1.4269442558288574
1732873987382168800,5.5121689453125,4.632780075073242,1.6352397203445435,-1.2497732639312744
1732873987392148000,5.52214794921875,3.6798880100250244,1.6519991159439087,-1.2617442607879639
1732873987402157800,5.53215771484375,4.259284973144531,1.4077905416488647,-1.115697979927063
1732873987412167700,5.542167724609375,5.839457988739014,0.8259995579719543,-1.0342950820922852
1732873987422146800,5.552146728515625,7.433996200561523,0.363918662071228,-0.871489405632019
1732873987432156700,5.56215673828125,9.059659004211426,-0.10534487664699554,-0.8068459630012512
1732873987442166500,5.57216650390625,10.381258964538574,-0.49799394607543945,-0.5147533416748047
1732873987452145700,5.582145751953125,11.288661003112793,-0.7469909191131592,-0.06703764945268631
1732873987462155500,5.592155517578125,11.686098098754883,-0.7781155705451965,0.3423708379268646
1732873987472165400,5.602165283203125,11.310209274291992,-0.569819986820221,0.45489832758903503
1732873987482144500,5.61214453125,10.656591415405273,-0.1628057211637497,0.49559974670410156
1732873987492154400,5.622154296875,10.299856185913086,0.28730419278144836,0.5147533416748047
1732873987502164000,5.6321640625,10.053253173828125,0.7637503147125244,0.4692635238170624
1732873987512143400,5.642143310546875,9.548076629638672,1.161187767982483,0.45489832758903503
1732873987522153000,5.652153076171875,8.825027465820312,1.5155296325683594,0.42377370595932007
1732873987532162800,5.662162841796875,8.341399192810059,1.766920804977417,0.3471592366695404
1732873987542142000,5.672141845703125,7.967903137207031,1.9847931861877441,0.3016694188117981
1732873987552151800,5.68215185546875,7.682993412017822,2.0590133666992188,0.2992752194404602
1732873987562161700,5.69216162109375,7.534552574157715,2.073378562927246,0.2585737705230713
1732873987572171500,5.702171630859375,7.544129371643066,2.1068975925445557,0.028730420395731926
1732873987582150700,5.712150634765625,7.762001991271973,2.054224967956543,-0.1364694982767105
1732873987592160500,5.722160400390625,8.142680168151855,2.0015525817871094,-0.18914192914962769
1732873987602170000,5.732170166015625,8.523358345031738,1.9488801956176758,-0.26336219906806946
1732873987612149200,5.742149169921875,8.913613319396973,1.9153614044189453,-0.24660277366638184
1732873987622159000,5.7521591796875,9.184157371520996,1.8579005002975464,-0.2825157940387726
1732873987632169000,5.7621689453125,9.437943458557129,1.7764976024627686,-0.24660277366638184
1732873987642148400,5.7721484375,9.770736694335938,1.7549498081207275,-0.2561795711517334
1732873987652158000,5.782157958984375,10.254365921020508,1.824381709098816,-0.38067805767059326
1732873987662167800,5.792167724609375,10.69489860534668,1.9608511924743652,-0.4213795065879822
1732873987672147000,5.80214697265625,10.90798282623291,2.1140801906585693,-0.37828385829925537
1732873987682156800,5.81215673828125,10.826580047607422,2.248155355453491,-0.3280056416988373
1732873987692166700,5.822166748046875,10.680533409118652,2.229001760482788,-0.17956513166427612
1732873987702145800,5.832145751953125,10.57040023803711,2.209848165512085,-0.07422025501728058
1732873987712155400,5.8421552734375,10.72602367401123,2.073378562927246,0.07900865375995636
1732873987722165200,5.852165283203125,11.135432243347168,1.9823989868164062,0.17238251864910126
1732873987732144600,5.86214453125,11.690886497497559,1.920149803161621,0.040701430290937424
1732873987742154200,5.872154296875,12.447454452514648,1.7286136150360107,-0.13168109953403473
1732873987752164000,5.8821640625,13.129801750183105,1.4053963422775269,-0.17717093229293823
1732873987762143500,5.8921435546875,13.718775749206543,1.0031704902648926,0.035913024097681046
1732873987772153000,5.902153076171875,14.386757850646973,0.9265560507774353,0.31124621629714966
1732873987782163000,5.912162841796875,14.542381286621094,1.2497732639312744,0.304063618183136
1732873987792142000,5.92214208984375,13.725957870483398,1.6089035272598267,0.2777273952960968
1732873987802151700,5.932151611328125,12.418724060058594,1.5682021379470825,0.5770025849342346
1732873987812161500,5.94216162109375,10.790667533874512,0.9648633003234863,1.2018892765045166
1732873987822171400,5.95217138671875,10.163386344909668,0.09816227108240128,1.647210717201233
1732873987832150500,5.962150634765625,10.493785858154297,-0.3734954595565796,1.1061211824417114
1732873987842160400,5.972160400390625,11.623848915100098,-0.7733271718025208,0.6033388376235962
1732873987852170200,5.982170166015625,12.342109680175781,-0.751779317855835,0.2585737705230713
1732873987862149400,5.9921494140625,12.176909446716309,-0.3926490843296051,-0.090979665517807
1732873987872159200,6.0021591796875,10.788272857666016,0.1173158809542656,0.014365210197865963
1732873987882169000,6.012169189453125,8.429984092712402,0.5602431893348694,0.7015010714530945
1732873987892148200,6.022148193359375,6.026205539703369,0.8834604024887085,1.259350061416626
1732873987902157800,6.03215771484375,3.9695863723754883,1.2306196689605713,1.601720929145813
1732873987912167700,6.042167724609375,3.1004912853240967,1.3886369466781616,1.678335428237915
1732873987922146800,6.052146728515625,3.380612850189209,1.2665326595306396,1.2952631711959839
1732873987932156700,6.06215673828125,4.774038314819336,0.9193734526634216,0.9026140570640564
1732873987942166500,6.07216650390625,6.897695064544678,0.40462008118629456,0.33279404044151306
1732873987952146000,6.08214599609375,8.686163902282715,0.12449848651885986,-0.07182604819536209
1732873987962155500,6.092155517578125,10.491392135620117,-0.49320554733276367,-0.33279404044151306
1732873987972165000,6.1021650390625,11.295844078063965,-0.6488286852836609,-0.5746083855628967
1732873987982144500,6.11214453125,11.30302619934082,-0.5027823448181152,-0.6703764796257019
1732873987992154400,6.122154296875,10.819397926330566,-0.2801215946674347,-0.5817909836769104
1732873988002164000,6.1321640625,10.113107681274414,0.05506663769483566,-0.2992752194404602
1732873988012143400,6.142143310546875,9.0859956741333,0.5267243981361389,-0.1628057211637497
1732873988022153200,6.1521533203125,8.176198959350586,0.9433154463768005,-0.10534487664699554
1732873988032162800,6.162162841796875,7.311892032623291,1.4269442558288574,-0.14365209639072418
1732873988042142200,6.17214208984375,6.98628044128418,1.7381904125213623,-0.2561795711517334
1732873988052151800,6.18215185546875,6.813898086547852,2.1116859912872314,-0.42616790533065796
1732873988062161700,6.19216162109375,7.017405033111572,2.248155355453491,-0.7326257228851318
1732873988072171500,6.202171630859375,7.592013359069824,2.161964178085327,-0.811634361743927
1732873988082150700,6.212150634765625,8.13789176940918,2.054224967956543,-0.9002198576927185
1732873988092160500,6.222160400390625,8.62391471862793,2.0231003761291504,-1.0821791887283325
1732873988102170000,6.232170166015625,9.229647636413574,1.9728221893310547,-1.094150185585022
1732873988112149500,6.2421494140625,9.682151794433594,1.8962076902389526,-1.0319008827209473
1732873988122159000,6.2521591796875,10.067618370056152,1.7477672100067139,-0.8068459630012512
1732873988132169000,6.2621689453125,10.376470565795898,1.5729905366897583,-0.4668693244457245
1732873988142148400,6.2721484375,10.56800651550293,1.4532804489135742,-0.08140286058187485
1732873988152158000,6.282157958984375,10.44350814819336,1.3527239561080933,0.05985504388809204
1732873988162167800,6.292167724609375,10.309432983398438,1.1683704853057861,0.3064578175544739
1732873988172147000,6.30214697265625,10.371682167053223,1.039083480834961,0.5171475410461426
1732873988182156800,6.31215673828125,10.433931350708008,1.070208191871643,0.5602431893348694
1732873988192166400,6.32216650390625,10.429142951965332,1.1683704853057861,0.5506663918495178
1732873988202145500,6.3321455078125,10.280701637268066,1.357512354850769,0.4884171485900879
1732873988212155400,6.3421552734375,9.93354320526123,1.5634137392044067,0.3016694188117981
1732873988222165200,6.352165283203125,9.619902610778809,1.6496049165725708,0.23702596127986908
1732873988232144600,6.36214453125,9.253589630126953,1.721431016921997,0.26815059781074524
1732873988242154200,6.372154296875,9.014169692993164,1.7405846118927002,0.3016694188117981
1732873988252164000,6.3821640625,8.98543930053711,1.680729627609253,0.2849099934101105
1732873988262143500,6.3921435546875,9.342175483703613,1.5921441316604614,0.17238251864910126
1732873988272153000,6.402153076171875,10.1753568649292,1.4508862495422363,0.05506663769483566
1732873988282163000,6.412162841796875,11.015722274780273,1.4197616577148438,-0.20350714027881622
1732873988292141800,6.422141845703125,11.743558883666992,1.4173674583435059,-0.5123591423034668
1732873988302151700,6.432151611328125,12.18648624420166,1.4867992401123047,-0.8667010068893433
1732873988312161500,6.44216162109375,12.57913589477539,1.702277421951294,-1.115697979927063
1732873988322171400,6.45217138671875,12.648567199707031,2.1284453868865967,-1.4915876388549805
1732873988332150500,6.462150634765625,12.382811546325684,2.4205379486083984,-1.920149803161621
1732873988342160400,6.472160400390625,11.645397186279297,2.3104045391082764,-2.0231003761291504
1732873988352170200,6.482170166015625,11.113883972167969,1.6280571222305298,-1.742978811264038
1732873988362149600,6.492149658203125,11.228805541992188,0.33039984107017517,-0.9672574996948242
1732873988372159200,6.5021591796875,12.33253288269043,-0.9672574996948242,-0.6105214357376099
1732873988382168800,6.5121689453125,13.955801963806152,-1.8363527059555054,-1.072602391242981
1732873988392148000,6.52214794921875,15.277400970458984,-1.9393033981323242,-1.7262194156646729
1732873988402157800,6.53215771484375,15.275007247924805,-1.3838485479354858,-2.094926595687866
1732873988412167700,6.542167724609375,13.350069046020508,-0.6033388376235962,-2.537853717803955
1732873988422147000,6.55214697265625,11.068394660949707,0.38546648621559143,-2.6024973392486572
1732873988432156700,6.56215673828125,8.451532363891602,1.194706678390503,-2.2816741466522217
1732873988442166500,6.57216650390625,5.774814605712891,1.5849615335464478,-1.6663644313812256
1732873988452146000,6.58214599609375,3.3877954483032227,2.011129379272461,-1.235408067703247
1732873988462155500,6.592155517578125,2.4875755310058594,2.2649147510528564,-0.9074024558067322
1732873988472165400,6.602165283203125,2.1811177730560303,2.10210919380188,-1.0271124839782715
1732873988482144500,6.61214453125,2.499546527862549,1.6496049165725708,-1.216254472732544
1732873988492154400,6.622154296875,4.290409564971924,1.072602391242981,-1.4484920501708984
1732873988502164000,6.6321640625,6.265625953674316,0.5530605912208557,-1.6831238269805908
1732873988512143400,6.642143310546875,8.995016098022461,-0.22266076505184174,-1.9249382019042969
1732873988522153000,6.652153076171875,11.204863548278809,-0.7086837291717529,-1.7812861204147339
1732873988532162800,6.662162841796875,12.648567199707031,-0.7757213711738586,-1.7908629179000854
1732873988542142000,6.672141845703125,12.871228218078613,-0.6703764796257019,-1.7286136150360107
1732873988552151800,6.68215185546875,12.346898078918457,-0.5626373887062073,-1.292868971824646
1732873988562161700,6.69216162109375,11.116278648376465,-0.3232172429561615,-0.5889736413955688
1732873988572171500,6.702171630859375,10.170568466186523,-0.014365210197865963,-0.3016694188117981
1732873988582150700,6.712150634765625,9.363722801208496,0.43095630407333374,0.07422025501728058
1732873988592160500,6.722160400390625,8.89445972442627,0.7422025203704834,0.28730419278144836
1732873988602170000,6.732170166015625,8.425195693969727,1.1085153818130493,0.3016694188117981
1732873988612149200,6.742149169921875,8.185775756835938,1.5203180313110352,0.15801730751991272
1732873988622159000,6.7521591796875,8.202534675598145,1.821987509727478,-0.08619125932455063
1732873988632169000,6.7621689453125,8.343792915344238,1.9943699836730957,-0.33518823981285095
1732873988642148400,6.7721484375,8.480262756347656,2.1068975925445557,-0.47644615173339844
1732873988652158000,6.782157958984375,8.585607528686523,2.0661959648132324,-0.5219359993934631
1732873988662167800,6.792167724609375,8.683769226074219,1.965639591217041,-0.49559974670410156
1732873988672147000,6.80214697265625,8.992621421813965,1.7501614093780518,-0.4189853072166443
1732873988682156800,6.81215673828125,9.390059471130371,1.5538369417190552,-0.44532153010368347
1732873988692166700,6.822166748046875,9.911994934082031,1.3407529592514038,-0.5674257874488831
1732873988702145800,6.832145751953125,10.225635528564453,1.1875240802764893,-0.7086837291717529
1732873988712155400,6.8421552734375,10.508151054382324,1.1971008777618408,-0.8978256583213806
1732873988722165200,6.852165283203125,10.582371711730957,1.3192051649093628,-1.091755986213684
1732873988732144600,6.86214453125,10.32858657836914,1.3718775510787964,-1.1013327836990356
1732873988742154200,6.872154296875,10.029311180114746,1.4460978507995605,-0.9744400978088379
1732873988752164000,6.8821640625,9.883264541625977,1.4867992401123047,-0.9265560507774353
1732873988762143500,6.8921435546875,9.68694019317627,1.4748282432556152,-1.2449848651885986
1732873988772153000,6.902153076171875,9.871294021606445,1.357512354850769,-1.1492167711257935
1732873988782162700,6.91216259765625,10.503362655639648,1.1300631761550903,-1.2234370708465576
1732873988792142000,6.92214208984375,11.200075149536133,0.9026140570640564,-1.3287819623947144
1732873988802151700,6.932151611328125,11.832144737243652,0.7613561153411865,-1.256955862045288
1732873988812161500,6.94216162109375,11.987768173217773,0.727837324142456,-1.0342950820922852
1732873988822171400,6.95217138671875,11.820174217224121,0.7733271718025208,-0.8547300100326538
1732873988832150500,6.962150634765625,11.341333389282227,0.8427590131759644,-0.6536170840263367
1732873988842160400,6.972160400390625,10.680533409118652,1.0414776802062988,-0.3447650372982025
1732873988852170200,6.982170166015625,9.816226959228516,1.3455413579940796,0.05027823522686958
1732873988862149400,6.9921494140625,9.311050415039062,1.9081788063049316,0.14844051003456116
1732873988872159200,7.0021591796875,8.939949035644531,2.367865562438965,-0.2777273952960968
1732873988882169000,7.012169189453125,8.932766914367676,2.518700122833252,-0.6991068720817566
1732873988892148200,7.022148193359375,9.418789863586426,2.205059766769409,-0.933738648891449
1732873988902157800,7.03215771484375,9.926360130310059,1.5107412338256836,-1.216254472732544
1732873988912167700,7.042167724609375,11.6430025100708,0.13407529890537262,-1.414973258972168
1732873988922146800,7.052146728515625,13.931859970092773,-1.3263877630233765,-1.1659762859344482
1732873988932156700,7.06215673828125,16.28296661376953,-2.360682964324951,-1.7094600200653076
1732873988942166500,7.07216650390625,17.49921989440918,-2.4636335372924805,-1.920149803161621
1732873988952146000,7.08214599609375,16.9581298828125,-2.2146365642547607,-1.7046716213226318
1732873988962155500,7.092155517578125,14.393940925598145,-1.7357962131500244,-1.1085153818130493
1732873988972165000,7.1021650390625,11.010933876037598,-1.036689281463623,-0.5578489899635315
1732873988982144500,7.11214453125,8.214506149291992,-0.2753331959247589,0.026336219161748886
1732873988992154400,7.122154296875,6.203376770019531,0.5386953949928284,0.8212111592292786
1732873989002164000,7.1321640625,4.170699596405029,1.113303780555725,0.7206547260284424
1732873989012143400,7.142143310546875,3.0310592651367188,1.7118542194366455,0.6057330369949341
1732873989022153000,7.152153076171875,2.434903144836426,2.2912509441375732,0.3495534360408783
1732873989032162800,7.162162841796875,2.293645143508911,2.5330653190612793,0.1628057211637497
1732873989042142200,7.17214208984375,2.6815059185028076,3.0095114707946777,-0.8523358106613159
1732873989052151800,7.18215185546875,3.5051112174987793,2.6886885166168213,-1.1659762859344482
1732873989062161700,7.19216162109375,5.128379821777344,1.3263877630233765,-0.48602294921875
1732873989072171500,7.202171630859375,7.783549785614014,0.21308395266532898,0.05746084079146385
1732873989082150700,7.212150634765625,10.587160110473633,-0.7637503147125244,0.23702596127986908
1732873989092160500,7.222160400390625,12.868834495544434,-1.3646949529647827,0.0454898327589035
1732873989102170000,7.232170166015625,14.238317489624023,-1.599326729774475,-0.10534487664699554
1732873989112149200,7.242149169921875,15.04516315460205,-1.534683346748352,-0.12689268589019775
1732873989122159000,7.2521591796875,14.810531616210938,-1.2018892765045166,-0.026336219161748886
1732873989132169000,7.2621689453125,13.625401496887207,-0.5817909836769104,-0.07661445438861847
1732873989142148400,7.2721484375,12.30859088897705,0.13407529890537262,-0.08619125932455063
1732873989152158000,7.282157958984375,10.596736907958984,0.608127236366272,0.038307227194309235
1732873989162167800,7.292167724609375,9.342175483703613,0.9313444495201111,0.07661445438861847
1732873989172147000,7.30214697265625,8.674192428588867,1.072602391242981,-0.10773907601833344
1732873989182156800,7.31215673828125,8.614337921142578,1.173158884048462,-0.6033388376235962
1732873989192166400,7.32216650390625,8.937555313110352,1.1803414821624756,-0.9840168952941895
1732873989202145800,7.332145751953125,9.129091262817383,1.1875240802764893,-1.3479355573654175
1732873989212155400,7.3421552734375,9.23682975769043,1.235408067703247,-1.6615760326385498
1732873989222165200,7.352165283203125,9.150638580322266,1.3431471586227417,-1.98958158493042
1732873989232144600,7.36214453125,8.856152534484863,1.3072341680526733,-2.0901381969451904
1732873989242154200,7.372154296875,8.647856712341309,1.070208191871643,-1.8938134908676147
1732873989252164000,7.3821640625,8.7268648147583,0.9241618514060974,-1.8076223134994507
1732873989262143500,7.3921435546875,9.232041358947754,0.8571242094039917,-1.9057846069335938
1732873989272153300,7.4021533203125,9.749189376831055,0.8954314589500427,-2.126051187515259
1732873989282163000,7.412162841796875,10.06043529510498,0.9840168952941895,-2.408566951751709
1732873989292141800,7.422141845703125,10.340557098388672,0.7829039692878723,-2.1787235736846924
1732873989302151700,7.432151611328125,10.498574256896973,0.6991068720817566,-2.319981336593628
1732873989312161500,7.44216162109375,10.54406452178955,0.8188169598579407,-2.631227731704712
1732873989322171400,7.45217138671875,10.587160110473633,0.8451532125473022,-2.875436305999756
1732873989332150800,7.46215087890625,10.505757331848145,0.7589619159698486,-3.0142998695373535
1732873989342160400,7.472160400390625,10.357316970825195,0.6440402865409851,-3.043030261993408
1732873989352170200,7.482170166015625,10.266336441040039,0.5913678407669067,-3.026270866394043
1732873989362149400,7.4921494140625,10.223240852355957,0.5434837937355042,-2.980781078338623
1732873989372159200,7.5021591796875,10.287884712219238,0.5985504388809204,-2.808398485183716
1732873989382168800,7.5121689453125,10.141838073730469,0.727837324142456,-2.698265314102173
1732873989392148200,7.522148193359375,9.761159896850586,0.8379706144332886,-2.497152328491211
1732873989402157800,7.53215771484375,9.275136947631836,0.8595184087753296,-2.3702597618103027
1732873989412167700,7.542167724609375,8.904036521911621,0.9313444495201111,-2.3487119674682617
1732873989422146800,7.552146728515625,8.738836288452148,0.9911994934082031,-2.43011474609375
1732873989432156700,7.56215673828125,8.9064302444458,0.9193734526634216,-2.5258827209472656
1732873989442166500,7.57216650390625,8.978256225585938,0.7996633648872375,-2.6862943172454834
1732873989452145700,7.582145751953125,9.05247688293457,0.6703764796257019,-2.741360902786255
1732873989462155500,7.592155517578125,9.133879661560059,0.40701428055763245,-2.583343744277954
1732873989472165400,7.602165283203125,9.248801231384277,0.12449848651885986,-2.4636335372924805
1732873989482144500,7.61214453125,9.493009567260742,-0.14844051003456116,-2.3319525718688965
1732873989492154400,7.622154296875,9.725247383117676,-0.3734954595565796,-2.229001760482788
1732873989502164000,7.6321640625,9.967061996459961,-0.6153098344802856,-2.0638017654418945
1732873989512143400,7.642143310546875,10.096348762512207,-0.8092401623725891,-1.9033904075622559
1732873989522153000,7.652153076171875,10.129867553710938,-0.9624691009521484,-1.8339585065841675
1732873989532162800,7.662162841796875,10.120290756225586,-1.0893617868423462,-1.7501614093780518
1732873989542142200,7.67214208984375,10.043676376342773,-1.0989385843276978,-1.6759412288665771
1732873989552151800,7.68215185546875,9.919178009033203,-1.1109095811843872,-1.601720929145813
1732873989562161700,7.69216162109375,9.799467086791992,-1.094150185585022,-1.4628572463989258
1732873989572171500,7.702171630859375,9.66539192199707,-1.0079588890075684,-1.216254472732544
1732873989582150700,7.712150634765625,9.48343276977539,-0.9720458984375,-1.0223240852355957
1732873989592160500,7.722160400390625,9.289502143859863,-0.8355764150619507,-0.6536170840263367
1732873989602170400,7.73217041015625,9.114726066589355,-0.8140285611152649,-0.49320554733276367
1732873989612149200,7.742149169921875,9.136273384094238,-0.8092401623725891,-0.4213795065879822
1732873989622159000,7.7521591796875,9.248801231384277,-0.8092401623725891,-0.4644751250743866
1732873989632169000,7.7621689453125,9.430760383605957,-0.811634361743927,-0.43335050344467163
1732873989642148400,7.7721484375,9.6989107131958,-0.8571242094039917,-0.48602294921875
1732873989652158000,7.782157958984375,10.046070098876953,-0.8810662031173706,-0.4572925269603729
1732873989662167800,7.792167724609375,10.433931350708008,-0.9481038451194763,-0.3974374830722809
1732873989672147000,7.80214697265625,10.78587818145752,-0.9169792532920837,-0.36152446269989014
1732873989682156800,7.81215673828125,11.018115997314453,-0.7876923680305481,-0.48602294921875
1732873989692166400,7.82216650390625,11.183316230773926,-0.7110779285430908,-0.3423708379268646
1732873989702145800,7.832145751953125,11.111490249633789,-0.5434837937355042,-0.3016694188117981
1732873989712155400,7.8421552734375,10.766724586486816,-0.33039984107017517,-0.19393034279346466
1732873989722165200,7.852165283203125,9.497797966003418,0.040701430290937424,0.40701428055763245
1732873989732144600,7.86214453125,8.767566680908203,-0.22505496442317963,0.706289529800415
1732873989742154200,7.872154296875,8.810662269592285,-0.20111294090747833,0.8858546018600464
1732873989752164000,7.8821640625,9.081207275390625,0.1628057211637497,0.6799532771110535
1732873989762143500,7.8921435546875,9.26795482635498,0.2513911724090576,0.3711012601852417
1732873989772153000,7.902153076171875,9.433155059814453,0.2106897532939911,0.2346317619085312
1732873989782163000,7.912162841796875,9.66539192199707,0.26815059781074524,0.15801730751991272
1732873989792142000,7.92214208984375,9.75397777557373,0.5410895943641663,-0.10773907601833344
1732873989802151700,7.932151611328125,9.641449928283691,0.7493851184844971,-0.304063618183136
1732873989812161500,7.94216162109375,9.459490776062012,0.9217676520347595,-0.2585737705230713
1732873989822171400,7.95217138671875,9.287108421325684,1.039083480834961,-0.05267243832349777
1732873989832150500,7.962150634765625,9.028534889221191,1.1348515748977661,0.1412578970193863
1732873989842160400,7.972160400390625,9.083600997924805,1.1683704853057861,0.42377370595932007
1732873989852170200,7.982170166015625,9.351752281188965,1.2401964664459229,0.4429273009300232
1732873989862149400,7.9921494140625,10.017339706420898,1.2737152576446533,0.42377370595932007
1732873989872159200,8.0021591796875,10.656591415405273,1.2401964664459229,0.363918662071228
1732873989882168800,8.0121689453125,11.257535934448242,1.213860273361206,0.23702596127986908
1732873989892148200,8.022148193359374,11.590330123901367,1.1994950771331787,0.14365209639072418
1732873989902157800,8.03215771484375,11.640608787536621,1.1516109704971313,0.17238251864910126
1732873989912167700,8.042167724609374,11.192893028259277,1.194706678390503,0.2322375625371933
1732873989922146800,8.052146728515625,10.409989356994629,1.3192051649093628,0.22266076505184174
1732873989932156700,8.06215673828125,9.730035781860352,1.5203180313110352,0.17956513166427612
1732873989942166500,8.07216650390625,9.119514465332031,1.6519991159439087,0.2106897532939911
1732873989952146000,8.08214599609375,8.738836288452148,1.7741034030914307,0.38307225704193115
1732873989962155500,8.092155517578124,8.453926086425781,1.7525556087493896,0.5770025849342346
1732873989972165400,8.102165283203124,8.434772491455078,1.742978811264038,0.6823474764823914
1732873989982144500,8.11214453125,8.616731643676758,1.721431016921997,0.727837324142456
1732873989992154400,8.122154296875,9.050082206726074,1.7286136150360107,0.6272808313369751
1732873990002164000,8.1321640625,9.488221168518066,1.721431016921997,0.6943184733390808
1732873990012143400,8.142143310546874,9.911994934082031,1.7549498081207275,0.8307880163192749
1732873990022153000,8.152153076171874,10.20648193359375,1.821987509727478,0.849941611289978
1732873990032162800,8.162162841796874,10.41956615447998,1.944091796875,0.7757213711738586
1732873990042142200,8.17214208984375,10.47702693939209,2.099714994430542,0.7086837291717529
1732873990052151800,8.18215185546875,10.38604736328125,2.2649147510528564,0.7254431247711182
1732873990062161700,8.19216162109375,10.27591323852539,2.3127987384796143,0.8044517636299133
1732873990072171500,8.202171630859375,10.335768699645996,2.451662540435791,0.9097966551780701
1732873990082151000,8.21215087890625,10.57040023803711,2.6216509342193604,1.1109095811843872
1732873990092160500,8.222160400390624,10.687716484069824,2.8826189041137695,1.0223240852355957
1732873990102170000,8.232170166015624,10.977415084838867,3.1723172664642334,1.1444283723831177
1732873990112149500,8.2421494140625,11.219228744506836,3.361459255218506,1.3646949529647827
1732873990122159000,8.2521591796875,11.343728065490723,3.555389642715454,1.41257905960083
1732873990132169000,8.2621689453125,11.295844078063965,3.6080620288848877,1.3742717504501343
1732873990142148400,8.2721484375,11.346121788024902,3.3734302520751953,1.4413094520568848
1732873990152158000,8.282157958984374,11.599906921386719,3.138798475265503,1.3048399686813354
1732873990162167800,8.292167724609374,12.057199478149414,2.741360902786255,1.1468225717544556
1732873990172147200,8.302147216796875,12.509703636169434,2.4468741416931152,0.871489405632019
1732873990182156800,8.31215673828125,12.995726585388184,2.252943754196167,0.7134721279144287
1732873990192166400,8.32216650390625,13.007698059082031,2.185906171798706,0.6631938815116882
1732873990202145500,8.3321455078125,12.521675109863281,2.233790159225464,0.6991068720817566
1732873990212155400,8.3421552734375,11.669339179992676,2.293645143508911,0.7086837291717529
1732873990222165200,8.352165283203124,10.699687004089355,2.233790159225464,0.4429273009300232
1732873990232144400,8.362144287109375,9.684545516967773,1.800439715385437,0.5003881454467773
1732873990242154200,8.372154296875,9.004592895507812,1.3694833517074585,0.5147533416748047
1732873990252164000,8.3821640625,8.738836288452148,1.0582371950149536,0.4213795065879822
1732873990262143500,8.3921435546875,8.853757858276367,0.7661445140838623,-0.009576806798577309
1732873990272153000,8.402153076171874,8.87051773071289,0.7015010714530945,-0.38307225704193115
1732873990282163000,8.412162841796874,8.777143478393555,0.8475474119186401,-0.30885201692581177
1732873990292141800,8.422141845703125,8.506598472595215,1.1085153818130493,-0.038307227194309235
1732873990302151700,8.432151611328125,7.864952564239502,1.4317326545715332,0.22266076505184174
1732873990312161500,8.44216162109375,6.950367450714111,1.7908629179000854,0.3974374830722809
1732873990322171400,8.45217138671875,5.803544998168945,2.099714994430542,0.7924807667732239
1732873990332150500,8.462150634765624,4.797980308532715,2.185906171798706,1.2713210582733154
1732873990342160400,8.472160400390624,4.022258758544922,2.3247697353363037,1.656787633895874
1732873990352170200,8.482170166015624,3.9025487899780273,2.2816741466522217,1.5538369417190552
1732873990362149400,8.4921494140625,4.558559894561768,2.1068975925445557,1.072602391242981
1732873990372159200,8.5021591796875,5.822698593139648,1.6735470294952393,0.7613561153411865
1732873990382168800,8.5121689453125,7.675810813903809,1.0749965906143188,0.6416460275650024
1732873990392148200,8.522148193359374,9.579200744628906,0.7038952708244324,0.5171475410461426
1732873990402157800,8.53215771484375,11.66694450378418,0.6871358752250671,0.2753331959247589
1732873990412167700,8.542167724609374,13.014880180358887,0.9361328482627869,-0.08140286058187485
1732873990422146800,8.552146728515625,13.37161636352539,1.2856862545013428,-0.3519476354122162
1732873990432156700,8.56215673828125,12.832921028137207,1.9177556037902832,-0.395043283700943
1732873990442166500,8.57216650390625,11.690886497497559,2.31758713722229,-0.3280056416988373
1732873990452146000,8.58214599609375,10.211270332336426,2.8395233154296875,-0.3256114423274994
1732873990462155500,8.592155517578124,9.047688484191895,3.1723172664642334,-0.3256114423274994
1732873990472165400,8.602165283203124,8.142680168151855,3.4572272300720215,-0.4429273009300232
1732873990482144500,8.61214453125,7.654263019561768,3.598485231399536,-0.5937620401382446
1732873990492154400,8.622154296875,7.450755596160889,3.581725835800171,-0.768538773059845
1732873990502164200,8.632164306640625,7.560888767242432,3.5003228187561035,-0.8044517636299133
1732873990512143400,8.642143310546874,7.687781810760498,3.3638534545898438,-0.730231523513794
1732873990522153000,8.652153076171874,7.90086555480957,3.1651346683502197,-0.5434837937355042
1732873990532162800,8.662162841796874,8.17141056060791,2.9759926795959473,-0.43335050344467163
1732873990542142000,8.672141845703125,8.47786808013916,2.8107926845550537,-0.26575639843940735
1732873990552151800,8.68215185546875,8.741230010986328,2.736572504043579,-0.1628057211637497
1732873990562161700,8.69216162109375,8.81784439086914,2.7557260990142822,-0.1149216815829277
1732873990572171500,8.702171630859375,8.762778282165527,2.82515811920166,-0.15562310814857483
1732873990582150700,8.712150634765624,8.767566680908203,2.9161376953125,-0.1388636976480484
1732873990592160500,8.722160400390624,8.80587387084961,2.9496564865112305,-0.06464344263076782
1732873990602170000,8.732170166015624,8.923190116882324,2.920926094055176,-0.014365210197865963
1732873990612149200,8.742149169921875,9.107542991638184,2.7461493015289307,-0.033518824726343155
1732873990622159000,8.7521591796875,9.47146224975586,2.5330653190612793,-0.090979665517807
1732873990632169000,8.7621689453125,9.950302124023438,2.3774423599243164,-0.12449848651885986
1732873990642148400,8.7721484375,10.259154319763184,2.3511061668395996,-0.12928688526153564
1732873990652158000,8.782157958984374,10.398017883300781,2.470816135406494,-0.16759411990642548
1732873990662167800,8.792167724609374,10.20648193359375,2.6024973392486572,-0.2082955539226532
1732873990672147000,8.80214697265625,9.880870819091797,2.8131868839263916,-0.3495534360408783
1732873990682156800,8.81215673828125,9.660603523254395,3.0358476638793945,-0.4405331015586853
1732873990692166400,8.82216650390625,9.593565940856934,3.1100680828094482,-0.5889736413955688
1732873990702145800,8.832145751953124,10.228029251098633,3.0885202884674072,-0.6057330369949341
1732873990712155400,8.8421552734375,11.45146656036377,3.0861260890960693,-0.586579442024231
1732873990722165200,8.852165283203124,12.96460247039795,2.978386878967285,-0.5291185975074768
1732873990732144600,8.86214453125,14.202404022216797,3.1531636714935303,-0.629675030708313
1732873990742154200,8.872154296875,15.0355863571167,3.6296098232269287,-1.0965443849563599
1732873990752164000,8.8821640625,15.358803749084473,4.120420932769775,-1.4772224426269531
1732873990762143500,8.8921435546875,15.061923027038574,4.266467571258545,-1.647210717201233
1732873990772153000,8.902153076171874,14.101847648620605,3.9624037742614746,-1.5538369417190552
1732873990782163000,8.912162841796874,12.981361389160156,3.24414324760437,-1.3982137441635132
1732873990792142000,8.92214208984375,12.24394702911377,2.164358377456665,-1.278503656387329
1732873990802151700,8.932151611328125,12.267889976501465,0.8451532125473022,-1.0630255937576294
1732873990812161500,8.94216162109375,13.079524040222168,-0.016759412363171577,-1.6903064250946045
1732873990822171400,8.95217138671875,13.651738166809082,-0.40940847992897034,-2.3726539611816406
1732873990832150500,8.962150634765624,13.883975982666016,-0.2968810200691223,-2.1763293743133545
1732873990842160400,8.972160400390624,13.369222640991211,0.16519992053508759,-1.821987509727478
1732873990852170200,8.982170166015624,11.729193687438965,0.6272808313369751,-1.6855180263519287
1732873990862149400,8.9921494140625,9.622296333312988,0.9792284965515137,-1.2018892765045166
1732873990872159200,9.0021591796875,6.782773494720459,1.5155296325683594,-0.8762778043746948
1732873990882169000,9.012169189453125,4.393360137939453,2.1068975925445557,-0.545877993106842
1732873990892148200,9.022148193359374,1.7477672100067139,2.6240451335906982,-0.026336219161748886
1732873990902157800,9.03215771484375,-0.2753331959247589,2.9448680877685547,0.2322375625371933
1732873990912167700,9.042167724609374,-1.1827356815338135,2.719813108444214,-0.023942016065120697
1732873990922146800,9.052146728515625,-0.3926490843296051,2.3343467712402344,-0.47884035110473633
1732873990932156700,9.06215673828125,2.161964178085327,1.7357962131500244,-1.2497732639312744
1732873990942166500,9.07216650390625,5.413290023803711,1.2306196689605713,-1.86508309841156
1732873990952146000,9.08214599609375,8.154650688171387,0.6584054827690125,-2.1715409755706787
1732873990962155500,9.092155517578124,10.402806282043457,0.42616790533065796,-2.477998733520508
1732873990972165400,9.102165283203124,12.006921768188477,0.4189853072166443,-2.1068975925445557
1732873990982144500,9.11214453125,12.811373710632324,0.5267243981361389,-1.6855180263519287
1732873990992154400,9.122154296875,12.682085990905762,0.6416460275650024,-1.1324573755264282
1732873991002164000,9.1321640625,11.57596492767334,1.0127472877502441,-1.0773907899856567
1732873991012143400,9.142143310546874,10.522516250610352,1.4197616577148438,-0.9720458984375
1732873991022153200,9.1521533203125,9.464279174804688,1.900996208190918,-0.7445967197418213
1732873991032162800,9.162162841796874,8.667010307312012,2.293645143508911,-0.4357447028160095
1732873991042142200,9.17214208984375,8.001421928405762,2.497152328491211,-0.2346317619085312
1732873991052151800,9.18215185546875,7.63989782333374,2.607285737991333,-0.21787235140800476
1732873991062161700,9.19216162109375,7.577648162841797,2.715024709701538,-0.3495534360408783
1732873991072171500,9.202171630859375,7.738059997558594,2.655169725418091,-0.4381389021873474
1732873991082150700,9.212150634765624,7.965508937835693,2.537853717803955,-0.38307225704193115
1732873991092160500,9.222160400390624,8.233659744262695,2.3942017555236816,-0.3687070608139038
1732873991102170000,9.232170166015624,8.453926086425781,2.3032219409942627,-0.4213795065879822
1732873991112149500,9.2421494140625,8.743624687194824,2.212242364883423,-0.4118026793003082
1732873991122159000,9.2521591796875,9.009381294250488,2.229001760482788,-0.569819986820221
1732873991132169000,9.2621689453125,9.306262016296387,2.2409727573394775,-0.6607996821403503
1732873991142148000,9.272148193359374,9.315838813781738,2.2816741466522217,-0.6584054827690125
1732873991152158000,9.282157958984374,9.279925346374512,2.365471363067627,-0.7086837291717529
1732873991162167800,9.292167724609374,9.232041358947754,2.52109432220459,-0.7445967197418213
1732873991172147000,9.30214697265625,9.169792175292969,2.7126305103302,-0.7781155705451965
1732873991182156800,9.31215673828125,9.239224433898926,2.853888511657715,-0.7589619159698486
1732873991192166400,9.32216650390625,9.387664794921875,2.940079689025879,-0.727837324142456
1732873991202145500,9.3321455078125,9.734824180603027,2.9951462745666504,-0.8140285611152649
1732873991212155400,9.3421552734375,10.259154319763184,2.8634653091430664,-0.7876923680305481
1732873991222165200,9.352165283203124,10.951078414916992,2.6575639247894287,-0.646434485912323
1732873991232144600,9.36214453125,11.66694450378418,2.5330653190612793,-0.4213795065879822
1732873991242154200,9.372154296875,12.425907135009766,2.499546527862549,-0.1412578970193863
1732873991252164000,9.3821640625,12.820950508117676,2.6791117191314697,-0.019153613597154617
1732873991262143500,9.3921435546875,12.957419395446777,2.7078421115875244,0.08140286058187485
1732873991272153000,9.402153076171874,13.002909660339355,2.6575639247894287,0.19393034279346466
1732873991282163000,9.412162841796874,13.163320541381836,2.2864625453948975,0.8044517636299133
1732873991292142000,9.42214208984375,13.33570384979248,2.161964178085327,1.4652514457702637
1732873991302151700,9.432151611328125,13.254301071166992,2.5929205417633057,0.9624691009521484
1732873991312161500,9.44216162109375,13.297396659851074,3.066972494125366,0.9145850539207458
1732873991322171400,9.45217138671875,12.820950508117676,3.246537446975708,1.0965443849563599
1732873991332150500,9.462150634765624,12.016498565673828,2.8131868839263916,1.3766659498214722
1732873991342160400,9.472160400390624,11.422736167907715,1.8315643072128296,1.6208745241165161
1732873991352170200,9.482170166015624,11.446678161621094,0.6584054827690125,1.6615760326385498
1732873991362149600,9.492149658203125,11.827356338500977,0.043095629662275314,1.4700398445129395
1732873991372159200,9.5021591796875,12.038045883178711,-0.37828385829925537,1.3910311460494995
1732873991382168800,9.5121689453125,11.66455078125,-0.5267243981361389,1.5682021379470825
1732873991392148200,9.522148193359374,10.759542465209961,-0.3687070608139038,2.1045033931732178
1732873991402157800,9.53215771484375,9.378087997436523,0.004788403399288654,2.652775526046753
1732873991412167700,9.542167724609374,8.068459510803223,0.5291185975074768,2.832340717315674
1732873991422147000,9.55214697265625,6.636727333068848,1.091755986213684,2.5737667083740234
1732873991432156700,9.56215673828125,5.544970989227295,1.5203180313110352,2.315192937850952
1732873991442166500,9.57216650390625,4.865017890930176,1.7190368175506592,1.599326729774475
1732873991452146000,9.58214599609375,5.228936672210693,1.4748282432556152,1.0630255937576294
1732873991462155500,9.592155517578124,6.485892295837402,1.170764684677124,0.40940847992897034
1732873991472165400,9.602165283203124,8.090007781982422,0.950498104095459,-0.33758243918418884
1732873991482144500,9.61214453125,10.053253173828125,0.7876923680305481,-0.9385270476341248
1732873991492154400,9.622154296875,11.259930610656738,0.6177040338516235,-1.3120225667953491
1732873991502164200,9.632164306640625,11.224017143249512,0.569819986820221,-1.5897499322891235
1732873991512143400,9.642143310546874,10.225635528564453,0.7829039692878723,-1.647210717201233
1732873991522153000,9.652153076171874,8.856152534484863,1.0031704902648926,-1.3958195447921753
1732873991532162800,9.662162841796874,7.362170219421387,1.3287819623947144,-0.950498104095459
1732873991542142000,9.672141845703125,6.385335922241211,1.6065093278884888,-0.5817909836769104
1732873991552151800,9.68215185546875,5.75326681137085,1.7573440074920654,-0.3519476354122162
1732873991562161700,9.69216162109375,5.882553577423096,2.0805611610412598,-0.395043283700943
1732873991572171500,9.702171630859375,6.449979305267334,2.408566951751709,-0.5650315880775452
1732873991582150700,9.712150634765624,6.9695210456848145,2.609679937362671,-0.8020575642585754
1732873991592160500,9.722160400390624,7.441178798675537,2.873042106628418,-1.0462661981582642
1732873991602170400,9.73217041015625,7.860164165496826,3.0142998695373535,-1.0797849893569946
1732873991612149200,9.742149169921875,8.08043098449707,2.999934673309326,-1.1085153818130493
1732873991622159000,9.7521591796875,8.26239013671875,2.8874073028564453,-1.0031704902648926
1732873991632169000,9.7621689453125,8.559270858764648,2.8131868839263916,-0.8212111592292786
1732873991642148400,9.7721484375,8.789113998413086,2.6791117191314697,-0.6847416758537292
1732873991652158000,9.782157958984374,9.174580574035645,2.499546527862549,-0.4692635238170624
1732873991662167800,9.792167724609374,9.68694019317627,2.276885747909546,-0.1173158809542656
1732873991672147000,9.80214697265625,10.15141487121582,2.1092917919158936,0.21547815203666687
1732873991682156800,9.81215673828125,10.625467300415039,2.006340980529785,0.545877993106842
1732873991692166400,9.82216650390625,10.876858711242676,1.9704279899597168,0.5506663918495178
1732873991702145800,9.832145751953124,10.800244331359863,1.9800047874450684,0.4213795065879822
1732873991712155400,9.8421552734375,10.673351287841797,1.9823989868164062,0.42377370595932007
1732873991722165200,9.852165283203124,10.575188636779785,2.118868589401245,0.5841852426528931
1732873991732144600,9.86214453125,10.512939453125,2.341529369354248,0.8188169598579407
1732873991742154200,9.872154296875,10.342951774597168,2.5474305152893066,0.8236053586006165
1732873991752164000,9.8821640625,10.160991668701172,2.7246015071868896,0.8738836050033569
1732873991762143500,9.8921435546875,9.799467086791992,3.1651346683502197,0.8595184087753296
1732873991772153000,9.902153076171874,9.095572471618652,3.555389642715454,0.9265560507774353
1732873991782162700,9.91216259765625,8.669404029846191,3.6750996112823486,1.1540051698684692
1732873991792142000,9.92214208984375,8.389283180236816,3.627215623855591,0.9026140570640564
1732873991802151700,9.932151611328125,8.774748802185059,3.2537200450897217,0.6919242739677429
1732873991812161500,9.94216162109375,9.93354320526123,2.5450363159179688,0.4213795065879822
1732873991822171400,9.95217138671875,11.492168426513672,2.0901381969451904,-0.3878606855869293
1732873991832150500,9.962150634765624,13.201627731323242,1.7190368175506592,-1.3623007535934448
1732873991842160400,9.972160400390624,15.026009559631348,1.5538369417190552,-1.7381904125213623
1732873991852170200,9.982170166015624,15.816096305847168,1.802833914756775,-1.9297266006469727
1732873991862149400,9.9921494140625,15.241488456726074,2.2864625453948975,-1.968033790588379
1732873991872159200,10.0021591796875,13.563152313232422,2.7557260990142822,-1.403002142906189
1732873991882169000,10.012169189453125,11.769895553588867,2.8347349166870117,-0.7852981686592102
1732873991892148200,10.022148193359374,10.802638053894043,2.3080103397369385,-0.7972691655158997
1732873991902157800,10.03215771484375,10.960655212402344,1.3192051649093628,-0.8236053586006165
1732873991912167700,10.042167724609374,11.753135681152344,0.6320692300796509,-1.070208191871643
1732873991922146800,10.052146728515625,12.464214324951172,0.3447650372982025,-1.5490485429763794
1732873991932156700,10.06215673828125,12.301408767700195,0.5027823448181152,-2.293645143508911
1732873991942166500,10.07216650390625,11.274295806884766,0.8619126081466675,-2.4205379486083984
1732873991952146000,10.08214599609375,9.248801231384277,1.194706678390503,-1.9943699836730957
1732873991962155500,10.092155517578124,7.041347026824951,1.5945383310317993,-1.482010841369629
1732873991972165400,10.102165283203124,4.9583916664123535,2.0015525817871094,-1.0869675874710083
1732873991982144500,10.11214453125,3.8977603912353516,2.0685901641845703,-0.9097966551780701
1732873991992154400,10.122154296875,4.091690540313721,1.9081788063049316,-0.8547300100326538
1732873992002164200,10.132164306640625,5.145139217376709,1.6496049165725708,-0.9600749015808105
1732873992012143400,10.142143310546874,6.71334171295166,1.2234370708465576,-1.2018892765045166
1732873992022153000,10.152153076171874,8.152256965637207,0.8906430602073669,-1.4987702369689941
1732873992032162800,10.162162841796874,9.672574996948242,0.4141969084739685,-1.4101848602294922
1732873992042142200,10.17214208984375,10.678139686584473,0.15801730751991272,-1.01753568649292
1732873992052151800,10.18215185546875,10.970232009887695,0.08379705995321274,-0.8547300100326538
1732873992062161700,10.19216162109375,10.599130630493164,0.10534487664699554,-0.5171475410461426
1732873992072171500,10.202171630859375,10.098742485046387,0.3016694188117981,-0.035913024097681046
1732873992082151000,10.21215087890625,9.157821655273438,0.7398083209991455,0.1173158809542656
1732873992092160500,10.222160400390624,8.382100105285645,1.1827356815338135,0.26815059781074524
1732873992102170000,10.232170166015624,7.663839817047119,1.702277421951294,0.3280056416988373
1732873992112149200,10.242149169921875,7.086836814880371,2.1140801906585693,0.4165911078453064
1732873992122159000,10.2521591796875,6.596025466918945,2.4468741416931152,0.4165911078453064
1732873992132169000,10.2621689453125,6.440402507781982,2.6240451335906982,0.363918662071228
1732873992142148400,10.2721484375,6.581660270690918,2.741360902786255,0.19871874153614044
1732873992152158000,10.282157958984374,6.821080684661865,2.82515811920166,-0.090979665517807
1732873992162167800,10.292167724609374,7.182605266571045,2.829946517944336,-0.3687070608139038
1732873992172147000,10.30214697265625,7.654263019561768,2.5665841102600098,-0.6105214357376099
1732873992182156800,10.31215673828125,8.29590892791748,2.4396915435791016,-0.6919242739677429
1732873992192166400,10.32216650390625,8.777143478393555,2.3582887649536133,-0.6727706789970398
1732873992202145800,10.332145751953124,8.947132110595703,2.27209734916687,-0.47884035110473633
1732873992212155400,10.3421552734375,9.01895809173584,2.1811177730560303,-0.49320554733276367
1732873992222165200,10.352165283203124,9.227252960205078,2.205059766769409,-0.6200982332229614
1732873992232144600,10.36214453125,9.47146224975586,2.209848165512085,-0.7469909191131592
1732873992242154200,10.372154296875,9.68694019317627,2.1523873805999756,-0.7948749661445618
1732873992252164000,10.3821640625,9.849745750427246,2.2912509441375732,-0.8164227604866028
1732873992262143500,10.3921435546875,9.543288230895996,2.346317768096924,-0.8571242094039917
1732873992272153300,10.4021533203125,9.605537414550781,2.3726539611816406,-0.1867477297782898
1732873992282163000,10.412162841796874,9.981427192687988,2.3247697353363037,0.004788403399288654
1732873992292141800,10.422141845703125,10.539276123046875,2.164358377456665,0.17477671802043915
1732873992302151700,10.432151611328125,11.417947769165039,2.027888774871826,0.4213795065879822
1732873992312161500,10.44216162109375,12.071564674377441,2.0925323963165283,0.3926490843296051
1732873992322171400,10.45217138671875,12.543222427368164,2.427720546722412,-0.06464344263076782
1732873992332150800,10.46215087890625,12.67250919342041,2.449268341064453,-0.4405331015586853
1732873992342160400,10.472160400390624,12.799402236938477,2.2026655673980713,-0.42616790533065796
1732873992352170200,10.482170166015624,12.969390869140625,2.011129379272461,-0.15322890877723694
1732873992362149600,10.492149658203125,13.175292015075684,2.0183119773864746,0.009576806798577309
1732873992372159200,10.5021591796875,13.108254432678223,2.3032219409942627,-0.05985504388809204
1732873992382168800,10.5121689453125,12.84968090057373,2.6144683361053467,0.08379705995321274
1732873992392148200,10.522148193359374,12.236764907836914,2.449268341064453,0.4812345504760742
1732873992402157800,10.53215771484375,11.726799964904785,1.6759412288665771,0.7110779285430908
1732873992412167700,10.542167724609374,11.719616889953613,0.40462008118629456,0.4165911078453064
1732873992422147000,10.55214697265625,12.562376022338867,-0.4668693244457245,0.028730420395731926
1732873992432156700,10.56215673828125,13.704410552978516,-0.9145850539207458,-0.5123591423034668
1732873992442166500,10.57216650390625,14.00607967376709,-0.7996633648872375,-0.9193734526634216
1732873992452146000,10.58214599609375,13.139378547668457,-0.44771572947502136,-0.9385270476341248
1732873992462155500,10.592155517578124,11.389217376708984,-0.040701430290937424,-0.47405192255973816
1732873992472165400,10.602165283203124,9.129091262817383,0.49799394607543945,1.0678139925003052
1732873992482144800,10.612144775390625,6.766014099121094,1.1516109704971313,1.5490485429763794
1732873992492154400,10.622154296875,4.594472885131836,1.7980455160140991,1.6065093278884888
1732873992502164200,10.632164306640625,3.7684733867645264,2.0925323963165283,1.8267759084701538
1732873992512143400,10.642143310546874,4.003105163574219,1.8315643072128296,2.1164743900299072
1732873992522153000,10.652153076171874,5.171475887298584,1.5753847360610962,1.7070658206939697
1732873992532162800,10.662162841796874,6.325480937957764,1.292868971824646,1.0342950820922852
1732873992542142200,10.67214208984375,7.790732383728027,0.811634361743927,0.7110779285430908
1732873992552151800,10.68215185546875,9.248801231384277,0.5363011956214905,0.7038952708244324
1732873992562161700,10.69216162109375,10.556035041809082,0.2753331959247589,0.16519992053508759
1732873992572171500,10.702171630859375,11.334151268005371,0.043095629662275314,-0.09576806426048279
1732873992582150700,10.712150634765624,11.753135681152344,-0.14844051003456116,-0.2082955539226532
1732873992592160500,10.722160400390624,11.66694450378418,-0.22266076505184174,-0.10534487664699554
1732873992602170400,10.73217041015625,11.1474027633667,-0.10773907601833344,0.10773907601833344
1732873992612149200,10.742149169921875,10.156203269958496,0.31364041566848755,0.2513911724090576
1732873992622159000,10.7521591796875,9.193734169006348,0.7469909191131592,0.27054479718208313
1732873992632169000,10.7621689453125,8.449137687683105,1.237802267074585,0.3280056416988373
1732873992642148400,10.7721484375,8.032546997070312,1.5969325304031372,0.31842881441116333
1732873992652158000,10.782157958984374,7.785943984985352,1.8626888990402222,0.16998831927776337
1732873992662167800,10.792167724609374,7.625532627105713,2.054224967956543,0.038307227194309235
1732873992672147000,10.80214697265625,7.536946773529053,2.2625205516815186,-0.28969839215278625
1732873992682156800,10.81215673828125,7.6782050132751465,2.2170307636260986,0.07422025501728058
1732873992692166400,10.82216650390625,7.752425193786621,2.1763293743133545,0.3495534360408783
1732873992702145800,10.832145751953124,8.001421928405762,2.183511972427368,0.4836287498474121
1732873992712155400,10.8421552734375,8.427590370178223,2.1308395862579346,0.6105214357376099
1732873992722165200,10.852165283203124,8.7268648147583,2.0015525817871094,0.6536170840263367
1732873992732144600,10.86214453125,8.892065048217773,1.9608511924743652,0.6655880808830261
1732873992742154200,10.872154296875,8.992621421813965,1.9632453918457031,0.6751648783683777
1732873992752164000,10.8821640625,9.0859956741333,1.98958158493042,0.7038952708244324
1732873992762143500,10.8921435546875,9.2033109664917,2.0254945755004883,0.8140285611152649
1732873992772153000,10.902153076171874,9.279925346374512,2.142810583114624,0.7948749661445618
1732873992782163000,10.912162841796874,9.421183586120605,2.343923568725586,0.8595184087753296
1732873992792142000,10.92214208984375,9.588777542114258,2.580949544906616,0.8212111592292786
1732873992802151700,10.932151611328125,9.519346237182617,2.779668092727661,0.6967126727104187
1732873992812161500,10.94216162109375,9.265560150146484,2.8658595085144043,0.6153098344802856
1732873992822171400,10.95217138671875,9.153033256530762,2.9903578758239746,0.5147533416748047
1732873992832150500,10.962150634765624,9.272743225097656,2.9281086921691895,0.3734954595565796
1732873992842160400,10.972160400390624,9.670180320739746,2.868253707885742,0.17717093229293823
1732873992852170200,10.982170166015624,10.431536674499512,2.604891538619995,0.05506663769483566
1732873992862149400,10.9921494140625,11.18092155456543,2.212242364883423,-0.016759412363171577
1732873992872159200,11.0021591796875,12.042834281921387,1.9704279899597168,-0.26096799969673157
1732873992882169000,11.012169189453125,12.926295280456543,1.723825216293335,-0.37828385829925537
1732873992892148200,11.022148193359374,13.606247901916504,1.5610195398330688,-1.0989385843276978
1732873992902157800,11.03215771484375,14.027627944946289,1.601720929145813,-1.3024457693099976
1732873992912167700,11.042167724609374,13.900734901428223,1.766920804977417,-1.2401964664459229
1732873992922146800,11.052146728515625,13.292608261108398,1.920149803161621,-0.993593692779541
1732873992932156700,11.06215673828125,12.318167686462402,1.656787633895874,-0.6823474764823914
1732873992942166500,11.07216650390625,11.377246856689453,1.1252747774124146,-0.3016694188117981
1732873992952146000,11.08214599609375,11.058817863464355,0.6799532771110535,-0.3687070608139038
1732873992962155500,11.092155517578124,11.101913452148438,0.42377370595932007,-0.8331822156906128
1732873992972165400,11.102165283203124,11.250353813171387,0.38307225704193115,-1.2641384601593018
1732873992982144800,11.112144775390625,11.003750801086426,0.569819986820221,-1.436521053314209
1732873992992154400,11.122154296875,10.32858657836914,0.7972691655158997,-1.556231141090393
1732873993002164200,11.132164306640625,9.20091724395752,1.0965443849563599,-1.4173674583435059
1732873993012143400,11.142143310546874,7.8745293617248535,1.414973258972168,-1.1516109704971313
1732873993022153000,11.152153076171874,6.402095317840576,1.403002142906189,-0.8906430602073669
1732873993032162800,11.162162841796874,5.69580602645874,1.1276689767837524,-0.8092401623725891
1732873993042142200,11.17214208984375,6.184223175048828,0.8331822156906128,-0.8738836050033569
1732873993052151800,11.18215185546875,7.285555839538574,0.5961562395095825,-0.9840168952941895
1732873993062161700,11.19216162109375,8.257601737976074,0.38067805767059326,-1.2521674633026123
1732873993072171500,11.202171630859375,9.313444137573242,0.19632454216480255,-1.434126853942871
1732873993082151000,11.21215087890625,10.283096313476562,-0.026336219161748886,-1.3503297567367554
1732873993092160500,11.222160400390624,11.044452667236328,-0.0071826050989329815,-1.161187767982483
1732873993102170000,11.232170166015624,11.137825965881348,0.22266076505184174,-1.1109095811843872
1732873993112149500,11.2421494140625,10.651803016662598,0.5602431893348694,-0.8954314589500427
1732873993122159000,11.2521591796875,9.739612579345703,0.8667010068893433,-0.5937620401382446
1732873993132169000,11.2621689453125,8.528146743774414,1.1516109704971313,-0.4213795065879822
1732873993142148400,11.2721484375,7.661445617675781,1.4221558570861816,-0.12210428714752197
1732873993152158000,11.282157958984374,7.01979923248291,1.7118542194366455,0.15322890877723694
1732873993162167800,11.292167724609374,6.677428722381592,1.886630892753601,0.363918662071228
1732873993172147200,11.302147216796875,6.746860504150391,1.9536685943603516,0.31364041566848755
1732873993182156800,11.31215673828125,7.115567684173584,1.9823989868164062,0.11971008777618408
1732873993192166400,11.32216650390625,7.728483200073242,1.9800047874450684,-0.12210428714752197
1732873993202145800,11.332145751953124,8.35336971282959,1.946485996246338,-0.3519476354122162
1732873993212155400,11.3421552734375,8.722076416015625,1.9369091987609863,-0.5817909836769104
1732873993222165200,11.352165283203124,8.951920509338379,1.9704279899597168,-0.6847416758537292
1732873993232144400,11.362144287109375,9.026140213012695,1.9105730056762695,-0.667982280254364
1732873993242154200,11.372154296875,9.165003776550293,1.9033904075622559,-0.6416460275650024
1732873993252564700,11.382564697265625,9.349357604980469,1.886630892753601,-0.6368576288223267
1732873993262516700,11.392516845703126,9.411606788635254,1.7764976024627686,-0.5937620401382446
1732873993272526600,11.402526611328126,9.617507934570312,1.647210717201233,-0.6105214357376099
1732873993282536200,11.4125361328125,9.897629737854004,1.6376339197158813,-0.6057330369949341
1732873993292515300,11.422515380859375,10.014945983886719,1.6184803247451782,-0.629675030708313
1732873993302525200,11.432525146484375,10.041281700134277,1.678335428237915,-0.6033388376235962
1732873993312535000,11.44253515625,10.017339706420898,1.8555063009262085,-0.5315127968788147
1732873993322545000,11.452544921875,9.950302124023438,1.9991583824157715,-0.4429273009300232
1732873993332524000,11.46252392578125,9.890447616577148,2.1523873805999756,-0.3663128614425659
1732873993342534000,11.472533935546876,9.99339771270752,2.3056161403656006,-0.33518823981285095
1732873993352543500,11.48254345703125,10.232817649841309,2.3487119674682617,-0.37828385829925537
1732873993362522600,11.492522705078125,10.647014617919922,2.209848165512085,-0.2561795711517334
1732873993372532500,11.502532470703125,11.02051067352295,2.6599581241607666,-0.6799532771110535
1732873993382542300,11.512542236328125,11.30063247680664,2.518700122833252,-0.7733271718025208
1732873993392521700,11.522521728515626,11.353304862976074,1.9345149993896484,-0.45250412821769714
1732873993402531300,11.53253125,11.78665542602539,1.2665326595306396,0.17717093229293823
1732873993412541200,11.542541259765626,12.473791122436523,0.7996633648872375,0.545877993106842
1732873993422520600,11.5525205078125,13.177685737609863,0.7852981686592102,0.3663128614425659
1732873993432530200,11.5625302734375,13.646949768066406,1.0654197931289673,-0.08140286058187485
1732873993442539800,11.572539794921875,13.438653945922852,1.2713210582733154,-0.26336219906806946
1732873993452519200,11.582519287109376,12.507309913635254,1.137245774269104,-0.19393034279346466
1732873993462528800,11.59252880859375,11.39400577545166,0.6033388376235962,-0.10055647045373917
1732873993472538600,11.60253857421875,10.843339920043945,-0.1149216815829277,0.09576806426048279
1732873993482517800,11.612517822265625,11.116278648376465,-0.5482721924781799,0.1628057211637497
1732873993492527600,11.622527587890625,11.829751014709473,-0.586579442024231,0.31124621629714966
1732873993502537500,11.632537353515625,11.997344970703125,-0.4836287498474121,0.629675030708313
1732873993512516900,11.642516845703126,11.168951034545898,-0.06703764945268631,0.9361328482627869
1732873993522526500,11.6525263671875,9.653421401977539,0.22026655077934265,1.3024457693099976
1732873993532536300,11.662536376953126,7.762001991271973,0.6272808313369751,1.580173134803772
1732873993542515500,11.672515380859375,6.502651691436768,1.0845733880996704,1.6663644313812256
1732873993552525000,11.682525146484375,5.990292549133301,1.2401964664459229,1.644816517829895
1732873993562535000,11.692534912109375,6.418854713439941,1.2234370708465576,1.4269442558288574
1732873993572544800,11.702544677734375,7.632715225219727,0.8906430602073669,1.2210428714752197
1732873993582524000,11.71252392578125,9.349357604980469,0.4812345504760742,0.9888052940368652
1732873993592533800,11.72253369140625,10.833763122558594,0.23702596127986908,0.6991068720817566
1732873993602543600,11.732543701171876,11.836933135986328,0.09576806426048279,0.2801215946674347
1732873993612522800,11.742522705078125,11.930307388305664,0.011971008032560349,0.20350714027881622
1732873993622532600,11.75253271484375,11.310209274291992,0.026336219161748886,0.20350714027881622
1732873993632542200,11.762542236328125,10.532093048095703,0.3734954595565796,0.20111294090747833
1732873993642521600,11.772521484375,9.186552047729492,0.7182605266571045,0.3758896589279175
1732873993652531200,11.78253125,7.920019149780273,1.1085153818130493,0.2944868206977844
1732873993662541000,11.792541015625,6.775590896606445,1.5753847360610962,-0.12210428714752197
1732873993672520200,11.802520263671875,6.00226354598999,1.8914192914962769,-0.4357447028160095
1732873993682530000,11.812530029296875,5.4013190269470215,2.1811177730560303,-0.569819986820221
1732873993692540000,11.822539794921875,5.152322292327881,2.367865562438965,-0.5339069962501526
1732873993702519300,11.832519287109376,5.260061264038086,2.540247917175293,-0.47165772318840027
1732873993712529000,11.84252880859375,5.698200225830078,2.52109432220459,-0.21547815203666687
1732873993722538800,11.852538818359376,6.375759124755859,2.3942017555236816,0
1732873993732518000,11.862517822265625,7.354987621307373,2.1763293743133545,0.15801730751991272
1732873993742527700,11.87252783203125,8.269572257995605,2.0183119773864746,0.3519476354122162
1732873993752537300,11.882537353515625,9.184157371520996,1.8195933103561401,0.2753331959247589
1732873993762516700,11.892516845703126,9.84495735168457,1.6903064250946045,0.17477671802043915
1732873993772526300,11.9025263671875,10.412383079528809,1.5873557329177856,0.20111294090747833
1732873993782536200,11.9125361328125,10.618284225463867,1.522712230682373,0.2968810200691223
1732873993792515600,11.922515625,10.438719749450684,1.4628572463989258,0.4620809257030487
1732873993802525200,11.932525146484375,10.000580787658691,1.4508862495422363,0.7350199222564697
1732873993812535000,11.94253515625,9.459490776062012,1.5203180313110352,0.8906430602073669
1732873993822545000,11.952544921875,8.860940933227539,1.6400281190872192,1.0223240852355957
1732873993832524000,11.96252392578125,8.33182144165039,1.8124107122421265,1.292868971824646
1732873993842534000,11.972533935546876,7.8314337730407715,2.0207061767578125,1.4173674583435059
1732873993852543700,11.982543701171876,7.718906402587891,2.190694570541382,1.4173674583435059
1732873993862522600,11.992522705078125,7.987056732177734,2.231395959854126,1.4101848602294922
1732873993872532500,12.002532470703125,8.561665534973145,2.3056161403656006,1.3718775510787964
1732873993882542300,12.012542236328125,9.576807022094727,2.296039342880249,1.0534487962722778
1732873993892521700,12.022521728515626,10.828974723815918,2.1045033931732178,0.6057330369949341
1732873993902531300,12.03253125,12.236764907836914,1.8602946996688843,0.27054479718208313
1732873993912541200,12.042541259765626,13.541604995727539,1.7334020137786865,-0.272938996553421
1732873993922520300,12.052520263671875,14.45619010925293,1.9153614044189453,-0.8690952062606812
1732873993932530200,12.0625302734375,15.016432762145996,2.0853497982025146,-1.2473790645599365
1732873993942539800,12.072539794921875,15.004462242126465,2.0039467811584473,-1.0654197931289673
1732873993952519200,12.082519287109376,14.786589622497559,1.9153614044189453,-0.6584054827690125
1732873993962528800,12.09252880859375,14.590265274047852,2.0374655723571777,-0.33279404044151306
1732873993972538600,12.10253857421875,14.118607521057129,2.0590133666992188,-0.3064578175544739
1732873993982518000,12.11251806640625,13.673285484313965,1.9704279899597168,-0.011971008032560349
1732873993992527600,12.122527587890625,13.376404762268066,1.4652514457702637,-0.2059013396501541
1732873994002537500,12.132537353515625,13.163320541381836,0.5482721924781799,0.002394201699644327
1732873994012516900,12.142516845703126,13.014880180358887,-0.811634361743927,0.16519992053508759
1732873994022526700,12.152526611328126,12.832921028137207,-1.6136919260025024,-0.272938996553421
1732873994032536300,12.162536376953126,12.51449203491211,-1.599326729774475,-1.4987702369689941
1732873994042515500,12.172515380859375,11.911153793334961,-1.1228805780410767,-2.3487119674682617
1732873994052525000,12.182525146484375,11.128249168395996,-0.44771572947502136,-1.6639702320098877
1732873994062535000,12.192534912109375,9.703699111938477,0.19153612852096558,-0.9265560507774353
1732873994072544800,12.202544677734375,7.893682956695557,0.7757213711738586,-0.7493851184844971
1732873994082524000,12.21252392578125,5.408501625061035,1.237802267074585,-0.49320554733276367
1732873994092533800,12.22253369140625,3.5960910320281982,1.5131354331970215,-0.3711012601852417
1732873994102543600,12.232543701171876,2.5043349266052246,1.558625340461731,-0.3280056416988373
1732873994112523000,12.24252294921875,2.6408045291900635,1.3335703611373901,-0.3711012601852417
1732873994122532600,12.25253271484375,3.9671921730041504,0.9959878921508789,-0.5195417404174805
1732873994132542200,12.262542236328125,6.3973069190979,0.6943184733390808,-0.6847416758537292
1732873994142521300,12.272521240234376,8.700529098510742,0.23702596127986908,-0.7398083209991455
1732873994152531200,12.28253125,10.685321807861328,-0.07422025501728058,-0.5410895943641663
1732873994162541000,12.292541015625,11.57596492767334,-0.16759411990642548,-0.28969839215278625
1732873994172520400,12.3025205078125,11.626243591308594,-0.1412578970193863,0.10295066982507706
1732873994182530000,12.312530029296875,11.068394660949707,-0.05985504388809204,0.5027823448181152
1732873994192540000,12.322539794921875,10.268731117248535,0.21308395266532898,0.6344634294509888
1732873994202519000,12.33251904296875,9.509769439697266,0.5195417404174805,0.6799532771110535
1732873994212529000,12.34252880859375,8.813055992126465,0.9528923034667969,0.5506663918495178
1732873994222538800,12.352538818359376,8.389283180236816,1.259350061416626,0.586579442024231
1732873994232518000,12.362517822265625,8.022970199584961,1.50355863571167,0.5410895943641663
1732873994242527700,12.37252783203125,7.864952564239502,1.6759412288665771,0.5722141861915588
1732873994252537300,12.382537353515625,7.750030994415283,1.7812861204147339,0.5674257874488831
1732873994262516700,12.392516845703126,7.6997528076171875,1.9488801956176758,0.40701428055763245
1732873994272526300,12.4025263671875,7.68538761138916,2.1068975925445557,0.1867477297782898
1732873994282536200,12.4125361328125,7.759607791900635,2.190694570541382,-0.011971008032560349
1732873994292515600,12.422515625,7.7428483963012695,2.190694570541382,-0.19393034279346466
1732873994302525200,12.432525146484375,8.109161376953125,2.0614075660705566,-0.4405331015586853
1732873994312535000,12.44253515625,8.473079681396484,1.9728221893310547,-0.45010992884635925
1732873994322545000,12.452544921875,8.796297073364258,1.9632453918457031,-0.5937620401382446
1732873994332524000,12.46252392578125,9.11233139038086,1.9512743949890137,-0.8140285611152649
1732873994342534000,12.472533935546876,9.409213066101074,1.824381709098816,-0.8331822156906128
1732873994352543500,12.48254345703125,9.856928825378418,1.7764976024627686,-0.7398083209991455
1732873994362523000,12.49252294921875,10.220847129821777,1.5275006294250488,-0.4596867263317108
1732873994372532500,12.502532470703125,10.307038307189941,1.7501614093780518,-0.6584054827690125
1732873994382542300,12.512542236328125,10.632649421691895,1.7860745191574097,-0.3016694188117981
1732873994392521700,12.522521728515626,10.72602367401123,1.6376339197158813,0.009576806798577309
1732873994402531300,12.53253125,10.94150161743164,1.5394717454910278,0.07182604819536209
1732873994412541200,12.542541259765626,11.389217376708984,1.5179238319396973,-0.040701430290937424
1732873994422520600,12.5525205078125,11.858481407165527,1.4939818382263184,-0.18914192914962769
1732873994432530200,12.5625302734375,12.483367919921875,1.7549498081207275,-0.33279404044151306
1732873994442539800,12.572539794921875,12.902353286743164,2.0231003761291504,-0.38067805767059326
1732873994452519200,12.582519287109376,12.990938186645508,2.0231003761291504,-0.2346317619085312
1732873994462528800,12.59252880859375,12.720393180847168,1.556231141090393,0.19871874153614044
1732873994472538600,12.60253857421875,12.60307788848877,1.0342950820922852,0.6272808313369751
1732873994482517800,12.612517822265625,12.722787857055664,1.0127472877502441,1.2042834758758545
1732873994492527600,12.622527587890625,12.957419395446777,1.256955862045288,1.2258312702178955
1732873994502537500,12.632537353515625,12.947842597961426,1.623268723487854,0.8236053586006165
1732873994512516900,12.642516845703126,12.591106414794922,1.6041151285171509,0.811634361743927
1732873994522526500,12.6525263671875,11.973402976989746,0.9528923034667969,0.9624691009521484
1732873994532536300,12.662536376953126,11.690886497497559,0.07661445438861847,0.811634361743927
1732873994542515200,12.67251513671875,12.102689743041992,-0.5817909836769104,0.4908113479614258
1732873994552525000,12.682525146484375,12.643778800964355,-0.7661445140838623,0.38067805767059326
1732873994562535000,12.692534912109375,12.469002723693848,-0.7829039692878723,0.7565677165985107
1732873994572544800,12.702544677734375,11.468226432800293,-0.7350199222564697,0.9672574996948242
1732873994582524000,12.71252392578125,10.103530883789062,-0.30885201692581177,1.2832920551300049
1732873994592533800,12.72253369140625,7.989450931549072,0.05506663769483566,1.9105730056762695
1732873994602543600,12.732543701171876,6.215347766876221,0.4596867263317108,1.9153614044189453
1732873994612522800,12.742522705078125,5.054159641265869,0.7422025203704834,1.4508862495422363
1732873994622532600,12.75253271484375,4.8482584953308105,0.9864110946655273,1.2114660739898682
1732873994632542500,12.76254248046875,5.418078422546387,1.0845733880996704,0.8403648138046265
1732873994642521600,12.772521484375,6.57926607131958,0.790086567401886,0.6105214357376099
1732873994652531200,12.78253125,8.427590370178223,0.6320692300796509,0.38546648621559143
1732873994662541000,12.792541015625,9.897629737854004,0.5530605912208557,0.13407529890537262
1732873994672520200,12.802520263671875,10.72602367401123,0.49320554733276367,0.009576806798577309
1732873994682530000,12.812530029296875,10.800244331359863,0.4572925269603729,0.07422025501728058
1732873994692540000,12.822539794921875,10.371682167053223,0.5315127968788147,0.11252748221158981
1732873994702519300,12.832519287109376,9.548076629638672,0.727837324142456,0.14604631066322327
1732873994712529000,12.84252880859375,8.755595207214355,0.9002198576927185,0.13168109953403473
1732873994722538800,12.852538818359376,8.090007781982422,1.113303780555725,-0.0071826050989329815
1732873994732518000,12.862517822265625,7.661445617675781,1.292868971824646,-0.10534487664699554
1732873994742527700,12.87252783203125,7.407660007476807,1.4891934394836426,-0.40222588181495667
1732873994752537300,12.882537353515625,7.331045627593994,1.7477672100067139,-0.6153098344802856
1732873994762516700,12.892516845703126,7.285555839538574,1.900996208190918,-0.7086837291717529
1732873994772526300,12.9025263671875,7.1921820640563965,1.9297266006469727,-0.6272808313369751
1732873994782536200,12.9125361328125,7.091625213623047,1.9991583824157715,-0.4357447028160095
1732873994792515600,12.922515625,7.022193431854248,1.98958158493042,-0.2992752194404602
1732873994802525200,12.932525146484375,7.319074630737305,1.7812861204147339,-0.2585737705230713
